ENTRY            D0603   20100819   20110323   20110307       D074
SUBENT        D0603001   20100819   20110323   20110307       D074
BIB                 12         16
TITLE      States in 12C from resonant proton scattering
AUTHOR     (Y.Rihet,A.Genoux-Lubain,H.Beaumevieille,R.Seltz,
           C.Gerardin,D.Magnac-Valette)
INSTITUTE  (2FR STR)
REFERENCE  (J,JPR,38,17,1977)
FACILITY   (VDG,2FR STR)
MONITOR    (5-B-11(P,EL)5-B-11,,DA)
MONIT-REF  (,Y.Chanut+,T,Chanut,1973)
REL-REF    (A,F0332002,R.E.Segel+,J,PR,139,B818,196508)
           (A,C0847002,G.W.Tautfest+,J,PR,103,196,195607)
           (A,,G.D.Symons+,J,NP,46,93,1963)
SAMPLE     70 mu-g/cm2 self-supported 11B target (95 %
           enrichment)
DETECTOR   Nothing said about detector
HISTORY    (20100324C)LV, SD.
ERR-ANALYS Statistical errors are smaller than the data points.
ENDBIB              16
COMMON               1          3
EN-RSL
KEV
  20.
ENDCOMMON            3
ENDSUBENT           23
SUBENT        D0603002   20100819   20110323   20110307       D074
BIB                  2          2
REACTION   (5-B-11(P,EL)5-B-11,,DA)
STATUS     (CURVE) fig.1 from ref.
ENDBIB               2
COMMON               2          3
EN-ERR-DIG ERR-DIG
MEV        MB/SR
 0.003       0.5
ENDCOMMON            3
DATA                 3        344
ANG-CM     EN         DATA-CM
ADEG       MEV        MB/SR
      170.9      3.001       79.8
      170.9      3.023       79.1
      170.9      3.041       78.3
      170.9      3.063       76.1
      170.9      3.081       73.1
      170.9      3.100       68.5
      170.9      3.107       66.3
      170.9      3.118       63.2
      170.9      3.132       64.8
      170.9      3.151       67.1
      170.9      3.165       74.6
      170.9      3.179       81.5
      170.9      3.194       86.8
      170.9      3.201       90.6
      170.9      3.215       92.9
      170.9      3.230       98.2
      170.9      3.244       98.2
      170.9      3.262       98.2
      170.9      3.277       99.7
      170.9      3.288      101.3
      170.9      3.313       99.8
      170.9      3.339        99.
      170.9      3.368      101.3
      170.9      3.386      102.1
      170.9      3.418       99.9
      170.9      3.437       99.9
      170.9      3.455       97.6
      170.9      3.473       95.4
      170.9      3.488       93.9
      170.9      3.509       90.1
      170.9      3.535       91.6
      170.9      3.553       89.4
      170.9      3.571       90.9
      170.9      3.589       87.1
      170.9      3.607       87.9
      170.9      3.629       87.9
      170.9      3.651       87.2
      170.9      3.669       85.7
      170.9      3.691       82.7
      170.9      3.713       82.7
      170.9      3.735       83.5
      170.9      3.753       84.3
      170.9      3.771        85.
      170.9      3.793       85.8
      170.9      3.811       85.8
      170.9      3.829       85.8
      170.9      3.851       87.4
      170.9      3.869       86.6
      170.9      3.887       87.4
      170.9      3.912       91.2
      170.9      3.930       95.8
      170.9      3.948       97.3
      170.9      3.967       95.8
      170.9      3.988       97.3
      170.9      4.003       93.6
      170.9      4.025       90.6
      170.9      4.050       83.8
      170.9      4.083        77.
      170.9      4.112       73.2
      170.9      4.127       64.1
      170.9      4.141       68.7
      170.9      4.152       64.2
      170.9      4.174       58.9
      170.9      4.203       57.4
      170.9      4.225       55.9
      170.9      4.247       53.6
      170.9      4.272       52.9
      170.9      4.294       53.7
      170.9      4.327       53.7
      170.9      4.348        56.
      170.9      4.374        56.
      170.9      4.403       59.1
      170.9      4.428       58.3
      170.9      4.450       60.6
      170.9      4.472       64.4
      170.9      4.494       62.2
      170.9      4.526       63.7
      170.9      4.548        63.
      170.9      4.570        66.
      170.9      4.602       66.1
      170.9      4.624       66.1
      170.9      4.646       66.9
      170.9      4.671       66.9
      170.9      4.700       67.7
      170.9      4.726       64.7
      170.9      4.747       69.2
      170.9      4.773       69.3
      170.9      4.795       72.3
      170.9      4.820       74.6
      170.9      4.845       76.1
      170.9      4.874       75.4
      170.9      4.896       70.9
      170.9      4.922       70.9
      170.9      4.954       70.2
      170.9      4.976       75.5
      170.9      4.994       80.8
     143.33      3.009       80.1
     143.33      3.042       77.2
     143.33      3.082        72.
     143.33      3.118       65.4
     143.33      3.147       65.4
     143.33      3.162       71.3
     143.33      3.176       71.4
     143.33      3.198       75.8
     143.33      3.234       78.1
     143.33      3.249       77.3
     143.33      3.267       78.1
     143.33      3.281       76.6
     143.33      3.310       77.4
     143.33      3.336       75.9
     143.33      3.361       75.9
     143.33      3.387       75.2
     143.33      3.412       73.7
     143.33      3.430        73.
     143.33      3.441       72.3
     143.33      3.467       72.3
     143.33      3.485       70.1
     143.33      3.507       66.4
     143.33      3.528       67.9
     143.33      3.547       65.7
     143.33      3.565       66.4
     143.33      3.586       65.7
     143.33      3.608       65.7
     143.33      3.630       65.7
     143.33      3.652       64.3
     143.33      3.666       62.8
     143.33      3.688       62.1
     143.33      3.732       62.8
     143.33      3.746       65.1
     143.33      3.768       66.6
     143.33      3.790       66.6
     143.33      3.811       68.8
     143.33      3.830       70.3
     143.33      3.851       71.8
     143.33      3.869        74.
     143.33      3.888       74.8
     143.33      3.902       78.5
     143.33      3.927       83.7
     143.33      3.949        86.
     143.33      3.967       85.2
     143.33      3.985        86.
     143.33      4.007        86.
     143.33      4.022       87.5
     143.33      4.043       86.8
     143.33      4.073       83.1
     143.33      4.091       84.6
     143.33      4.120       76.4
     143.33      4.149       76.5
     143.33      4.178       74.3
     143.33      4.192       72.8
     143.33      4.222       71.3
     143.33      4.247       69.9
     143.33      4.272       70.6
     143.33      4.294       69.9
     143.33      4.319       69.9
     143.33      4.345       69.9
     143.33      4.370       69.2
     143.33      4.396       72.2
     143.33      4.425        67.
     143.33      4.450       68.5
     143.33      4.472       68.5
     143.33      4.497        70.
     143.33      4.519       66.3
     143.33      4.545       67.1
     143.33      4.566       66.4
     143.33      4.599       66.4
     143.33      4.617       64.2
     143.33      4.643       64.2
     143.33      4.672       65.7
     143.33      4.697        65.
     143.33      4.722        68.
     143.33      4.744       67.2
     143.33      4.770       68.7
     143.33      4.799        71.
     143.33      4.820       73.2
     143.33      4.846       73.2
     143.33      4.868       71.8
     143.33      4.893       69.6
     143.33      4.918       68.8
     143.33      4.944       67.4
     143.33      4.969       67.4
     143.33      4.995       67.4
       95.2      3.006       60.9
       95.2      3.028       61.6
       95.2      3.046       61.6
       95.2      3.075       60.9
       95.2      3.096       63.1
       95.2      3.115       66.7
       95.2      3.140       63.1
       95.2      3.158       60.3
       95.2      3.173       58.1
       95.2      3.180       55.9
       95.2      3.195        48.
       95.2      3.198       53.8
       95.2      3.216       50.1
       95.2      3.217       43.6
       95.2      3.224       48.7
       95.2      3.238       42.2
       95.2      3.249       45.8
       95.2      3.257       38.6
       95.2      3.278       37.1
       95.2      3.297       35.7
       95.2      3.318       34.3
       95.2      3.329       31.4
       95.2      3.377       28.5
       95.2      3.402       27.1
       95.2      3.420       26.4
       95.2      3.438       25.7
       95.2      3.460       24.9
       95.2      3.478       24.2
       95.2      3.496       22.8
       95.2      3.515       19.9
       95.2      3.529       23.5
       95.2      3.547       21.4
       95.2      3.569       17.8
       95.2      3.627       12.7
       95.2      3.667       13.5
       95.2      3.747       17.9
       95.2      3.769       19.3
       95.2      3.794       25.2
       95.2      3.848       30.3
       95.2      3.899       36.1
       95.2      3.917       37.6
       95.2      3.968       43.4
       95.2      3.982       45.6
       95.2      4.001       45.6
       95.2      4.033       47.1
       95.2      4.080        50.
       95.2      4.113       53.6
       95.2      4.138       52.9
       95.2      4.178        50.
       95.2      4.207       49.3
       95.2      4.229       48.6
       95.2      4.298       47.9
       95.2      4.360       42.2
       95.2      4.411       38.6
       95.2      4.509       35.8
       95.2      4.556       32.9
       95.2      4.603       32.2
       95.2      4.687       35.2
       95.2      4.716       35.2
       95.2      4.756       35.2
       95.2      4.785       35.2
       95.2      4.806        36.
       95.2      4.828       37.4
       95.2      4.850        36.
       95.2      4.897       37.5
       95.2      4.919       38.2
       95.2      4.948       37.5
       95.2      4.973       36.8
       95.2      4.992       34.6
      43.33      3.019      155.4
      43.33      3.034      150.2
      43.33      3.056       148.
      43.33      3.074      149.5
      43.33      3.092      161.4
      43.33      3.109      194.2
      43.33      3.138      228.5
      43.33      3.152      243.4
      43.33      3.181      252.3
      43.33      3.200      229.2
      43.33      3.207      218.1
      43.33      3.218      215.8
      43.33      3.240      207.7
      43.33      3.251      200.2
      43.33      3.251       195.
      43.33      3.276      195.8
      43.33      3.294       192.
      43.33      3.313      188.3
      43.33      3.338      183.1
      43.33      3.356      179.4
      43.33      3.374      181.7
      43.33      3.382      174.2
      43.33      3.396       175.
      43.33      3.418      175.7
      43.33      3.433      175.7
      43.33      3.451      172.8
      43.33      3.462      166.1
      43.33      3.480      159.4
      43.33      3.502      155.7
      43.33      3.524      154.2
      43.33      3.542      143.8
      43.33      3.564      160.2
      43.33      3.585       152.
      43.33      3.604       152.
      43.33      3.625      153.5
      43.33      3.640      150.5
      43.33      3.669      143.1
      43.33      3.684      137.9
      43.33      3.720      137.9
      43.33      3.742      134.2
      43.33      3.760      133.5
      43.33      3.789      133.5
      43.33      3.807      133.5
      43.33      3.825       132.
      43.33      3.843      126.8
      43.33      3.865      129.8
      43.33      3.905      131.3
      43.33      3.934      132.8
      43.33      3.952      134.3
      43.33      3.974      135.1
      43.33      3.978      132.1
      43.33      3.992      136.6
      43.33      4.017      139.6
      43.33      4.018      135.8
      43.33      4.032      141.8
      43.33      4.047      137.4
      43.33      4.061      133.6
      43.33      4.065      137.4
      43.33      4.090      136.6
      43.33      4.126      131.4
      43.33      4.145       130.
      43.33      4.170       124.
      43.33      4.192      115.8
      43.33      4.217      114.4
      43.33      4.243      112.1
      43.33      4.265      112.9
      43.33      4.290      110.7
      43.33      4.316      111.4
      43.33      4.341       110.
      43.33      4.366       107.
      43.33      4.392       110.
      43.33      4.414      100.3
      43.33      4.443      102.6
      43.33      4.468      103.3
      43.33      4.490      101.9
      43.33      4.515      104.1
      43.33      4.537       98.9
      43.33      4.570      101.9
      43.33      4.592       98.9
      43.33      4.613      104.2
      43.33      4.642      105.7
      43.33      4.668      110.2
      43.33      4.700      115.4
      43.33      4.718      110.9
      43.33      4.744      117.6
      43.33      4.747      111.7
      43.33      4.762      106.5
      43.33      4.780      113.9
      43.33      4.867      117.7
      43.33      4.889      125.2
      43.33      4.918      134.9
      43.33      4.943      148.3
      43.33      4.990      146.1
ENDDATA            346
ENDSUBENT          357
ENDENTRY             2
