ENTRY            F0918   20080305   20080710   20080516       F031
SUBENT        F0918001   20080305   20080710   20080516       F031
BIB                 11         37
TITLE      Proton resonances in 24Mg from Ex=12.7 to 15.7 MeV.
AUTHOR     (J.R.Vanhoy,E.G.Bilpuch,C.R.Westerfeldt,G.E.Mitchell)
INSTITUTE  (1USADKE,1USATNL,1USANCS)
REFERENCE  (J,PR/C,36,920,1987)
FACILITY   (VDG,1USATNL) The upgraded model KN Van de Graaff
           accelerator.
INC-SPECT  Proton beam at the high resolution system. Absolute
           energy calibration was performed with "secondary
           standard" elastic scattering resonances which have
           been measured relative to the "primary standard"
           neutron thresholds for 7Li(p,n) and 13C(p,n) at
           Ep=1.8806 and Ep=3.2357 MeV.
INC-SOURCE Typical beam currents were 2 mu-A, with the integrated
           beam current adjusted to provide 1-2% counting
           statistics.
DETECTOR   (SIBAR) The first experiment was performed with five
           Si surface barrier detectors at laboratory angles of
           90, 108, 135, 150, and 165 degr.0
           In the second experiment transmission detectors were
           used to distinguish the alpha1 group from protons; the
           detectors cleanly separated the proton and alpha peaks
           for beam energies above 2.3 MeV. The final data were
           obtained with four surface barrier detectors at 90,
           125, 145, and 165 degr. and three transmission
           detectors at 105, 120, and 150 degr. Solid angles of
           the surface barrier detectors were adjusted such that
           the Rutherford scattering count rate was approximately
           the same for all detectors.
SAMPLE     Targets consisted of 1-3 mu-g/cm2 of Na. The vacuum
           evaporation was performed with sodium trititanate
            (Na2Ti3O7) in an open tantalum boat. Very little
           titanium was observed on the targets. The sodium was
           evaporated onto gold coated (~ 1 mu-g/cm2) carbon foils
            (~ 5 mu-g/cm2).
ERR-ANALYS (EN-ERR-DIG) Energy digitizing error
           (ERR-DIG)    Data digitizing error
HISTORY    (20080305C)
ENDBIB              37
COMMON               2          3
EN-ERR-DIG EN-RSL-FW
MEV        EV
 0.0006     400.
ENDCOMMON            3
ENDSUBENT           44
SUBENT        F0918002   20080305   20080710   20080516       F031
BIB                  2          2
REACTION   (11-NA-23(P,EL)11-NA-23,,DA)
STATUS     (CURVE) Fig.1,2,3
ENDBIB               2
COMMON               2          3
ANG        ERR-DIG
ADEG       MB/SR
 165.       0.727
ENDCOMMON            3
DATA                 2       1215
EN         DATA
MEV        MB/SR
       1.08     146.56
     1.0812     177.13
     1.0812     171.22
     1.0847      165.3
      1.087     162.34
     1.0894     164.32
     1.0906     167.27
     1.0917     171.22
     1.0931     182.07
     1.0949     179.11
     1.0964     179.11
     1.0976     174.18
     1.0988     171.22
     1.1011     171.22
     1.1023     168.26
     1.1046     166.29
     1.1058     164.32
     1.1081     159.39
     1.1093     162.35
     1.1128     161.36
     1.1141     159.39
     1.1153     160.38
     1.1159     157.42
     1.1171     154.46
      1.121      151.5
     1.1233     149.53
     1.1257     150.52
      1.126     143.61
     1.1274      144.6
     1.1292     139.67
     1.1327     139.67
      1.133     138.68
     1.1339     143.61
     1.1362     145.59
     1.1386      151.5
     1.1397     149.53
     1.1409     146.57
     1.1429     143.62
     1.1456     136.71
     1.1503     136.71
     1.1528      130.8
     1.1543     125.87
     1.1551     125.87
     1.1558     120.94
     1.1585     117.98
     1.1608     120.94
      1.162     128.83
      1.162     134.74
      1.162     145.59
      1.162     151.51
      1.162     156.44
     1.1631     164.33
     1.1643     158.41
     1.1643     149.54
     1.1643     136.72
     1.1655     125.87
     1.1702     128.83
     1.1702     134.75
     1.1702     139.68
     1.1702     146.58
     1.1702     151.51
     1.1713     162.36
     1.1713     173.21
     1.1725     185.04
     1.1725      194.9
     1.1725     202.79
     1.1725     209.69
     1.1737      216.6
      1.176     187.01
     1.1772     169.26
     1.1795     154.47
     1.1842     144.61
     1.1889     138.69
     1.1912     132.78
     1.1936     129.82
     1.1971     126.86
     1.2006      123.9
     1.2041     120.95
     1.2053     122.92
     1.2076       117.
      1.208     112.07
     1.2096     106.15
     1.2123      110.1
     1.2182     111.09
     1.2217     108.13
     1.2264     109.12
     1.2287      103.2
     1.2334     101.23
     1.2369     96.297
     1.2386     95.312
     1.2404      98.27
     1.2439     99.257
     1.2463      93.34
     1.2475      103.2
     1.2485     98.272
     1.2489     93.342
     1.2498     87.424
     1.2506     83.479
     1.2521     83.479
     1.2533     86.438
     1.2549     77.562
     1.2568     89.397
     1.2568     85.453
     1.2568     82.494
     1.2603     85.453
     1.2618     87.426
     1.2621     83.481
     1.2624     80.523
     1.2629     77.564
     1.2638     75.592
     1.2662     78.551
     1.2667     77.566
     1.2669     71.649
     1.2701      68.69
     1.2732     68.691
     1.2739     64.746
     1.2741     64.746
     1.2742     60.801
     1.2743     60.802
     1.2744     56.857
     1.2745     52.912
     1.2746     48.968
     1.2757     43.051
     1.2765     39.106
     1.2779      33.19
     1.2779     40.093
     1.2781     45.024
     1.2782     51.927
     1.2783     56.858
     1.2784     61.789
     1.2786     66.719
     1.2787      71.65
      1.279     77.567
     1.2802     82.498
     1.2803     88.415
     1.2814     97.291
     1.2814     104.19
     1.2825     110.11
     1.2861       118.
     1.2872      111.1
     1.2931     106.17
     1.2947     103.21
     1.2954      98.28
     1.2978     101.24
     1.2989     98.281
     1.3012     76.759
     1.3102     85.637
     1.3103     93.518
     1.3128     101.37
     1.3129     111.22
      1.313     118.12
     1.3131     124.03
     1.3132     129.94
     1.3135      137.8
     1.3139      145.7
     1.3147     150.61
     1.3159     141.72
     1.3161     133.84
     1.3163     126.94
     1.3166     121.03
     1.3168     115.12
     1.3174      108.2
     1.3177     103.28
     1.3182     99.335
     1.3186     91.441
     1.3195     83.561
     1.3201     77.637
     1.3205     69.757
     1.3211     60.878
     1.3214     52.013
     1.3218     58.881
     1.3221     66.762
     1.3223     76.599
     1.3226     85.491
     1.3229     89.431
     1.3234     95.328
     1.3245     100.25
     1.3257     104.18
     1.3281     108.09
     1.3351     103.09
     1.3386     102.06
      1.341     104.99
     1.3468     100.99
     1.3514     98.962
     1.3584     96.912
     1.3632     98.829
     1.3654     94.862
     1.3702     98.749
     1.3749     96.726
     1.3774     106.55
     1.3822     112.41
     1.3834     119.29
     1.3859     128.13
     1.3884     136.97
     1.3886     148.79
     1.3888     158.64
     1.3889     169.47
      1.389     176.37
     1.3892     185.23
     1.3894      195.1
     1.3895     201.98
     1.3896     208.88
     1.3897     215.77
     1.3898     223.65
     1.3899     234.47
     1.3901     244.34
     1.3913     237.44
     1.3924     227.55
     1.3928     221.64
     1.3929     216.72
     1.3931     207.85
     1.3932     201.94
     1.3933     190.12
     1.3934     184.21
     1.3935      178.3
     1.3936     168.45
     1.3937     162.55
     1.3938     154.67
     1.3939     146.78
     1.3941     138.88
     1.3942     131.03
     1.3943     123.15
     1.3944     117.24
     1.3945     109.35
     1.3946     103.44
     1.3947     95.555
     1.3948     88.646
     1.3949     82.749
     1.3951     77.811
     1.3952     72.872
      1.398     78.729
     1.4016     83.614
     1.4099     85.491
     1.4181     85.398
     1.4251     84.333
      1.431     84.267
     1.4356     81.258
     1.4402     77.265
     1.4414     75.282
     1.4437     71.315
     1.4448     68.346
     1.4482     62.396
     1.4511     59.848
     1.4523        49.
     1.4535     64.779
     1.4546     73.655
     1.4558     87.461
     1.4558     99.295
      1.457     108.17
      1.457     120.99
     1.4581     128.88
     1.4605      134.8
     1.4616     137.76
     1.4628     128.88
      1.464     125.92
     1.4651     128.88
     1.4663     129.87
     1.4687      127.9
     1.4722     124.94
     1.4745      127.9
      1.478     119.02
     1.4815       121.
     1.4839       121.
     1.4874     115.08
     1.4897     122.97
     1.4932     118.04
     1.4968     117.05
     1.5003     118.04
     1.5026     119.03
     1.5035     110.15
     1.5053     113.11
     1.5061     116.07
     1.5096     117.06
     1.5108     112.13
     1.5131     106.21
     1.5145     110.15
      1.515     108.18
     1.5167     105.22
     1.5225     102.27
     1.5237     104.24
     1.5284     104.24
     1.5319     104.24
     1.5354     106.21
     1.5389      107.2
     1.5424     106.21
     1.5459     101.28
     1.5471     87.478
     1.5494     106.22
     1.5529     106.22
     1.5565     108.19
     1.5588     105.23
     1.5623     99.315
     1.5647     101.29
     1.5682      98.33
     1.5705     97.344
      1.574     96.358
     1.5775     95.373
     1.5799     96.359
     1.5834     92.415
     1.5869     93.402
     1.5892     90.444
     1.5928     91.431
     1.5951     90.445
     1.5986     96.363
     1.6009     100.31
     1.6045     94.392
     1.6068     93.406
     1.6103     93.406
     1.6127     89.462
      1.615     91.435
     1.6165     92.422
     1.6173     89.463
     1.6197     88.477
     1.6232     85.519
     1.6267     90.451
     1.6279     87.493
     1.6314     92.424
     1.6349     87.494
     1.6372     93.411
     1.6396     97.356
     1.6431      101.3
     1.6454     98.344
     1.6489     97.358
      1.656     92.429
     1.6606     92.429
     1.6642      92.43
     1.6665     94.403
     1.6677     91.445
       1.67     90.459
     1.6735     86.515
     1.6759     89.474
     1.6782     87.502
     1.6817      85.53
     1.6864       80.6
     1.6887     82.573
     1.6899     79.615
     1.6923     76.657
     1.6946     74.685
     1.6953     76.658
     1.6959     72.713
     1.6968     68.768
     1.7016     71.727
     1.7016     67.783
     1.7033      68.77
     1.7051     64.825
     1.7098     64.826
     1.7098      68.77
     1.7111     70.251
     1.7136      79.09
      1.715     89.912
     1.7151     99.763
     1.7152     105.67
     1.7154     114.54
     1.7155      123.4
     1.7156      130.3
     1.7158     140.15
     1.7159     147.05
      1.716     153.94
     1.7161     161.82
     1.7174     157.85
     1.7176     147.02
     1.7177     139.12
     1.7178     133.21
     1.7179     127.32
     1.7181     119.44
     1.7182     111.54
     1.7183     106.63
     1.7184     100.71
     1.7185     92.841
     1.7186     82.005
     1.7187     76.082
     1.7188     67.216
     1.7192     61.293
     1.7203     55.369
     1.7208     47.475
     1.7212      40.58
     1.7223     32.686
     1.7227     43.132
     1.7229     36.229
     1.7239     31.298
     1.7274     31.299
     1.7286      36.23
     1.7297     41.161
     1.7309     48.065
     1.7332     52.996
     1.7349     56.941
     1.7356       59.9
     1.7391     60.886
     1.7426     61.873
     1.7461     64.832
     1.7496     65.819
      1.752     63.847
     1.7543     60.889
     1.7578     61.876
     1.7613     61.877
     1.7648     58.919
     1.7683     60.892
     1.7707     61.878
      1.773     64.837
     1.7754     60.893
     1.7777     58.921
     1.7801      61.88
     1.7812     63.853
     1.7836     65.825
     1.7862      67.43
     1.7875     75.297
     1.7899     82.165
       1.79     90.046
     1.7902     97.926
     1.7915     96.914
     1.7924     91.004
     1.7935      83.11
     1.7939     76.202
     1.7941     70.292
     1.7942     65.366
     1.7943     56.501
     1.7953     49.592
     1.7956     68.786
     1.7957     61.883
     1.7958      54.98
     1.7959     50.049
     1.7988     40.188
     1.8011     44.133
     1.8011     49.064
     1.8023     53.995
     1.8058      57.94
     1.8105     53.996
      1.814     55.969
     1.8163     57.942
     1.8187     59.915
      1.821     56.957
     1.8234     54.985
     1.8257      58.93
     1.8292     59.917
     1.8316     56.959
     1.8327     53.014
     1.8351     51.042
     1.8386     51.043
     1.8409     53.016
     1.8444      52.03
     1.8456     51.044
     1.8491     53.017
     1.8515     50.059
     1.8561     48.087
     1.8597     49.074
     1.8623     49.075
     1.8632     52.033
      1.869     52.035
     1.8737     52.035
     1.8772     50.064
     1.8807     53.023
     1.8831     54.996
     1.8866     52.038
     1.8889     53.024
     1.8913     52.039
     1.8948     49.081
     1.8971     47.109
     1.9018     45.137
     1.9041      47.11
     1.9065     49.083
     1.9076     46.125
     1.9088     44.152
     1.9135     47.112
     1.9158     43.168
     1.9182     44.154
     1.9217     44.155
     1.9252     43.169
     1.9275      35.28
     1.9311     38.239
     1.9334     39.226
     1.9369     40.213
     1.9404     39.227
     1.9428     37.255
     1.9451     37.256
     1.9474     39.229
     1.9498     38.243
     1.9533     38.243
     1.9568     36.272
     1.9603     38.245
     1.9627     43.176
      1.965     37.259
     1.9673     40.218
     1.9709     38.247
     1.9755     38.248
     1.9779     35.289
     1.9802     38.248
     1.9837     38.249
     1.9872     39.236
     1.9908     39.237
     1.9943     39.237
     1.9978     38.252
     2.0098     49.894
     2.0182     79.511
     2.0197      65.96
     2.0221      59.18
     2.0254     57.056
     2.0278     52.817
      2.031     51.117
     2.0342     47.722
     2.0375     45.175
     2.0399     43.476
     2.0431     41.775
     2.0439      38.81
     2.0488     33.719
     2.0568      23.54
     2.0592     19.301
     2.0634      39.19
     2.0644     54.006
     2.0654     78.982
     2.0663     91.681
     2.0664     107.35
     2.0695      78.55
      2.071     70.079
     2.0742     63.721
     2.0758     62.447
     2.0783     59.902
     2.0807     56.086
     2.0831     59.044
     2.0864     59.037
     2.0888     60.302
     2.0905     61.568
     2.0929     62.409
     2.0945     61.136
     2.0978     60.282
      2.101     59.428
     2.1083     56.871
     2.1132       59.4
     2.1165     61.087
     2.1181     57.273
     2.1197     58.116
     2.1205     58.961
     2.1214     57.266
     2.1246     55.565
     2.1262     54.714
     2.1278     53.441
     2.1282     58.957
     2.1295     55.554
     2.1319     54.278
     2.1335     53.005
     2.1351     50.461
     2.1376     50.032
     2.1392     49.605
     2.1408     50.448
     2.1416       49.6
      2.144     43.667
     2.1457     46.627
     2.1473     47.047
     2.1497     44.078
     2.1513     43.227
     2.1529     38.567
     2.1546     40.257
     2.1579      51.68
     2.1589     67.766
     2.1591     80.892
     2.1604     61.835
     2.1612     55.483
     2.1636     51.244
      2.166     47.005
     2.1668      45.31
     2.1684     41.919
       2.17     43.186
     2.1708     37.257
     2.1725      39.37
     2.1732     36.405
     2.1748     33.438
     2.1765     32.164
     2.1797     29.193
     2.1821     25.377
     2.1869     20.286
      2.191     16.467
     2.1991     14.755
     2.2007     17.292
      2.204     19.825
     2.2073     24.051
     2.2114     28.699
     2.2139     31.657
     2.2147     33.772
     2.2172     34.613
     2.2196     35.031
     2.2245     38.831
      2.227     40.095
     2.2286     41.362
     2.2319     44.318
     2.2359     44.732
     2.2392     48.112
     2.2417      47.26
     2.2539     49.349
     2.2596      54.84
     2.2629      62.03
     2.2654     65.412
     2.2662     68.373
     2.2671     72.182
     2.2687     76.835
     2.2713     92.917
     2.2737     81.058
     2.2744     65.815
      2.276     71.738
     2.2769     78.087
     2.2777     79.779
     2.2778     83.589
     2.2794     89.089
     2.2835     93.313
     2.2852      98.39
     2.2877     102.62
      2.291     109.81
     2.2942     108.11
     2.2983     105.56
     2.3008     110.63
     2.3032     107.24
     2.3056     105.12
     2.3096     100.88
     2.3152     91.549
     2.3185     90.695
     2.3201     86.035
     2.3225     82.642
     2.3241     77.135
     2.3248     68.666
     2.3256     62.737
     2.3271     55.536
     2.3279     50.454
     2.3295      49.18
     2.3312     53.834
      2.332     54.679
     2.3329     60.181
     2.3345     62.717
     2.3354     67.372
      2.337     69.485
     2.3379     73.717
     2.3395       77.1
     2.3412     82.177
      2.343     98.261
     2.3535     91.041
     2.3558     83.838
     2.3591     88.064
     2.3623      82.13
      2.364     81.703
     2.3672     80.002
     2.3696      80.42
     2.3721     81.262
     2.3737     83.798
     2.3744     84.641
     2.3756     87.183
     2.3762     80.829
      2.381     72.774
     2.3843     75.731
     2.3859      72.34
     2.3875     72.336
     2.3899     69.791
     2.3915     68.517
     2.3931      68.09
     2.3948     66.816
     2.3972     67.234
     2.3988     65.114
     2.4077      53.24
     2.4084     50.698
     2.4096     49.006
     2.4109     46.882
     2.4125     43.068
     2.4181     39.245
     2.4206     41.357
     2.4214     42.625
     2.4231     47.278
     2.4239      51.51
     2.4248     56.589
     2.4264     62.089
     2.4273     64.204
     2.4289     65.047
     2.4297     67.162
     2.4306       69.7
     2.4314     68.852
     2.4338     72.656
     2.4363     73.498
     2.4395     72.644
     2.4412     76.027
     2.4428     72.636
     2.4444     70.093
     2.4452     71.361
     2.4476     67.969
     2.4484     66.697
     2.4509     72.195
     2.4541     68.377
     2.4566     67.102
      2.459     68.366
     2.4606     67.093
     2.4631     64.547
     2.4639     63.699
     2.4655     66.659
     2.4672     67.078
     2.4688     66.228
     2.4704     64.954
     2.4745     68.755
     2.4793     56.044
     2.4816     43.761
     2.4816     41.644
     2.4832      40.37
      2.484     38.675
      2.484     36.982
     2.4856     39.518
     2.4864     38.246
     2.4881     37.396
     2.4893     36.965
     2.4897     34.852
     2.4929     33.575
     2.4945     32.724
     2.4962     31.874
     2.4986     33.139
     2.4986     30.175
     2.4986     31.869
     2.5026     24.239
     2.5066      20.42
     2.5099     17.025
     2.5123     16.173
     2.5131     14.478
     2.5147     16.591
     2.5164     16.164
      2.518     18.277
     2.5196     20.391
     2.5205     21.659
     2.5219      25.04
     2.5223     25.467
     2.5238     29.272
     2.5246      30.54
     2.5254     32.232
     2.5271     35.192
     2.5279     36.884
     2.5296     39.843
     2.5304     41.112
     2.5304     42.382
      2.532     41.955
     2.5345     42.796
     2.5361     44.909
     2.5369     46.601
     2.5377     45.329
     2.5394     48.289
      2.541     45.745
      2.541     47.439
     2.5435      48.28
     2.5451     47.429
     2.5467     49.543
       2.55     45.725
     2.5507     43.606
     2.5515     41.911
     2.5532     42.754
     2.5548     43.597
     2.5573     43.592
     2.5589     40.625
     2.5621     42.311
     2.5646     41.459
     2.5686     35.099
     2.5694     32.981
      2.571     30.437
     2.5717     25.355
     2.5722     24.926
     2.5734     24.081
     2.5758     28.309
     2.5792     44.813
     2.5858     51.572
     2.5874     53.262
     2.5939     53.671
     2.5964     52.819
     2.6013     51.961
     2.6062     55.761
     2.6078     55.334
      2.611      55.75
     2.6135     53.627
     2.6151     51.507
     2.6192     53.615
     2.6224     54.031
     2.6273     51.056
     2.6362      47.65
     2.6411     52.296
     2.6436     53.984
     2.6468     55.246
     2.6483     52.701
     2.6486     50.588
     2.6492     51.431
     2.6556     37.445
     2.6564     31.093
      2.658     30.243
      2.658     34.053
     2.6589     34.898
     2.6867     60.238
       2.69     58.537
     2.6913     43.714
     2.6927     50.491
     2.6939      42.44
     2.6963     39.471
     2.6979     38.621
     2.6996     39.888
     2.7021     66.438
      2.703     64.383
     2.7035     62.328
     2.7049     63.013
     2.7049     60.958
     2.7049     59.588
     2.7067     59.588
     2.7076     55.478
     2.7103     53.423
     2.7121     54.792
     2.7139     52.737
     2.7148     51.367
     2.7166     54.791
     2.7185     54.106
     2.7193      53.42
     2.7198      56.16
     2.7199     58.215
     2.7201     59.585
     2.7203      61.64
     2.7239     60.954
     2.7257     62.323
     2.7275     64.378
     2.7293     63.008
     2.7312     65.062
      2.733     66.431
     2.7348     71.226
     2.7366      73.28
     2.7375     76.704
     2.7384     83.554
     2.7402     86.293
      2.742     89.717
      2.743     95.196
     2.7441     95.196
     2.7448     96.566
     2.7475     101.36
     2.7484     104.78
     2.7493     102.73
     2.7511     99.304
      2.752     95.879
      2.752     91.085
     2.7529      84.92
     2.7538     77.386
     2.7538     71.221
     2.7575     73.276
     2.7584      75.33
     2.7602     78.069
     2.7602     79.439
      2.762     80.124
     2.7629     78.069
     2.7638     80.808
     2.7656     80.808
     2.7665     82.178
     2.7684     84.232
     2.7702     85.602
      2.772     82.861
     2.7731     84.231
     2.7738      91.08
     2.7783     92.449
     2.7811     86.969
     2.7829     89.024
     2.7856     93.133
     2.7883     91.762
     2.7901     94.501
     2.7928     91.076
     2.7947     86.281
     2.7965     81.486
     2.7969     80.116
     2.7974     79.431
     2.8001     77.376
     2.8019     71.211
      2.802     69.842
     2.8037     67.786
     2.8046     61.622
     2.8046     60.252
     2.8064     60.936
     2.8082     58.196
     2.8101     53.401
      2.811     54.086
     2.8128     51.346
     2.8146     50.661
     2.8164      50.66
     2.8182     56.139
       2.82     54.769
     2.8219     56.138
     2.8237     59.563
     2.8255     62.987
       2.83     67.781
     2.8318      74.63
     2.8346     78.739
     2.8355     78.053
     2.8373     78.053
     2.8391     78.053
     2.8418     86.956
     2.8427     106.13
     2.8436     121.89
     2.8446      134.9
     2.8446     147.91
     2.8446     155.45
     2.8455     208.19
     2.8464     222.57
     2.8473     221.89
     2.8477     215.72
     2.8479     206.82
     2.8482     195.17
     2.8485     186.27
     2.8493     182.16
       2.85     173.26
     2.8509     161.61
     2.8518     149.28
     2.8527     140.38
     2.8536     136.27
     2.8554     126.68
     2.8573     122.57
     2.8582     118.46
       2.86      116.4
     2.8627     114.35
     2.8645     113.66
     2.8663     109.55
     2.8672     109.55
      2.869     104.07
     2.8718     99.279
     2.8718     98.594
     2.8745     95.168
     2.8763     87.634
     2.8781     84.209
     2.8798     82.153
       2.88     79.414
     2.8817     75.989
     2.8844     73.248
     2.8872     79.412
     2.8881     85.576
      2.889     91.741
     2.8899     101.33
     2.8908     107.49
     2.8917      111.6
     2.8926     113.66
     2.8935     117.08
     2.8944     121.19
     2.8946     124.62
     2.8961     125.99
     2.8972     128.04
     2.8999     128.04
     2.8999     130.09
     2.9006     127.35
     2.9018     125.98
     2.9044     124.61
      2.906      120.5
     2.9071     119.13
     2.9108     115.02
     2.9117     116.39
     2.9126     129.41
     2.9135      125.3
     2.9144     122.56
     2.9144     117.08
     2.9153     115.02
     2.9171     114.34
     2.9189     110.23
     2.9216     110.23
     2.9216     107.49
     2.9235     106.12
     2.9253     103.38
     2.9289     98.581
     2.9316     95.841
     2.9334     94.471
     2.9362     92.415
     2.9371     93.785
      2.938      94.47
     2.9407      88.99
     2.9425     86.935
     2.9452     82.824
     2.9479     78.714
     2.9488     75.974
     2.9507     73.234
     2.9516     67.755
     2.9534      64.33
     2.9552     65.699
      2.957     70.493
      2.957     75.288
     2.9579     78.027
     2.9597     84.876
     2.9615     86.246
     2.9625     88.985
     2.9632      89.67
     2.9644     90.355
      2.967     90.354
     2.9706     88.983
     2.9718     86.929
     2.9724     85.558
     2.9752     83.503
     2.9779     82.818
     2.9806     80.762
     2.9824     77.337
     2.9833     73.912
     2.9851     72.542
     2.9869     67.747
     2.9886     67.746
     2.9889     67.062
     2.9924     62.951
     2.9942     60.896
      2.996     60.211
     2.9969     56.786
     2.9987     54.046
     3.0005     55.415
     3.0024     54.045
      3.006     53.359
     3.0087     54.729
     3.0105     52.674
     3.0132     51.988
      3.016     54.042
     3.0187     52.672
     3.0196     54.042
     3.0214     52.671
     3.0241     51.986
     3.0268       51.3
     3.0305     49.245
     3.0332     48.559
      3.035     47.189
     3.0377     50.613
     3.0414     51.297
     3.0414     54.722
     3.0423     58.146
     3.0441     63.625
     3.0477     67.049
     3.0486     67.734
     3.0486     69.104
     3.0513     71.158
     3.0541     71.842
     3.0568     71.842
     3.0604     72.526
      3.064      71.84
     3.0677     75.264
     3.0704     73.209
     3.0722     74.578
     3.0749     73.208
     3.0776     71.837
     3.0813     73.206
     3.0867      71.15
     3.0912      68.41
     3.0949     66.354
     3.0985     68.408
     3.1012     70.462
      3.103     75.257
     3.1049     81.421
     3.1085      84.16
     3.1121     88.953
     3.1148     96.487
     3.1167     106.08
     3.1185     112.24
     3.1203     114.29
     3.1212     117.72
     3.1221     120.46
     3.1239     125.25
     3.1257     126.62
     3.1275     127.99
     3.1285     129.36
     3.1303     126.62
     3.1321     124.57
     3.1339     115.66
     3.1357      109.5
     3.1375     99.222
     3.1384     95.797
     3.1393     89.632
     3.1411     82.783
     3.1429     76.618
     3.1448     68.398
     3.1457     64.974
     3.1466     62.919
     3.1538     52.643
     3.1545     51.957
     3.1556     49.218
     3.1572      23.19
     3.1584     47.848
     3.1629     54.011
     3.1656     56.065
     3.1692     58.804
     3.1701     54.694
      3.172     57.434
     3.1738     55.378
     3.1783     58.802
      3.181     60.171
     3.1838     61.541
     3.1856      62.91
     3.1869     64.279
     3.1892     70.444
     3.1901     68.389
     3.1946     67.703
     3.1956     69.072
     3.1974     69.757
     3.1992     71.811
      3.201     72.496
     3.2023      73.18
     3.2028     70.441
     3.2035     71.125
     3.2046     69.071
     3.2073       67.7
     3.2101     69.069
     3.2102     67.015
     3.2123     73.179
     3.2127     73.178
     3.2129     71.809
     3.2137     71.123
     3.2153     68.383
     3.2164     74.547
     3.2191     77.287
     3.2219     71.807
     3.2228     71.121
     3.2246     73.861
     3.2264     73.175
     3.2291     73.175
     3.2318     74.544
     3.2336     73.174
     3.2355     73.858
     3.2373     73.858
     3.2391     69.063
     3.2409     66.323
     3.2427     69.062
     3.2454     68.377
     3.2491     68.376
     3.2527     68.375
     3.2563     67.005
     3.2618     64.264
     3.2654     58.784
     3.2681     53.988
     3.2699     50.563
     3.2735     50.563
     3.2745     48.508
     3.2745     47.138
     3.2763     45.083
     3.2781     41.658
     3.2808     40.972
     3.2826     39.602
     3.2835     36.177
     3.2853     40.971
     3.2881      46.45
     3.2881      50.56
      3.289     54.669
     3.2908     58.778
     3.2944     61.517
     3.2971     62.201
     3.2999     60.831
     3.3017     59.461
     3.3044     60.145
      3.308     62.199
     3.3107     60.829
     3.3135     56.719
     3.3162     56.718
     3.3171     54.663
     3.3189     53.293
     3.3207     51.238
     3.3225     49.182
     3.3252     49.867
      3.328     47.811
     3.3298     44.386
     3.3307     43.016
     3.3325     40.276
     3.3343     38.906
     3.3352     36.166
     3.3379     41.645
     3.3388      39.59
     3.3425     40.274
     3.3452     41.643
      3.347     45.752
     3.3479     49.177
     3.3479     53.971
     3.3506     62.875
     3.3525     64.244
     3.3543     62.189
     3.3561     61.504
     3.3579     59.449
     3.3597     57.394
     3.3633     56.023
     3.3652     56.708
     3.3679     56.707
     3.3697     55.337
     3.3715     54.651
     3.3733     53.281
      3.376     51.226
     3.3779      50.54
     3.3797      51.91
     3.3815     52.594
     3.3842     51.909
      3.386     52.593
     3.3869     51.223
     3.3887     52.593
     3.3906     51.223
     3.3933     51.222
     3.3951     48.482
     3.3969     49.851
     3.3987     50.536
     3.4014     48.481
     3.4023      49.85
     3.4051     50.535
     3.4069     49.164
     3.4096     48.479
     3.4123     48.478
     3.4141     46.423
     3.4159     45.738
     3.4187     43.682
     3.4205     46.422
     3.4223     45.051
      3.425     44.366
     3.4268     45.735
     3.4296     47.105
     3.4323     44.364
      3.435     41.624
     3.4386     40.938
     3.4413     38.883
     3.4432     40.253
     3.4459     39.567
     3.4486     37.512
     3.4504     40.936
     3.4531     42.305
     3.4577     40.934
     3.4604     42.304
     3.4631     43.673
     3.4658     43.672
     3.4695     43.672
     3.4722     42.986
     3.4749     42.301
     3.4785       42.3
     3.4822     41.614
     3.4849     40.929
     3.4885     38.873
     3.4912     38.872
     3.4939     38.187
     3.4976     38.186
ENDDATA           1217
ENDSUBENT         1228
SUBENT        F0918003   20080305   20080710   20080516       F031
BIB                  2          2
REACTION   (11-NA-23(P,INL)11-NA-23,PAR,DA)
STATUS     (CURVE) Fig.1,2
ENDBIB               2
COMMON               2          3
E-LVL      ERR-DIG
MEV        MB/SR
 0.44       0.73
ENDCOMMON            3
DATA                 3        755
ANG        EN         DATA
ADEG       MEV        MB/SR
       125.     2.0173     3.9848
       125.     2.0198     3.9762
       125.      2.023     4.6204
       125.     2.0255     5.9232
       125.     2.0279     5.9146
       125.     2.0344     5.2359
       125.     2.0368      5.883
       125.     2.0401     5.8715
       125.     2.0425     4.5515
       125.     2.0466     6.5042
       125.     2.0491     7.1513
       125.     2.0515     7.7984
       125.     2.0556      7.784
       125.      2.058     10.398
       125.     2.0597     12.359
       125.     2.0613     14.321
       125.     2.0629     13.004
       125.     2.0637     15.623
       125.     2.0662     16.926
       125.     2.0686     14.951
       125.     2.0694      17.57
       125.     2.0727     16.903
       125.     2.0751     16.895
       125.     2.0768     14.266
       125.     2.0784     12.949
       125.     2.0833     14.899
       125.     2.0857     8.3335
       125.     2.0889     7.6663
       125.     2.0938     5.6821
       125.     2.0979      5.012
       125.     2.1076     5.6333
       125.     2.1109     5.6218
       125.     2.1133     4.3018
       125.     2.1157     4.2932
       125.     2.1173    0.35339
       125.     2.1287   -0.34248
       125.     2.1344     2.2602
       125.     2.1385     2.2458
       125.     2.1442     2.2257
       125.     2.1556     3.4969
       125.     2.1589     5.4525
       125.     2.1605     3.4797
       125.     2.1686     4.1066
       125.     2.1751     4.7394
       125.     2.1768     4.7336
       125.     2.1808      5.375
       125.     2.1841     5.3635
       125.     2.1865     6.0105
       125.     2.1882     9.9389
       125.     2.1898     7.9661
       125.     2.1914     10.583
       125.     2.1939     8.6074
       125.     2.1947     11.227
       125.     2.1963     10.566
       125.     2.1988     11.869
       125.     2.2004     12.519
       125.     2.2061      13.81
       125.     2.2126     13.787
       125.     2.2159     13.775
       125.     2.2175     12.458
       125.     2.2199     11.138
       125.     2.2215     11.788
       125.     2.2232     10.471
       125.     2.2256     7.8398
       125.     2.2264      9.804
       125.      2.228     9.1426
       125.     2.2297     8.4812
       125.     2.2313     7.1641
       125.     2.2329     5.8469
       125.     2.2337     7.8111
       125.     2.2362     7.8025
       125.      2.237     5.8326
       125.     2.2386     7.1382
       125.      2.241     7.1296
       125.     2.2427     5.8125
       125.     2.2436     3.8455
       125.     2.2451     5.8039
       125.     2.2475     7.1066
       125.     2.2483     5.1367
       125.     2.2508     3.8168
       125.     2.2516     6.4366
       125.     2.2532     4.4638
       125.     2.2557     3.1439
       125.     2.2557     5.7666
       125.     2.2581      7.725
       125.     2.2589     5.7551
       125.     2.2605     5.0937
       125.      2.261     7.7078
       125.     2.2622     5.7436
       125.     2.2646     5.0793
       125.     2.2662     7.0406
       125.     2.2663     4.4179
       125.     2.2679     5.7235
       125.     2.2687     3.0979
       125.     2.2703     5.7149
       125.     2.2711     4.4007
       125.     2.2719     3.0865
       125.     2.2728      6.362
       125.     2.2732     7.0091
       125.     2.2744     4.3892
       125.     2.2768      5.692
       125.     2.2771     5.6805
       125.     2.2776     3.0721
       125.     2.2784     4.3749
       125.     2.2792     2.4049
       125.     2.2809     3.7106
       125.     2.2833     3.0463
       125.     2.2849     4.3519
       125.     2.2874      4.999
       125.      2.289     3.6819
       125.     2.2915     4.3289
       125.     2.2939      4.976
       125.     2.2955     4.3146
       125.      2.298      4.306
       125.     2.2996     4.3002
       125.     2.3012     3.6388
       125.     2.3037     5.5972
       125.     2.3053     4.9358
       125.     2.3077     4.2715
       125.     2.3102     3.6072
       125.     2.3126     5.5657
       125.      2.315     5.5571
       125.     2.3167       4.24
       125.     2.3183     3.5785
       125.     2.3207     4.2256
       125.     2.3232     5.5284
       125.     2.3248     6.1783
       125.     2.3273     8.7924
       125.     2.3273     6.1697
       125.     2.3289     6.8196
       125.     2.3305     5.5025
       125.     2.3321     3.5297
       125.     2.3329     4.8382
       125.     2.3346     4.1768
       125.     2.3354     2.8626
       125.     2.3378     3.5097
       125.     2.3386     5.4738
       125.     2.3411     4.8095
       125.     2.3427     6.7708
       125.     2.3452     6.7622
       125.     2.3476     6.0979
       125.       2.35     5.4336
       125.     2.3525     4.7694
       125.     2.3541     3.4523
       125.     2.3565     4.0993
       125.      2.359     4.0907
       125.     2.3622     3.4235
       125.     2.3639     4.0735
       125.     2.3663     4.0649
       125.     2.3679     3.4035
       125.     2.3704     3.3948
       125.     2.3728     4.0419
       125.     2.3736     2.7277
       125.     2.3752     4.0333
       125.     2.3769     2.0605
       125.     2.3777      3.369
       125.     2.3801      2.049
       125.     2.3834     2.0376
       125.     2.3866     3.3374
       125.     2.3891     3.9845
       125.     2.3915     3.9759
       125.     2.3939     3.9673
       125.     2.3964     3.9587
       125.     2.3988     4.6057
       125.     2.4013     5.2528
       125.     2.4037     5.2442
       125.     2.4053     4.5828
       125.      2.407       2.61
       125.     2.4078     5.8855
       125.     2.4102     7.1883
       125.     2.4119     11.117
       125.     2.4143     11.108
       125.     2.4159     10.447
       125.     2.4176     9.7852
       125.     2.4184     12.405
       125.       2.42     14.366
       125.     2.4209     17.642
       125.     2.4233     17.633
       125.     2.4244     17.628
       125.     2.4253       19.6
       125.     2.4258     18.936
       125.     2.4266     20.244
       125.     2.4274     14.996
       125.     2.4279     13.688
       125.     2.4281     9.7479
       125.     2.4282     12.371
       125.     2.4298     11.053
       125.     2.4314     12.359
       125.     2.4347     14.315
       125.     2.4353     14.965
       125.     2.4388     9.7278
       125.     2.4403     7.7378
       125.     2.4428     7.7292
       125.     2.4436     6.4149
       125.     2.4452     7.0649
       125.     2.4468     5.0921
       125.     2.4493     7.7062
       125.     2.4501      6.392
       125.     2.4525     5.7277
       125.     2.4542     7.0333
       125.     2.4566     3.7463
       125.     2.4582     2.4292
       125.     2.4598     3.7348
       125.     2.4606     1.7649
       125.     2.4631     3.7233
       125.     2.4639     6.3432
       125.     2.4663     3.7118
       125.     2.4663     2.4005
       125.     2.4688     3.7032
       125.     2.4712     4.3503
       125.     2.4729     5.6559
       125.     2.4745     7.6172
       125.     2.4761     8.9229
       125.      2.477     10.887
       125.     2.4778     12.851
       125.     2.4778     14.818
       125.     2.4794     16.124
       125.     2.4802      14.81
       125.     2.4819     12.837
       125.     2.4822     12.843
       125.     2.4823     10.878
       125.     2.4824      10.87
       125.     2.4825     8.9028
       125.     2.4826     6.9328
       125.     2.4843     6.9271
       125.     2.4843     9.5498
       125.     2.4859     8.2327
       125.     2.4859     6.2657
       125.     2.4875     5.6043
       125.     2.4899     6.2513
       125.     2.4924     7.5541
       125.      2.494      6.237
       125.     2.4956     6.8869
       125.     2.4973      10.16
       125.     2.4973     12.127
       125.     2.4989     11.465
       125.     2.4989     8.8425
       125.     2.5006     10.804
       125.     2.5022     11.454
       125.     2.5038     12.759
       125.     2.5046     8.8224
       125.     2.5055     15.376
       125.     2.5079     12.745
       125.     2.5095     15.362
       125.      2.512      17.32
       125.     2.5136     16.003
       125.     2.5152     17.965
       125.     2.5169     17.959
       125.     2.5177     15.989
       125.     2.5193     17.295
       125.     2.5209     19.256
       125.     2.5217     17.286
       125.     2.5225     15.316
       125.     2.5242     13.999
       125.     2.5258     15.305
       125.     2.5259      14.64
       125.      2.526     19.897
       125.     2.5266     17.924
       125.     2.5282     16.607
       125.     2.5307     15.943
       125.     2.5308      13.32
       125.     2.5323     14.626
       125.     2.5339     12.653
       125.     2.5355     13.303
       125.     2.5355     11.336
       125.     2.5372     10.675
       125.     2.5372     12.642
       125.     2.5396     10.666
       125.     2.5396     12.633
       125.     2.5412     10.005
       125.      2.542     11.969
       125.     2.5428     9.3432
       125.     2.5437     11.307
       125.     2.5461     10.643
       125.     2.5475     8.6674
       125.     2.5487     6.7032
       125.      2.551     8.6588
       125.     2.5518     6.6946
       125.     2.5526     6.0303
       125.     2.5526     7.9974
       125.     2.5542     6.0246
       125.     2.5558     6.6745
       125.     2.5575     5.3574
       125.     2.5583     7.3216
       125.     2.5607      7.313
       125.     2.5623     5.9959
       125.      2.564     4.0231
       125.     2.5648     5.9873
       125.     2.5652     6.6343
       125.     2.5664     5.3259
       125.     2.5672     4.0116
       125.     2.5689     5.3172
       125.     2.5689     7.2843
       125.     2.5705     5.9672
       125.     2.5713     7.9314
       125.     2.5728     8.5784
       125.     2.5739     9.8927
       125.     2.5746     11.198
       125.     2.5754     9.8841
       125.     2.5762     12.504
       125.      2.577      11.19
       125.     2.5787     13.151
       125.     2.5803      12.49
       125.     2.5809     11.181
       125.     2.5811     9.8639
       125.     2.5827      11.17
       125.     2.5835     9.1997
       125.     2.5843     10.508
       125.     2.5851     7.8826
       125.      2.586     9.8467
       125.     2.5876     9.1853
       125.     2.5876     7.2183
       125.     2.5892     6.5569
       125.       2.59      8.521
       125.     2.5908     5.8954
       125.     2.5916     7.8596
       125.     2.5924     6.5454
       125.     2.5941      7.851
       125.     2.5949     6.5368
       125.     2.5973     7.1838
       125.     2.5973     5.8725
       125.     2.5989     5.2111
       125.     2.5998     6.5195
       125.     2.6004     9.1365
       125.     2.6012     7.1666
       125.     2.6024     5.2024
       125.     2.6038     5.8495
       125.     2.6038     7.1609
       125.     2.6063     5.1852
       125.     2.6079     6.4908
       125.     2.6103     6.4822
       125.     2.6128     6.4736
       125.     2.6144     5.1565
       125.     2.6177     5.8007
       125.     2.6201     5.1364
       125.     2.6225     5.1278
       125.      2.625     5.1192
       125.     2.6266     5.1135
       125.     2.6282     3.7964
       125.     2.6299     6.4133
       125.     2.6331     6.4019
       125.     2.6364     5.7347
       125.     2.6372     7.0432
       125.     2.6388     6.3818
       125.     2.6413     6.3732
       125.     2.6437     7.0202
       125.      2.647     6.3531
       125.     2.6478     8.3172
       125.     2.6494     7.0001
       125.     2.6502     8.9643
       125.     2.6518     9.6142
       125.     2.6518     7.6472
       125.     2.6523     7.6386
       125.     2.6535     9.6085
       125.     2.6559     6.9772
       125.     2.6563     6.9686
       125.     2.6571     8.9471
       125.     2.6575     8.2828
       125.     2.6587      9.597
       125.     2.6592     9.5884
       125.       2.66     8.2742
       125.     2.6616     7.6128
       125.     2.6624     8.9213
       125.      2.664     8.2598
       125.     2.6649     10.224
       125.     2.6665     8.9069
       125.     2.6673     11.527
       125.     2.6681     9.5568
       125.     2.6698     10.862
       125.     2.6712     10.198
       125.     2.6724     13.479
       125.      2.673     12.162
       125.     2.6746     11.501
       125.     2.6755     12.809
       125.     2.6779     12.801
       125.     2.6795     16.073
       125.     2.6803     14.759
       125.      2.682     14.098
       125.     2.6828     12.784
       125.     2.6844     12.122
       125.     2.6852     10.152
       125.     2.6868     9.4908
       125.     2.6885     9.4851
       125.     2.6909     7.5094
       125.     2.6925     6.1923
       125.     2.6949     6.1837
       125.     2.6966     5.5223
       125.     2.6982     6.8279
       125.     2.6998     6.8222
       165.     1.0801     2.8243
       165.     1.0825     2.3116
       165.     1.0848     1.7989
       165.     1.0871     1.2861
       165.     1.0895      3.594
       165.      1.093     2.5685
       165.     1.0953     4.3635
       165.     1.0977     4.1072
       165.     1.1035     1.2869
       165.     1.1094     5.6462
       165.     1.1105     2.8257
       165.     1.1152     3.8516
       165.     1.1164     3.8516
       165.     1.1199     2.5697
       165.     1.1269     1.5444
       165.     1.1281     2.0573
       165.     1.1386     1.0322
       165.     1.1433     3.3401
       165.     1.1457     8.9812
       165.     1.1527     2.5713
       165.      1.155     3.8535
       165.     1.1562     3.0843
       165.     1.1574      8.469
       165.     1.1597     1.2896
       165.     1.1597     5.1357
       165.     1.1609      4.623
       165.      1.162     5.6487
       165.     1.1621     2.3153
       165.     1.1632      2.059
       165.     1.1644     1.2898
       165.     1.1667     2.8284
       165.     1.1679       1.29
       165.     1.1691     4.3669
       165.     1.1714     6.9312
       165.     1.1726     3.8543
       165.     1.1726     5.1363
       165.     1.1749     2.5723
       165.     1.1749     1.2903
       165.     1.1796     2.0597
       165.     1.1819      4.624
       165.     1.1819     1.2906
       165.     1.1831     4.1112
       165.     1.1843     4.8805
       165.     1.1855     1.2908
       165.     1.1878     1.8037
       165.     1.1878     1.0345
       165.     1.1925     1.2911
       165.     1.1937     5.9066
       165.     1.1995      1.035
       165.     1.1995     1.8043
       165.     1.2007     3.0864
       165.      1.203      4.625
       165.      1.203     1.2916
       165.     1.2042     3.8558
       165.     1.2077     3.0867
       165.     1.2089     1.2919
       165.     1.2089     2.0611
       165.     1.2124     1.8049
       165.     1.2182     4.6257
       165.     1.2253     5.1388
       165.     1.2299     2.5749
       165.     1.2334     7.1905
       165.     1.2346     3.6008
       165.     1.2358     2.0624
       165.     1.2381     1.5497
       165.     1.2393     5.9087
       165.     1.2416      1.037
       165.      1.244     2.0628
       165.     1.2498     3.0887
       165.      1.251     2.3195
       165.     1.2522     4.3709
       165.     1.2534     3.0889
       165.     1.2534     5.1402
       165.     1.2534     6.6786
       165.      1.258     1.2942
       165.     1.2592     3.8584
       165.     1.2592     3.0891
       165.     1.2592     5.9097
       165.     1.2627     3.8585
       165.     1.2639     2.5765
       165.     1.2651     5.3971
       165.     1.2674     7.4485
       165.     1.2674     2.3203
       165.     1.2686     1.0383
       165.     1.2697     4.8845
       165.     1.2697      2.064
       165.     1.2697     4.1153
       165.     1.2709     6.6794
       165.     1.2733     3.3462
       165.     1.2744     4.3719
       165.     1.2756      1.295
       165.     1.2768     5.6541
       165.     1.2779     4.1157
       165.     1.2779     1.2952
       165.     1.2791     5.1414
       165.     1.2803     3.3465
       165.     1.2814     5.9107
       165.     1.2826       6.68
       165.     1.2826     3.6031
       165.     1.2826     7.4492
       165.     1.2838     8.2185
       165.      1.285     6.1673
       165.      1.285     4.6288
       165.      1.285     1.2955
       165.     1.2885     2.8341
       165.     1.2885     1.2957
       165.     1.2896      3.347
       165.     1.2943     2.3216
       165.     1.2955      1.296
       165.      1.299     3.8603
       165.     1.3002     1.0398
       165.     1.3025     5.3989
       165.     1.3037     2.8348
       165.     1.3095    0.78383
       165.     1.3131     3.8609
       165.     1.3142     2.5789
       165.     1.3166      1.297
       165.     1.3177     2.3227
       165.     1.3212     2.3228
       165.     1.3212     1.2972
       165.     1.3212     3.0921
       165.     1.3248     1.2974
       165.     1.3248     2.0666
       165.     1.3248     6.1692
       165.     1.3259     3.0923
       165.     1.3259     3.8615
       165.     1.3271     6.4257
       165.     1.3294     5.4002
       165.     1.3294     3.3489
       165.     1.3294     4.3745
       165.     1.3306     1.8105
       165.      1.333     1.0413
       165.     1.3341     4.8876
       165.     1.3341     2.8363
       165.     1.3365       2.58
       165.       1.34     2.3237
       165.     1.3423     4.6315
       165.     1.3552     4.8886
       165.     1.3599     2.0683
       165.      1.361     1.0427
       165.     1.3634      6.171
       165.     1.3634     3.0941
       165.     1.3646     1.0428
       165.     1.3646     2.8377
       165.     1.3763     3.0947
       165.     1.3798     2.0692
       165.     1.3833     1.0437
       165.     1.3868     6.6849
       165.     1.3868     1.0439
       165.      1.388     4.6337
       165.     1.3903      1.044
       165.     1.3903     1.8133
       165.     1.3903     2.5825
       165.     1.3915     5.6595
       165.     1.3915     3.6082
       165.     1.3938     3.6083
       165.     1.3938      5.916
       165.     1.3938     2.8391
       165.      1.395     1.3007
       165.     1.3985     3.6085
       165.     1.4044     4.3781
       165.     1.4067     3.6089
       165.     1.4137     4.8913
       165.     1.4219     3.8661
       165.     1.4336    0.78969
       165.     1.4371     1.5591
       165.     1.4406      5.149
       165.     1.4442      1.303
       165.     1.4477     2.8416
       165.       1.45     5.9187
       165.     1.4512     4.3803
       165.     1.4512     11.047
       165.     1.4535     8.9958
       165.     1.4547     13.868
       165.      1.457     7.9703
       165.     1.4582     6.9447
       165.     1.4605     5.6628
       165.     1.4629    0.27825
       165.     1.4652     3.8681
       165.     1.4664     2.0733
       165.     1.4711    0.27863
       165.     1.4711     1.0479
       165.     1.4758     4.3814
       165.     1.4781     2.0738
       165.     1.4793    0.53543
       165.     1.4804     2.5868
       165.      1.491     1.5616
       165.     1.4933     3.3566
       165.     1.5027     4.1263
       165.     1.5027     4.3827
       165.     1.5074     4.8957
       165.     1.5109     2.0754
       165.     1.5132     1.3063
       165.     1.5144     2.0756
       165.     1.5156     2.8448
       165.     1.5191     2.5886
       165.     1.5214     2.0759
       165.     1.5238     3.8709
       165.     1.5249     1.3068
       165.     1.5296    0.79422
       165.     1.5308     5.4097
       165.     1.5366    0.79455
       165.     1.5401     3.8716
       165.     1.5413     2.8461
       165.     1.5437     1.5641
       165.     1.5472     4.1284
       165.      1.553    0.79532
       165.     1.5565     1.5647
       165.     1.5589     2.3341
       165.     1.5647     3.8728
       165.     1.5741     5.4117
       165.     1.5776     1.8221
       165.     1.5799     2.8479
       165.     1.5858    0.79687
       165.     1.5881     5.4124
       165.     1.5916    0.79715
       165.     1.5952    0.79731
       165.     1.5987     4.3872
       165.      1.601     4.1309
       165.      1.608     7.9774
       165.     1.6092     4.9005
       165.     1.6127     1.8238
       165.     1.6151     2.8495
       165.     1.6174     2.5932
       165.     1.6186     5.4138
       165.     1.6197     4.3882
       165.     1.6221     6.9524
       165.     1.6256     6.1834
       165.     1.6279     6.1835
       165.     1.6279     3.1066
       165.     1.6303     3.8759
       165.     1.6314     4.9016
       165.     1.6338    0.28631
       165.      1.635     8.2351
       165.     1.6396     11.569
       165.     1.6408     12.594
       165.     1.6432     3.8765
       165.     1.6467    0.54333
       165.     1.6467     3.3639
       165.      1.649    0.28703
       165.     1.6525     4.9026
       165.     1.6537     4.6462
       165.     1.6584     2.3388
       165.     1.6607     1.5696
       165.     1.6654     3.8776
       165.     1.6677      2.852
       165.     1.6701     3.1085
       165.     1.6736     1.3138
       165.     1.6771     4.1345
       165.     1.6794     1.3141
       165.     1.6818     1.5706
       165.     1.6841     1.3143
       165.     1.6876     3.8786
       165.     1.6911     1.5711
       165.     1.6923      3.366
       165.     1.6947     2.3405
       165.      1.697     7.2124
       165.     1.6993     2.3407
       165.     1.6993     1.5715
       165.     1.7017     2.8536
       165.     1.7017      1.828
       165.     1.7052     4.9051
       165.     1.7064     5.9308
       165.     1.7087     5.4181
       165.      1.711     4.1361
       165.     1.7122     3.3669
       165.     1.7122     7.2131
       165.     1.7146     8.2389
       165.     1.7169    0.54665
       165.     1.7192     18.752
       165.     1.7204     26.957
       165.     1.7204     28.496
       165.     1.7204     27.983
       165.     1.7204      30.29
       165.     1.7216     25.419
       165.     1.7216     29.008
       165.     1.7216     26.188
       165.     1.7239      1.829
       165.     1.7251     10.547
       165.     1.7263      11.06
       165.     1.7286     7.7267
       165.     1.7309      8.496
       165.     1.7321     12.599
       165.     1.7333     12.086
       165.     1.7344     9.7783
       165.     1.7345     6.9577
       165.     1.7345     2.5988
       165.     1.7368    0.54759
       165.     1.7391     3.6246
       165.     1.7391     1.5733
       165.     1.7427     2.3427
       165.     1.7462     1.5737
       165.     1.7485    0.80455
       165.      1.752     1.8304
       165.     1.7532    0.80477
       165.     1.7567     1.8306
       165.     1.7579     2.3435
       165.     1.7602     1.0615
       165.     1.7649     2.0874
       165.     1.7684     3.1132
       165.     1.7696     2.0876
       165.     1.7731    0.29289
       165.     1.7754     3.1135
       165.     1.7789     1.0624
       165.     1.7906    0.55013
       165.      1.793     2.3451
       165.     1.7942       4.14
       165.     1.7953     6.1914
       165.     1.7965     8.7555
       165.        1.8     4.6531
       165.     1.8023      3.884
       165.     1.8024     2.0891
       165.     1.8047     4.6534
       165.     1.8082     2.8587
       165.     1.8129      1.064
       165.     1.8187     1.0643
       165.     1.8234     1.3209
       165.     1.8281     2.8596
       165.     1.8281     1.5775
       165.     1.8304     4.1418
       165.     1.8328     2.6034
       165.     1.8328     6.1932
       165.     1.8351      4.142
       165.     1.8375     2.3472
       165.     1.8375     1.0652
       165.     1.8457    0.55273
       165.     1.8562    0.80964
       165.     1.8632    0.55356
       165.     1.8632     1.8356
       165.     1.8691    0.81024
       165.     1.8796    0.55433
       165.      1.889    0.55477
       165.     1.8925    0.81135
       165.      1.896     0.5551
       165.     1.8995    0.81168
       165.     1.9018     1.8374
       165.     1.9042     2.8632
       165.     1.9065     1.0684
       165.     1.9124     1.0687
       165.     1.9182     2.0946
       165.     1.9206     3.1204
       165.     1.9229     4.1461
       165.     1.9241     5.9411
       165.     1.9253     8.2488
       165.     1.9276     6.7105
       165.     1.9299     4.9157
       165.     1.9311     3.3773
       165.     1.9323     2.3517
       165.      1.937     1.8391
       165.     1.9416     1.0701
       165.     1.9475     1.8396
       165.     1.9545     1.0707
       165.     1.9627     3.1224
       165.     1.9627     1.8403
       165.     1.9674     2.3533
       165.     1.9674     1.0713
       165.     1.9686      3.379
       165.     1.9721       2.61
       165.     1.9756      3.123
       165.     1.9791     3.1231
       165.     1.9803     1.5847
       165.     1.9826     2.3541
       165.     1.9838     1.0721
       165.     1.9873     1.0722
       165.     1.9896    0.55952
       165.     1.9978     1.5856
ENDDATA            757
ENDSUBENT          768
SUBENT        F0918004   20080305   20080710   20080516       F031
BIB                  2          2
REACTION   (11-NA-23(P,A)10-NE-20,PAR,DA)
STATUS     (CURVE) Fig.1,2,3
ENDBIB               2
COMMON               1          3
ERR-DIG
MB/SR
 0.141
ENDCOMMON            3
DATA                 4       1097
E-LVL      ANG        EN         DATA
MEV        ADEG       MEV        MB/SR
         0.       145.     2.7039     5.0655
         0.       145.     2.7066     5.0642
         0.       145.     2.7093     5.0628
         0.       145.     2.7111      4.422
         0.       145.      2.713     5.0611
         0.       145.     2.7148     4.4202
         0.       145.     2.7157     5.0597
         0.       145.     2.7175     4.4188
         0.       145.     2.7193     5.3779
         0.       145.     2.7211     4.7371
         0.       145.     2.7238     5.6957
         0.       145.     2.7247     5.0553
         0.       145.     2.7266     5.3744
         0.       145.     2.7284     4.7335
         0.       145.     2.7302     4.4126
         0.       145.      2.732     4.7317
         0.       145.     2.7338     4.4108
         0.       145.     2.7356     5.3699
         0.       145.     2.7374      4.729
         0.       145.     2.7401     4.4077
         0.       145.     2.7429     4.4064
         0.       145.     2.7456      5.045
         0.       145.     2.7474     4.4041
         0.       145.     2.7483     3.4437
         0.       145.     2.7501     4.0828
         0.       145.      2.751     3.1224
         0.       145.     2.7537      3.761
         0.       145.     2.7564     2.7997
         0.       145.     2.7565     4.0797
         0.       145.     2.7583     3.4388
         0.       145.     2.7601     4.0779
         0.       145.     2.7619      3.437
         0.       145.     2.7637     3.7561
         0.       145.     2.7646     3.1157
         0.       145.     2.7673     4.0744
         0.       145.     2.7691     3.1135
         0.       145.     2.7709     2.7926
         0.       145.     2.7737     3.7512
         0.       145.     2.7773     2.7895
         0.       145.     2.7791     3.1086
         0.       145.     2.7818     3.7472
         0.       145.     2.7836     3.4264
         0.       145.     2.7864      3.105
         0.       145.     2.7882     5.0241
         0.       145.       2.79     11.423
         0.       145.       2.79     6.6232
         0.       145.       2.79     9.1831
         0.       145.     2.7909     14.303
         0.       145.     2.7909     18.142
         0.       145.     2.7919     20.062
         0.       145.     2.7928     21.662
         0.       145.     2.7937     19.101
         0.       145.     2.7938     15.901
         0.       145.     2.7941     12.701
         0.       145.     2.7945     10.141
         0.       145.     2.7954     7.9005
         0.       145.     2.7956     5.6605
         0.       145.     2.7963     4.0601
         0.       145.      2.799     2.7788
         0.       145.     2.8018     2.1375
         0.       145.     2.8027     1.1775
         0.       145.     2.8036     2.7766
         0.       145.     2.8063     2.7752
         0.       145.      2.809     2.4539
         0.       145.     2.8108      1.813
         0.       145.     2.8126     1.1722
         0.       145.     2.8153     1.4908
         0.       145.     2.8172    0.84994
         0.       145.      2.819      1.489
         0.       145.     2.8226     1.1673
         0.       145.     2.8253    0.84593
         0.       145.     2.8307    0.52326
         0.       145.     2.8344     1.1615
         0.       145.     2.8371     1.4801
         0.       145.     2.8398     1.7988
         0.       145.     2.8425     3.7174
         0.       145.     2.8435     5.3169
         0.       145.     2.8444     7.5564
         0.       145.     2.8453      9.156
         0.       145.     2.8462     11.715
         0.       145.      2.848     8.8346
         0.       145.     2.8489     6.5942
         0.       145.     2.8498     4.6738
         0.       145.     2.8507     3.0734
         0.       145.     2.8543     2.1117
         0.       145.      2.857     1.1503
         0.       145.     2.8607    0.82856
         0.       145.     2.8616     1.7881
         0.       145.     2.8643     1.7868
         0.       145.     2.8679      2.105
         0.       145.     2.8706     2.1036
         0.       145.     2.8733     3.7023
         0.       145.     2.8743     3.0618
         0.       145.     2.8761      2.741
         0.       145.      2.877     4.0205
         0.       145.     2.8788     4.6596
         0.       145.     2.8806     4.9787
         0.       145.     2.8815     5.6182
         0.       145.     2.8824     6.5778
         0.       145.     2.8833     7.8573
         0.       145.     2.8842     9.1368
         0.       145.     2.8861     10.096
         0.       145.      2.887     11.055
         0.       145.     2.8906     11.054
         0.       145.     2.8924     9.7728
         0.       145.     2.8942     7.8519
         0.       145.      2.896     5.6111
         0.       145.     2.9014     3.0485
         0.       145.      2.906     1.7663
         0.       145.     2.9114     1.4436
         0.       145.      2.915     1.1218
         0.       145.     2.9186     1.1201
         0.       145.     2.9232     1.1178
         0.       145.     2.9277    0.47562
         0.       145.     2.9341     0.4725
         0.       145.     2.9386    0.47028
         0.       145.     2.9431    0.46805
         0.       145.     2.9458    0.17327
         0.       145.     2.9476    0.78582
         0.       145.     2.9513    0.78403
         0.       145.      2.954     0.4627
         0.       145.     2.9585    0.78047
         0.       145.     2.9621    0.13871
         0.       145.     2.9649    0.45736
         0.       145.     2.9685    0.45558
         0.       145.     2.9712    0.45424
         0.       145.     2.9757    0.13203
         0.       145.     2.9803    0.19019
         0.       145.     2.9848    0.12757
         0.       145.     2.9875    0.76622
         0.       145.      2.993    0.19643
         0.       145.     2.9939    0.76311
         0.       145.     2.9966     1.4018
         0.       145.     2.9984    0.44089
         0.       145.     2.9984     1.7209
         0.       145.     3.0011    0.75954
         0.       145.      3.002    0.20088
         0.       145.     3.0029     1.3986
         0.       145.     3.0066     2.3568
         0.       145.     3.0075    0.75643
         0.       145.     3.0093     2.9955
         0.       145.     3.0129     2.6737
         0.       145.     3.0147     2.0328
         0.       145.     3.0174     2.6715
         0.       145.     3.0202     2.9901
         0.       145.     3.0238     2.9884
         0.       145.     3.0265      2.347
         0.       145.     3.0301     2.0253
         0.       145.     3.0328     2.6639
         0.       145.     3.0365     2.3421
         0.       145.     3.0401     2.3404
         0.       145.     3.0437     2.3386
         0.       145.     3.0455     2.6577
         0.       145.     3.0482     2.9763
         0.       145.      3.051      2.335
         0.       145.     3.0546     2.3332
         0.       145.     3.0582     2.0115
         0.       145.     3.0627     2.0092
         0.       145.     3.0664     1.6875
         0.       145.     3.0691     2.9661
         0.       145.     3.0709     2.0052
         0.       145.     3.0736     2.3239
         0.       145.     3.0763     1.6826
         0.       145.     3.0791     2.0012
         0.       145.     3.0818     3.2799
         0.       145.     3.0836      1.679
         0.       145.     3.0854     2.6381
         0.       145.     3.0881     2.9567
         0.       145.     3.0917      3.595
         0.       145.     3.0945     3.9136
         0.       145.     3.0963     4.2327
         0.       145.     3.0972     4.5523
         0.       145.     3.0999     5.5109
         0.       145.     3.1017       7.11
         0.       145.     3.1026     7.7495
         0.       145.     3.1026     9.9895
         0.       145.     3.1045     8.7086
         0.       145.     3.1063     7.1077
         0.       145.     3.1063     8.0677
         0.       145.     3.1072     6.4673
         0.       145.      3.109     4.5465
         0.       145.     3.1126     3.2647
         0.       145.     3.1162     3.2629
         0.       145.     3.1207     3.5807
         0.       145.     3.1235     2.2994
         0.       145.     3.1235     3.2594
         0.       145.     3.1271     3.2576
         0.       145.     3.1289     3.8967
         0.       145.     3.1316     4.2153
         0.       145.     3.1334     3.5745
         0.       145.     3.1341     3.5727
         0.       145.     3.1348     4.2131
         0.       145.     3.1352     4.8535
         0.       145.     3.1389     5.1718
         0.       145.     3.1407     5.4909
         0.       145.     3.1416     4.8504
         0.       145.     3.1423     6.4491
         0.       145.     3.1434     6.7695
         0.       145.     3.1443      7.409
         0.       145.     3.1461     6.7682
         0.       145.      3.147     5.4877
         0.       145.     3.1488     6.1268
         0.       145.     3.1516     6.4455
         0.       145.     3.1522     5.8037
         0.       145.     3.1534     4.8446
         0.       145.      3.157     4.2029
         0.       145.     3.1597     2.9216
         0.       145.     3.1615     3.5607
         0.       145.     3.1633     3.2398
         0.       145.      3.164      4.198
         0.       145.     3.1651     2.5989
         0.       145.     3.1688     2.9171
         0.       145.     3.1706     2.2762
         0.       145.     3.1724     2.9153
         0.       145.     3.1751      2.594
         0.       145.     3.1769     2.9131
         0.       145.     3.1805     1.3114
         0.       145.     3.1833       1.63
         0.       145.     3.1851     2.2691
         0.       145.     3.1869     2.5882
         0.       145.     3.1887     2.9073
         0.       145.     3.1905    0.66648
         0.       145.     3.1923     1.3056
         0.       145.      3.195     1.9442
         0.       145.     3.2014    0.66114
         0.       145.     3.2023     2.2607
         0.       145.     3.2041    0.97979
         0.       145.     3.2059     2.2589
         0.       145.     3.2086     1.9375
         0.       145.     3.2141     2.5749
         0.       145.     3.2177     1.6131
         0.       145.     3.2195    0.65223
         0.       145.     3.2222     1.6109
         0.       145.     3.2231    0.65045
         0.       145.     3.2277     1.2882
         0.       145.     3.2322      1.286
         0.       145.     3.2349    0.64466
         0.       145.     3.2349     1.6046
         0.       145.     3.2385     1.6029
         0.       145.     3.2413    0.96153
         0.       145.     3.2449    0.95975
         0.       145.     3.2503     1.2771
         0.       145.     3.2539     1.2753
         0.       145.     3.2567    0.63397
         0.       145.     3.2594    0.63264
         0.       145.      3.263     1.5908
         0.       145.     3.2666     1.5891
         0.       145.     3.2693    0.62774
         0.       145.      3.273     1.2659
         0.       145.     3.2775    0.94372
         0.       145.     3.2811    0.94194
         0.       145.     3.2829      1.901
         0.       145.     3.2857    0.93972
         0.       145.     3.2875     2.2188
         0.       145.     3.2902     1.5775
         0.       145.     3.2929     1.2561
         0.       145.     3.2983     1.2535
         0.       145.     3.3029    0.93125
         0.       145.     3.3074    0.92903
         0.       145.      3.311    0.60725
         0.       145.     3.3147    0.92547
         0.       145.     3.3201     0.6028
         0.       145.     3.3246    0.92057
         0.       145.     3.3301     1.2379
         0.       145.     3.3316     1.8756
         0.       145.     3.3328     2.5165
         0.       145.     3.3373     3.1543
         0.       145.     3.3409     1.8725
         0.       145.     3.3437     1.2312
         0.       145.     3.3491    0.90854
         0.       145.     3.3554    0.90543
         0.       145.     3.3591    0.90365
         0.       145.     3.3663    0.90009
         0.       145.     3.3727    0.57697
         0.       145.     3.3808    0.89296
         0.       145.     3.3862    0.89029
         0.       145.     3.3953    0.88584
         0.       145.     3.4026     1.2023
         0.       145.     3.4062    0.88049
         0.       145.     3.4107    0.87827
         0.       145.     3.4143     1.1965
         0.       145.     3.4171     2.4751
         0.       145.     3.4198     1.5138
         0.       145.     3.4198     2.7938
         0.       145.     3.4234      2.472
         0.       145.     3.4243     1.5116
         0.       145.     3.4279     1.8298
         0.       145.     3.4316      1.828
         0.       145.     3.4352     1.5062
         0.       145.     3.4379     1.5049
         0.       145.     3.4415     1.5031
         0.       145.     3.4452     1.8213
         0.       145.     3.4506     1.4987
         0.       145.     3.4551     1.4964
         0.       145.     3.4587     1.1747
         0.       145.     3.4633     1.1724
         0.       145.     3.4669     1.4906
         0.       145.     3.4687    0.84977
         0.       145.     3.4742     1.4871
         0.       145.     3.4787     1.1649
         0.       145.     3.4841     1.1622
         0.       145.     3.4877    0.84042
         0.       145.     3.4905     1.4791
         0.       145.      3.495     1.1568
         0.       165.       1.08     2.3937
         0.       165.     1.0835     4.2236
         0.       165.     1.0859     6.0536
         0.       165.     1.0882     8.6678
         0.       165.     1.0894     11.805
         0.       165.     1.0894     10.236
         0.       165.     1.0906     13.896
         0.       165.     1.0929     12.851
         0.       165.     1.0941     11.021
         0.       165.     1.0941     9.1905
         0.       165.     1.0953     7.3604
         0.       165.     1.0964      4.746
         0.       165.     1.0976     2.3931
         0.       165.     1.1023    0.82428
         0.       165.     1.1128    0.82388
         0.       165.     1.1175      1.608
         0.       165.      1.121     2.6536
         0.       165.     1.1269     3.9605
         0.       165.     1.1339     4.4831
         0.       165.     1.1386     4.2215
         0.       165.     1.1467     2.9141
         0.       165.     1.1538     2.6523
         0.       165.     1.1584     2.9136
         0.       165.     1.1596     20.168
         0.       165.     1.1596     9.7108
         0.       165.     1.1596     13.109
         0.       165.     1.1596     7.0965
         0.       165.     1.1596       18.6
         0.       165.     1.1596     15.985
         0.       165.     1.1596      5.005
         0.       165.      1.162     17.292
         0.       165.      1.162     21.214
         0.       165.      1.162     19.384
         0.       165.      1.162     14.678
         0.       165.     1.1631     11.541
         0.       165.     1.1631      8.665
         0.       165.     1.1631     3.4363
         0.       165.     1.1631     6.0506
         0.       165.     1.1643     1.3448
         0.       165.     1.1725    0.29873
         0.       165.     1.1854    0.29824
         0.       165.     1.1959    0.55927
         0.       165.     1.2076    0.29739
         0.       165.     1.2205     0.2969
         0.       165.      1.238    0.29623
         0.       165.     1.2521    0.55712
         0.       165.      1.265    0.81807
         0.       165.     1.2708     2.3864
         0.       165.     1.2743     4.4778
         0.       165.     1.2767     9.9678
         0.       165.     1.2767     7.3535
         0.       165.     1.2778     11.798
         0.       165.      1.279     13.889
         0.       165.     1.2802     15.458
         0.       165.     1.2825     9.9676
         0.       165.     1.2825     12.843
         0.       165.     1.2849     6.8303
         0.       165.      1.286     5.0002
         0.       165.     1.2884     3.1701
         0.       165.     1.2919     1.6013
         0.       165.     1.2989    0.55534
         0.       165.     1.3094     0.2935
         0.       165.       1.32     0.2931
         0.       165.     1.3317    0.29265
         0.       165.     1.3422    0.29225
         0.       165.     1.3492    0.29198
         0.       165.     1.3562    0.55315
         0.       165.     1.3656    0.55279
         0.       165.      1.375    0.55243
         0.       165.     1.3832    0.55212
         0.       165.     1.3914    0.55181
         0.       165.     1.4054     1.0741
         0.       165.     1.4066      1.597
         0.       165.     1.4101    0.28966
         0.       165.     1.4136     2.1196
         0.       165.     1.4159    0.28943
         0.       165.     1.4194    0.55073
         0.       165.      1.423     0.5506
         0.       165.     1.4288    0.28894
         0.       165.     1.4347    0.28872
         0.       165.     1.4428    0.54984
         0.       165.     1.4487     1.5954
         0.       165.      1.451      2.641
         0.       165.     1.4522     4.7324
         0.       165.     1.4546     6.0395
         0.       165.     1.4581     4.9936
         0.       165.     1.4592     3.9479
         0.       165.     1.4616     2.3792
         0.       165.     1.4663     1.0718
         0.       165.     1.4721    0.54872
         0.       165.     1.4815     0.8098
         0.       165.     1.4873    0.80957
         0.       165.     1.4932     1.0708
         0.       165.     1.4967    0.54778
         0.       165.      1.499     1.8549
         0.       165.     1.5025     1.8547
         0.       165.     1.5049     1.3318
         0.       165.     1.5072    0.54738
         0.       165.     1.5154     0.8085
         0.       165.     1.5178     1.3313
         0.       165.     1.5213     1.3311
         0.       165.     1.5236    0.54675
         0.       165.     1.5283    0.54658
         0.       165.     1.5318    0.54644
         0.       165.     1.5353    0.54631
         0.       165.       1.54    0.80756
         0.       165.     1.5447    0.54595
         0.       165.      1.547     1.3302
         0.       165.     1.5494     2.1144
         0.       165.     1.5529     2.8985
         0.       165.     1.5564    0.80694
         0.       165.     1.5646    0.80662
         0.       165.     1.5681      2.898
         0.       165.     1.5704     0.8064
         0.       165.     1.5763    0.28331
         0.       165.      1.595    0.54403
         0.       165.     1.6102    0.80488
         0.       165.     1.6149     0.8047
         0.       165.     1.6172     1.5889
         0.       165.     1.6196    0.80452
         0.       165.     1.6254     1.3272
         0.       165.     1.6289     1.5885
         0.       165.     1.6313     1.3269
         0.       165.      1.636     0.8039
         0.       165.     1.6406     1.3266
         0.       165.     1.6465     1.5878
         0.       165.     1.6488     1.0648
         0.       165.     1.6547    0.80318
         0.       165.     1.6594      0.803
         0.       165.     1.6664     1.8485
         0.       165.     1.6687     1.0641
         0.       165.     1.6711     1.3254
         0.       165.     1.6758     1.5867
         0.       165.     1.6793    0.80224
         0.       165.     1.6875    0.80193
         0.       165.     1.6933    0.54027
         0.       165.     1.6992    0.54005
         0.       165.      1.705    0.53983
         0.       165.     1.7109     0.5396
         0.       165.     1.7179    0.53934
         0.       165.     1.7237    0.53911
         0.       165.     1.7319    0.27737
         0.       165.     1.7413    0.27701
         0.       165.     1.7448     1.0612
         0.       165.     1.7483    0.27674
         0.       165.     1.7565    0.53786
         0.       165.     1.7612    0.53768
         0.       165.     1.7682    0.27598
         0.       165.     1.7752    0.53715
         0.       165.     1.7846    0.53679
         0.       165.     1.7881      1.321
         0.       165.     1.7916     2.1051
         0.       165.      1.794     3.6736
         0.       165.     1.7951     6.0265
         0.       165.     1.7963      9.948
         0.       165.     1.7963     8.1179
         0.       165.     1.7963     11.517
         0.       165.     1.7963     13.347
         0.       165.     1.7963     15.438
         0.       165.     1.7975     17.268
         0.       165.     1.7987     18.314
         0.       165.      1.801     15.438
         0.       165.     1.8012     13.869
         0.       165.     1.8014     12.039
         0.       165.     1.8022      8.902
         0.       165.     1.8033     6.0262
         0.       165.     1.8045     3.9347
         0.       165.     1.8057     2.1046
         0.       165.     1.8115    0.79719
         0.       165.     1.8197    0.27401
         0.       165.     1.8314      0.535
         0.       165.     1.8373    0.53478
         0.       165.     1.8431    0.53455
         0.       165.     1.8478    0.53438
         0.       165.     1.8525     0.5342
         0.       165.     1.8618    0.53384
         0.       165.     1.8677    0.79505
         0.       165.     1.8794      1.056
         0.       165.     1.8852    0.79438
         0.       165.     1.8899     0.7942
         0.       165.     1.8946    0.53259
         0.       165.     1.9005     0.7938
         0.       165.     1.9051    0.79362
         0.       165.     1.9087    0.53205
         0.       165.     1.9157    0.53178
         0.       165.     1.9215    0.53156
         0.       165.     1.9286    0.53129
         0.       165.     1.9344     0.7925
         0.       165.     1.9403    0.79228
         0.       165.     1.9461     1.0535
         0.       165.     1.9531    0.79179
         0.       165.      1.959    0.79156
         0.       165.     1.9648     1.3142
         0.       165.     1.9683     1.0526
         0.       165.     1.9765     1.0523
         0.       165.     1.9824    0.79067
         0.       165.     1.9894     1.3133
         0.       165.     1.9941     1.0517
         0.       165.     2.0184     4.0527
         0.       165.     2.0282     2.3565
         0.       165.     2.0339     3.1576
         0.       165.     2.0404     3.1288
         0.       165.     2.0599     3.0421
         0.       165.     2.0656     7.9753
         0.       165.     2.0713     4.6444
         0.       165.     2.0745     2.9771
         0.       165.     2.0786     2.9591
         0.       165.       2.09     2.0821
         0.       165.     2.0941     2.0641
         0.       165.     2.1095     2.8219
         0.       165.      2.112     6.1167
         0.       165.     2.1193      3.605
         0.       165.     2.1274     3.5689
         0.       165.     2.1364     3.5292
         0.       165.     2.1535      6.759
         0.       165.      2.156      34.02
         0.       165.     2.1578     72.028
         0.       165.     2.1586     56.322
         0.       165.     2.1593     43.096
         0.       165.       2.16     21.606
         0.       165.     2.1632       3.41
         0.       165.     2.1673     1.7391
         0.       165.     2.1778     1.6922
         0.       165.     2.1844     2.4897
         0.       165.     2.1901     3.2909
         0.       165.     2.1941     2.4464
         0.       165.      2.199     2.4248
         0.       165.     2.2153     2.3526
         0.       165.     2.2185     2.3381
         0.       165.     2.2218     2.3237
         0.       165.     2.2267      2.302
         0.       165.      2.234     3.0959
         0.       165.     2.2413     3.8899
         0.       165.     2.2511     6.3258
         0.       165.     2.2576     8.7762
         0.       165.     2.2641     11.227
         0.       165.      2.269     13.684
         0.       165.     2.2715     16.979
         0.       165.     2.2731     14.492
         0.       165.     2.2755     16.134
         0.       165.     2.2772     18.607
         0.       165.     2.2788     19.426
         0.       165.     2.2788     16.946
         0.       165.     2.2812     18.588
         0.       165.     2.2837      20.23
         0.       165.     2.2837     16.925
         0.       165.     2.2861     19.393
         0.       165.     2.2878     21.039
         0.       165.     2.2902     21.028
         0.       165.     2.2926     17.711
         0.       165.     2.2959     14.391
         0.       165.     2.2975     12.731
         0.       165.     2.2999     11.068
         0.       165.     2.3032     11.053
         0.       165.     2.3056     9.3896
         0.       165.     2.3072     8.5559
         0.       165.     2.3097     8.5451
         0.       165.     2.3145      7.697
         0.       165.     2.3178     6.8562
         0.       165.     2.3194     8.5018
         0.       165.     2.3219     6.8381
         0.       165.     2.3243     6.8273
         0.       165.     2.3267       5.99
         0.       165.     2.3341     5.9575
         0.       165.     2.3373     6.7695
         0.       165.     2.3398     6.7587
         0.       165.      2.343     5.0914
         0.       165.     2.3495     5.8889
         0.       165.     2.3519     5.8781
         0.       165.     2.3544     5.8673
         0.       165.     2.3568     4.2036
         0.       165.     2.3593     4.1928
         0.       165.     2.3617     6.6612
         0.       165.     2.3641     4.1711
         0.       165.     2.3652     4.2506
         0.       165.     2.3666     5.8131
         0.       165.     2.3698     5.7987
         0.       165.     2.3723     5.7879
         0.       165.     2.3747     6.6034
         0.       165.     2.3772      7.419
         0.       165.      2.378     5.7626
         0.       165.     2.3796     6.5818
         0.       165.      2.382     5.7445
         0.       165.     2.3845     9.0394
         0.       165.     2.3861     7.3793
         0.       165.     2.3886     8.1949
         0.       165.      2.391     9.0105
         0.       165.     2.3935     10.652
         0.       165.     2.3959     11.468
         0.       165.     2.3975     13.114
         0.       165.        2.4     13.103
         0.       165.     2.4024     15.571
         0.       165.     2.4041     17.217
         0.       165.     2.4065     17.206
         0.       165.     2.4081     20.504
         0.       165.     2.4098     22.977
         0.       165.     2.4114     23.796
         0.       165.     2.4122     22.139
         0.       165.     2.4139     27.091
         0.       165.     2.4163     26.253
         0.       165.     2.4179     23.767
         0.       165.     2.4187     21.284
         0.       165.     2.4195     17.975
         0.       165.     2.4211     13.009
         0.       165.     2.4227     8.8697
         0.       165.     2.4244     7.2096
         0.       165.     2.4268     6.3724
         0.       165.     2.4284     8.8444
         0.       165.       2.43     6.3579
         0.       165.     2.4317     3.8715
         0.       165.     2.4325     5.5207
         0.       165.     2.4341     3.8606
         0.       165.      2.439     3.0126
         0.       165.     2.4414     3.0017
         0.       165.     2.4439     2.9909
         0.       165.     2.4463     2.9801
         0.       165.     2.4487     2.9692
         0.       165.     2.4512     2.9584
         0.       165.     2.4561     2.9368
         0.       165.     2.4585     2.9259
         0.       165.     2.4731     2.8609
         0.       165.     2.4772     3.6693
         0.       165.     2.4805     4.4813
         0.       165.     2.4837     4.4668
         0.       165.     2.4854      5.286
         0.       165.     2.4894     6.0944
         0.       165.     2.4919       6.91
         0.       165.     2.4951      7.722
         0.       165.     2.4968     10.194
         0.       165.     2.4984      11.84
         0.       165.     2.4987     13.485
         0.       165.     2.4988     8.5339
         0.       165.     2.4989     11.006
         0.       165.        2.5     6.0475
         0.       165.     2.5016     4.3874
         0.       165.     2.5041      5.203
         0.       165.     2.5073     6.8414
         0.       165.      2.513     6.8161
         0.       165.     2.5171     6.7981
         0.       165.     2.5211     5.1272
         0.       165.     2.5252     4.2827
         0.       165.     2.5293     3.4382
         0.       165.     2.5342     3.4166
         0.       165.      2.539     3.3949
         0.       165.     2.5447     4.1961
         0.       165.     2.5488     8.3101
         0.       165.     2.5513     6.6464
         0.       165.     2.5537     4.9828
         0.       165.     2.5569     4.1419
         0.       165.     2.5594     2.4783
         0.       165.     2.5626     2.4638
         0.       165.     2.5651      2.453
         0.       165.     2.5683      3.265
         0.       165.     2.5716     3.2505
         0.       165.     2.5748     4.0625
         0.       165.     2.5781     3.2216
         0.       165.     2.5813     3.2072
         0.       165.     2.5838     4.0228
         0.       165.      2.587     3.1819
         0.       165.     2.5903     3.9939
         0.       165.     2.5935      3.153
         0.       165.     2.5992     3.1278
         0.       165.     2.6041     3.1061
         0.       165.     2.6074     3.0917
         0.       165.     2.6122     2.2436
         0.       165.     2.6196     2.2111
         0.       165.      2.622     2.2003
         0.       165.     2.6244     2.1894
         0.       165.     2.6269     2.1786
         0.       165.     2.6293     2.1678
         0.       165.     2.6366     2.1353
         0.       165.     2.6399     2.1208
         0.       165.     2.6472     7.0468
         0.       165.     2.6505     10.338
         0.       165.     2.6546     11.146
         0.       165.      2.657     9.4828
         0.       165.     2.6603     7.8155
         0.       165.     2.6627     5.3254
         0.       165.     2.6651      6.141
         0.       165.     2.6668     3.6545
         0.       165.       2.67     3.6401
         0.       165.     2.6733     1.9728
         0.       165.     2.6765     1.9584
         0.       165.      2.683     1.9295
         0.       165.     2.6887     1.9042
         0.       165.     2.6912     2.7198
         0.       165.      2.696     2.6981
      1.633       105.      2.276    0.51093
      1.633       105.       2.28    0.17039
      1.633       105.     2.2866    0.49218
      1.633       105.     2.3053    0.79233
      1.633       105.     2.3191     1.1011
      1.633       105.     2.3224     2.4287
      1.633       105.     2.3248     3.4244
      1.633       105.     2.3265     4.7548
      1.633       105.     2.3289     5.0838
      1.633       105.     2.3313     4.4128
      1.633       105.      2.333     3.4099
      1.633       105.     2.3346     4.0737
      1.633       105.     2.3362     4.7375
      1.633       105.     2.3379     5.4013
      1.633       105.     2.3395     4.7317
      1.633       105.     2.3419     4.3941
      1.633       105.     2.3427     3.3926
      1.633       105.     2.3443     3.0564
      1.633       105.     2.3476      2.384
      1.633       105.     2.3484     1.0492
      1.633       105.     2.3541     1.0391
      1.633       105.      2.359     1.0304
      1.633       105.     2.3614     1.0261
      1.633       105.     2.3687     1.0131
      1.633       105.     2.3728     2.0059
      1.633       105.     2.3761     3.3335
      1.633       105.     2.3785     1.6625
      1.633       105.     2.3866    0.31473
      1.633       105.     2.3899    0.30896
      1.633       105.     2.3923    0.30463
      1.633       105.     2.3947    0.30031
      1.633       105.     2.3996     1.2916
      1.633       105.     2.4013     3.6221
      1.633       105.     2.4053     1.2816
      1.633       105.     2.4078    0.94389
      1.633       105.     2.4126     0.6019
      1.633       105.     2.4151    0.59757
      1.633       105.     2.4183    0.92513
      1.633       105.     2.4248    0.91359
      1.633       105.     2.4265      1.244
      1.633       105.     2.4289      1.573
      1.633       105.     2.4354    0.89484
      1.633       105.     2.4395      1.221
      1.633       105.     2.4411    0.88474
      1.633       105.      2.446    0.87608
      1.633       105.     2.4493    0.87031
      1.633       105.     2.4517    0.86598
      1.633       105.     2.4566    0.85733
      1.633       105.     2.4598     1.1849
      1.633       105.     2.4639    0.84434
      1.633       105.     2.4672     1.1719
      1.633       105.     2.4688     1.5024
      1.633       105.     2.4704     1.1661
      1.633       105.     2.4729     1.8285
      1.633       105.     2.4737     1.1604
      1.633       105.     2.4753     1.4908
      1.633       105.     2.4769     1.1546
      1.633       105.     2.4794     1.4836
      1.633       105.     2.4818     1.8126
      1.633       105.     2.4834     2.1431
      1.633       105.     2.4842     1.4749
      1.633       105.     2.4859     1.1387
      1.633       105.     2.4883     1.1344
      1.633       105.     2.4899     1.4648
      1.633       105.     2.4924     1.4605
      1.633       105.      2.494    0.79097
      1.633       105.     2.4964     1.4533
      1.633       105.     2.4989     1.7823
      1.633       105.     2.5013      1.778
      1.633       105.     2.5038     1.7737
      1.633       105.     2.5062     2.1027
      1.633       105.     2.5087      2.765
      1.633       105.     2.5111      3.094
      1.633       105.     2.5135     2.7563
      1.633       105.      2.516     3.4187
      1.633       105.     2.5184     2.7477
      1.633       105.     2.5209     2.7434
      1.633       105.     2.5213     2.4057
      1.633       105.     2.5217     3.4086
      1.633       105.     2.5257      2.068
      1.633       105.     2.5282     2.0637
      1.633       105.     2.5306     1.3927
      1.633       105.      2.533    0.72172
      1.633       105.     2.5355     1.0507
      1.633       105.     2.5404     1.0421
      1.633       105.     2.5453     2.0334
      1.633       105.     2.5485     2.6943
      1.633       105.     2.5509       1.69
      1.633       105.     2.5534    0.68565
      1.633       105.     2.5583      0.677
      1.633       105.     2.5615     1.3379
      1.633       105.      2.564     2.0002
      1.633       105.     2.5672     2.3278
      1.633       105.     2.5697     2.9901
      1.633       105.     2.5713     3.9872
      1.633       105.     2.5727     3.9829
      1.633       105.     2.5731     4.9858
      1.633       105.     2.5746     4.6481
      1.633       105.      2.577     2.9771
      1.633       105.     2.5786     3.6409
      1.633       105.     2.5794     2.6395
      1.633       105.     2.5819     2.3018
      1.633       105.     2.5843     1.9642
      1.633       105.     2.5876     1.9584
      1.633       105.       2.59     1.9541
      1.633       105.     2.5933     2.2816
      1.633       105.     2.5957     2.2773
      1.633       105.     2.5981     1.9396
      1.633       105.     2.6006     1.9353
      1.633       105.      2.603     2.5976
      1.633       105.     2.6063     2.2585
      1.633       105.     2.6095     1.9194
      1.633       105.     2.6112     2.5832
      1.633       105.     2.6144     3.2441
      1.633       105.     2.6168     2.2398
      1.633       105.     2.6193     2.5688
      1.633       105.     2.6217     2.5645
      1.633       105.      2.625     2.2254
      1.633       105.     2.6266     2.2225
      1.633       105.     2.6291     2.8848
      1.633       105.     2.6323      2.879
      1.633       105.     2.6347     3.2081
      1.633       105.     2.6364     2.8718
      1.633       105.     2.6396     3.8661
      1.633       105.     2.6421     3.8617
      1.633       105.     2.6461     3.5212
      1.633       105.     2.6486     3.8502
      1.633       105.      2.651     4.1792
      1.633       105.     2.6535     3.5082
      1.633       105.     2.6559     3.1705
      1.633       105.     2.6583     3.4995
      1.633       105.     2.6608     3.1619
      1.633       105.     2.6632     3.4909
      1.633       105.     2.6657     3.4866
      1.633       105.     2.6681     3.8156
      1.633       105.     2.6705     3.8112
      1.633       105.      2.673     3.4736
      1.633       105.     2.6754     3.1359
      1.633       105.     2.6779     2.7983
      1.633       105.     2.6803     2.1273
      1.633       105.     2.6827     2.1229
      1.633       105.     2.6852     1.7853
      1.633       105.     2.6876     1.7809
      1.633       105.     2.6917     1.7737
      1.633       105.     2.6933     1.7708
      1.633       105.     2.6966     1.7651
      1.633       105.      2.699     1.7607
      1.633       105.     2.9004     8.6556
      1.633       105.     2.9023     7.0922
      1.633       105.     2.9032     7.4043
      1.633       105.      2.905      6.466
      1.633       105.     2.9077     5.2147
      1.633       105.     2.9086     7.0892
      1.633       105.     2.9113     6.1505
      1.633       105.     2.9131     6.4621
      1.633       105.      2.914     5.8367
      1.633       105.     2.9146        4.9
      1.633       105.     2.9158     5.2108
      1.633       105.     2.9169     3.6488
      1.633       105.     2.9176      4.585
      1.633       105.     2.9176     5.5225
      1.633       105.     2.9195     4.8966
      1.633       105.     2.9204     6.1461
      1.633       105.     2.9222     5.2078
      1.633       105.      2.924     4.2695
      1.633       105.     2.9258     5.5186
      1.633       105.     2.9267     4.8932
      1.633       105.     2.9285     4.2673
      1.633       105.     2.9303     5.2039
      1.633       105.     2.9321     4.2656
      1.633       105.      2.934     4.5772
      1.633       105.     2.9358     5.5138
      1.633       105.     2.9394     7.3871
      1.633       105.     2.9412     6.7612
      1.633       105.      2.943     7.0729
      1.633       105.     2.9476     6.1332
      1.633       105.     2.9479     8.0091
      1.633       105.     2.9494     8.9448
      1.633       105.     2.9503     12.069
      1.633       105.     2.9521     12.068
      1.633       105.     2.9539      14.88
      1.633       105.     2.9539      13.63
      1.633       105.     2.9567     15.816
      1.633       105.     2.9567     14.879
      1.633       105.     2.9585     13.628
      1.633       105.     2.9594     9.5651
      1.633       105.     2.9612     7.0643
      1.633       105.      2.962     7.0634
      1.633       105.     2.9631     6.4393
      1.633       105.     2.9648     4.2501
      1.633       105.     2.9657     3.6247
      1.633       105.     2.9665     3.6238
      1.633       105.     2.9676     2.0618
      1.633       105.     2.9693     1.4355
      1.633       105.     2.9711     1.4346
      1.633       105.     2.9729     2.0588
      1.633       105.     2.9747     2.0579
      1.633       105.     2.9765    0.80708
      1.633       105.     2.9802     1.4303
      1.633       105.      2.982     2.0545
      1.633       105.     2.9838     1.4286
      1.633       105.     2.9865     1.1148
      1.633       105.     2.9874     2.0519
      1.633       105.     2.9901     1.1131
      1.633       105.     2.9928     1.7368
      1.633       105.     2.9945     1.4226
      1.633       105.     2.9956      2.673
      1.633       105.     3.0028     2.9821
      1.633       105.     3.0055     2.9808
      1.633       105.     3.0056     3.9182
      1.633       105.     3.0083      3.292
      1.633       105.     3.0092     3.9165
      1.633       105.      3.011     2.0407
      1.633       105.     3.0119     2.6653
      1.633       105.     3.0128     4.8523
      1.633       105.     3.0146     2.9765
      1.633       105.     3.0164     3.9131
      1.633       105.     3.0164     2.6631
      1.633       105.     3.0182     2.9747
      1.633       105.       3.02     3.9114
      1.633       105.      3.021     4.5359
      1.633       105.     3.0237     2.9722
      1.633       105.     3.0237     4.5346
      1.633       105.     3.0264     4.8458
      1.633       105.     3.0291     4.2195
      1.633       105.       3.03     4.8441
      1.633       105.     3.0327     4.2178
      1.633       105.     3.0345     4.5295
      1.633       105.     3.0391     5.4648
      1.633       105.     3.0418      6.401
      1.633       105.     3.0454     6.7117
      1.633       105.     3.0481     4.8355
      1.633       105.       3.05     5.1471
      1.633       105.     3.0518     6.0837
      1.633       105.     3.0527     4.5208
      1.633       105.     3.0536     3.8954
      1.633       105.     3.0554     3.2696
      1.633       105.     3.0581     4.2058
      1.633       105.     3.0608      4.517
      1.633       105.     3.0635     3.8907
      1.633       105.     3.0663     4.2019
      1.633       105.     3.0681     2.6386
      1.633       105.     3.0699     2.9502
      1.633       105.     3.0726     3.2614
      1.633       105.     3.0753     3.2601
      1.633       105.     3.0771     3.8842
      1.633       105.     3.0798      3.258
      1.633       105.     3.0817     3.8821
      1.633       105.     3.0853     3.8804
      1.633       105.     3.0862     2.9425
      1.633       105.     3.0907     2.9403
      1.633       105.     3.0919     4.5036
      1.633       105.     3.0925     4.1894
      1.633       105.     3.0944     5.4385
      1.633       105.     3.0971     5.7497
      1.633       105.     3.0998     5.4359
      1.633       105.     3.1016     6.3726
      1.633       105.     3.1034     7.3092
      1.633       105.     3.1061     7.9329
      1.633       105.      3.108      9.182
      1.633       105.     3.1116     8.8678
      1.633       105.     3.1116     9.8053
      1.633       105.     3.1143     8.8665
      1.633       105.     3.1161     8.2406
      1.633       105.     3.1188     9.4893
      1.633       105.     3.1216     8.5506
      1.633       105.     3.1234     9.1747
      1.633       105.      3.127      10.11
      1.633       105.     3.1288     11.047
      1.633       105.     3.1306     11.359
      1.633       105.     3.1314     10.108
      1.633       105.      3.132     10.106
      1.633       105.     3.1324     12.608
      1.633       105.     3.1343     13.232
      1.633       105.     3.1379      13.23
      1.633       105.     3.1397     14.479
      1.633       105.     3.1406     13.541
      1.633       105.     3.1424     11.041
      1.633       105.     3.1442     11.977
      1.633       105.     3.1459     12.288
      1.633       105.     3.1462      11.35
      1.633       105.     3.1472     10.102
      1.633       105.     3.1515     9.1613
      1.633       105.     3.1533      8.848
      1.633       105.     3.1542     6.3476
      1.633       105.     3.1551     7.5972
      1.633       105.     3.1569     8.8463
      1.633       105.     3.1578     7.9084
      1.633       105.     3.1584     6.9692
      1.633       105.     3.1596     4.1576
      1.633       105.     3.1641     4.7804
      1.633       105.     3.1659     5.4045
      1.633       105.     3.1669     7.2791
      1.633       105.     3.1687     6.3407
      1.633       105.     3.1714      5.402
      1.633       105.     3.1723      4.464
      1.633       105.     3.1759     2.5874
      1.633       105.     3.1795     5.0856
      1.633       105.     3.1813     4.7722
      1.633       105.     3.1832     3.5214
      1.633       105.     3.1868     6.6446
      1.633       105.     3.1886     5.0813
      1.633       105.     3.1913       3.83
      1.633       105.      3.194     3.2037
      1.633       105.     3.2004     5.7007
      1.633       105.     3.2022     4.4498
      1.633       105.     3.2049     6.9485
      1.633       105.     3.2067     6.0102
      1.633       105.     3.2076     5.3847
      1.633       105.     3.2104     5.3834
      1.633       105.     3.2122     6.3201
      1.633       105.      3.214     6.0067
      1.633       105.     3.2158     4.7559
      1.633       105.     3.2176     2.8801
      1.633       105.     3.2194     6.0041
      1.633       105.     3.2221     4.4404
      1.633       105.     3.2267     5.0632
      1.633       105.     3.2312     4.7486
      1.633       105.     3.2357     4.7464
      1.633       105.     3.2366     5.6835
      1.633       105.     3.2384     6.3076
      1.633       105.     3.2403     5.3692
      1.633       105.     3.2421     3.8059
      1.633       105.     3.2466     3.1788
      1.633       105.     3.2511     3.4891
      1.633       105.     3.2557      2.862
      1.633       105.     3.2557     3.7995
      1.633       105.     3.2593     3.7977
      1.633       105.     3.2611     2.5469
      1.633       105.     3.2629     3.4835
      1.633       105.     3.2656     2.2323
      1.633       105.     3.2665     3.1693
      1.633       105.     3.2692      2.543
      1.633       105.      3.272     1.6043
      1.633       105.     3.2738     2.5409
      1.633       105.     3.2747      1.603
      1.633       105.     3.2774     1.9142
      1.633       105.     3.2774     2.8517
      1.633       105.      3.281     2.5374
      1.633       105.     3.2819     3.4745
      1.633       105.     3.2847     5.0357
      1.633       105.     3.2865     6.9098
      1.633       105.     3.2874     8.1593
      1.633       105.     3.2901      9.408
      1.633       105.     3.2919     8.1572
      1.633       105.     3.2946     6.5934
      1.633       105.     3.2973     5.6546
      1.633       105.     3.2992     4.7163
      1.633       105.     3.3019     5.6525
      1.633       105.     3.3028     4.4021
      1.633       105.     3.3046     4.7137
      1.633       105.     3.3064     3.7754
      1.633       105.     3.3091     3.4616
      1.633       105.     3.3127     3.4599
      1.633       105.     3.3164     3.7706
      1.633       105.     3.3209     3.1435
      1.633       105.     3.3245     3.1418
      1.633       105.     3.3281     3.4525
      1.633       105.     3.3309     3.4512
      1.633       105.     3.3336     4.0749
      1.633       105.     3.3345      3.137
      1.633       105.     3.3363     3.7612
      1.633       105.     3.3363     2.5112
      1.633       105.     3.3381     4.6978
      1.633       105.     3.3417     4.6961
      1.633       105.     3.3436     5.9452
      1.633       105.     3.3443     5.9439
      1.633       105.     3.3455     5.3198
      1.633       105.     3.3472     4.6935
      1.633       105.     3.3517     3.7538
      1.633       105.     3.3544     2.8151
      1.633       105.     3.3562     2.1892
      1.633       105.     3.3608     1.5621
      1.633       105.     3.3644     1.5604
      1.633       105.     3.3689     1.8707
      1.633       105.     3.3735     1.5561
      1.633       105.     3.3807     1.8651
      1.633       105.     3.3843     1.5509
      1.633       105.      3.388     2.1742
      1.633       105.     3.3907     1.5479
      1.633       105.     3.3952     1.5457
      1.633       105.     3.3997     1.8561
      1.633       105.     3.4034     2.1668
      1.633       105.     3.4061      2.478
      1.633       105.     3.4097     2.1638
      1.633       105.     3.4124      2.475
      1.633       105.      3.416     2.1608
      1.633       105.     3.4215     2.4707
      1.633       105.      3.426     2.1561
      1.633       105.     3.4278     2.7802
      1.633       105.     3.4315      3.091
      1.633       105.     3.4369     3.4009
      1.633       105.     3.4414     4.0237
      1.633       105.      3.446     4.3341
      1.633       105.     3.4514     5.5815
      1.633       105.     3.4559     5.5793
      1.633       105.     3.4605     5.5772
      1.633       105.     3.4641     5.5754
      1.633       105.     3.4704     4.6349
      1.633       105.      3.475     4.3203
      1.633       105.     3.4795     3.6932
      1.633       105.      3.484     3.3785
      1.633       105.     3.4876     3.0643
      1.633       105.     3.4913     3.0626
      1.633       105.      3.494     3.9988
      1.633       105.     3.4967     3.3725
ENDDATA           1099
ENDSUBENT         1110
ENDENTRY             4
