ENTRY            F0929   20120420   20121218   20121205       F047
SUBENT        F0929001   20120420   20121218   20121205       F047
BIB                 10         23
TITLE      Energy dependence of elastic and inelastic scattering
           of alpha particles by C-12 and the C-12(a,p)N-15
           reaction.
AUTHOR     (R.A.Atneosen,H.L.Wilson,M.B.Sampson,D.W.Miller)
INSTITUTE  (1USAINU)
REFERENCE  (J,PR,135,B660,1964)
FACILITY   (CYCLO,1USAINU)
DETECTOR   Scattered particles were detected with a solid state
           counter mounted in the rotating lid of the chamber or
           with a point-focusing 180 degr. heavy-particle magnetic
           spectrometer attached to the chamber.
METHOD     (EDEG) Control of energy was accomplished either with
           the use of energy degradation foils or by altering the
           cyclotron operating frequency.
SAMPLE     Natural carbon target was used.
ERR-ANALYS (ERR-1)      The uncertainty in the relative target
           thickness over the period during which data set was
           accumulated.
           (ERR-DIG)    Data digitizing error
HISTORY    (20080606C)
           (20120420A) REACTION code in Sub 004 was changed,
           COMMON in Sub 004 was added, ERR-ANALYS in Sub 002-006
           was changed.
ENDBIB              23
COMMON               1          3
ERR-1
PER-CENT
 10.
ENDCOMMON            3
ENDSUBENT           30
SUBENT        F0929002   20120420   20121218   20121205       F047
BIB                  5         36
REACTION   (6-C-12(A,EL)6-C-12,,DA,,RTH)
SAMPLE     Target thickness was measured to be 320 mu-g/cm2.
DETECTOR   (SOLST) Hughes diffused-junction (p-n) solid-state
           detector was used.
ERR-ANALYS (ERR-S,,2.)         Statistical error
           (DATA-ERR1)         Absolute error
           (DATA-ERR2,12.,17.) Relative error
           The mean scattering angle of the solid-state detector
           system was found to have relative and absolute errors
           of + -0.3 degr. and + -0.8 degr., respectively.
           Statistical counting errors were less than 2% and the
           background subtraction errors were negligible except
           at angles less than 40 degr c.m., where oxygen
           contamination and slit scattering combine to increase
           the relative error to 17%
           Complete          Relative       Absolute
           angular           error          error
           distribution
              (MeV)           (MeV)          (MeV)
              22.73           0.06           0.13
              22.48           0.08           0.14
              21.90           0.05           0.12
              21.62           0.04           0.12
              21.20           0.06           0.14
              20.91           0.06           0.13
              20.46           0.08           0.14
              20.16           0.10           0.16
           In addition to the usual uncertainties in the energy
           measurements, the errors include energy fluctuations
           observed with the spectrometer as well as the ability
           to match the energies of the transmission and
           reflection portions of the elastic-inelastic angular
           distribution.
           (EN-ERR)     Absolute incident energy error
           (ANG-ERR-D)  Angle digitizing error
STATUS     (CURVE) Fig.3
ENDBIB              36
COMMON               4          3
ANG-RSL    ERR-SYS    ANG-ERR-D  ERR-DIG
ADEG       PER-CENT   ADEG       PER-CENT
 1.3         20.       0.26       0.006
ENDCOMMON            3
DATA                 4        477
EN         EN-ERR     ANG-CM     DATA
MEV        MEV        ADEG       NO-DIM
      20.16       0.16     15.528    0.88313
      20.16       0.16     18.906    0.88297
      20.16       0.16     22.273    0.61396
      20.16       0.16     25.634    0.34332
      20.16       0.16     28.984    0.12598
      20.16       0.16      33.04    0.13944
      20.16       0.16     36.103     0.3191
      20.16       0.16     38.816    0.47229
      20.16       0.16     41.855     0.4654
      20.16       0.16     45.558     0.2966
      20.16       0.16     48.905 9.8310E-02
      20.16       0.16     52.279 8.7508E-02
      20.16       0.16     55.006    0.21535
      20.16       0.16     58.409    0.52996
      20.16       0.16     60.787    0.88106
      20.16       0.16     63.835     1.1442
      20.16       0.16     67.213     1.1777
      20.16       0.16     70.249     1.0183
      20.16       0.16     73.285    0.90645
      20.16       0.16     76.661    0.84279
      20.16       0.16     79.369     1.0478
      20.16       0.16     82.082     1.5285
      20.16       0.16     84.793     2.1346
      20.16       0.16     87.162     2.5408
      20.16       0.16     90.203     2.6153
      20.16       0.16     93.239     2.2944
      20.16       0.16     95.592     1.5275
      20.16       0.16     98.611    0.72801
      20.16       0.16     100.93    0.14726
      20.16       0.16     103.99    0.34694
      20.16       0.16      106.4     1.4196
      20.16       0.16     109.12      3.202
      20.16       0.16     112.17     4.7392
      20.16       0.16     114.55     7.1172
      20.16       0.16     117.59     8.4713
      20.16       0.16     120.97     8.2272
      20.16       0.16     123.33     7.4308
      20.16       0.16     126.02     5.2427
      20.16       0.16     128.71     3.1527
      20.16       0.16      131.4     2.1606
      20.16       0.16      134.1     1.7373
      20.16       0.16     136.48     2.6472
      20.16       0.16     139.19     4.0336
      20.16       0.16     141.57     6.0576
      20.16       0.16     143.94     7.4229
      20.16       0.16      146.3     7.5306
      20.16       0.16       149.      6.901
      20.16       0.16     150.68     5.1605
      20.16       0.16     153.03     3.1948
      20.16       0.16     155.03     1.3956
      20.16       0.16     156.37    0.82721
      20.16       0.16     157.72      0.705
      20.16       0.16     159.41    0.79181
      20.16       0.16     161.81     3.1019
      20.16       0.16     163.52     6.2291
      20.16       0.16     165.57     12.328
      20.16       0.16      167.6     19.339
      20.16       0.16     169.98     26.619
      20.16       0.16     171.67     33.097
      20.46       0.14     15.471    0.75805
      20.46       0.14     18.848    0.76916
      20.46       0.14     21.886    0.46184
      20.46       0.14     25.259    0.12441
      20.46       0.14     28.973 8.3939E-02
      20.46       0.14     32.018    0.39918
      20.46       0.14     35.398    0.78037
      20.46       0.14     39.114    0.98527
      20.46       0.14     42.491    0.74695
      20.46       0.14      45.19    0.35522
      20.46       0.14     48.901    0.10752
      20.46       0.14     51.607      0.345
      20.46       0.14     54.314     1.1565
      20.46       0.14     57.356     2.2608
      20.46       0.14     60.059     2.9388
      20.46       0.14     64.113     3.3998
      20.46       0.14     67.152     2.8962
      20.46       0.14     70.191     2.2606
      20.46       0.14     72.892     1.5252
      20.46       0.14      75.93    0.95672
      20.46       0.14     78.632     0.9567
      20.46       0.14     81.673     1.3772
      20.46       0.14     84.376     1.9256
      20.46       0.14     87.417     2.5398
      20.46       0.14     90.795     2.5397
      20.46       0.14     92.821     2.2602
      20.46       0.14     95.859     1.5931
      20.46       0.14     98.559    0.83898
      20.46       0.14     100.92    0.30249
      20.46       0.14      102.6    0.10906
      20.46       0.14     106.32    0.38751
      20.46       0.14     108.69     1.3769
      20.46       0.14     110.72     2.2599
      20.46       0.14     113.09     3.6555
      20.46       0.14     115.45     4.6832
      20.46       0.14     118.16      5.578
      20.46       0.14     120.52     5.9127
      20.46       0.14     122.21     5.9995
      20.46       0.14     124.91     5.4175
      20.46       0.14     128.29     4.5482
      20.46       0.14     130.99     3.9314
      20.46       0.14     133.69      3.448
      20.46       0.14     136.39     3.3005
      20.46       0.14     138.42     3.3004
      20.46       0.14     140.78     3.7629
      20.46       0.14     143.82     3.7084
      20.46       0.14     147.88     3.3002
      20.46       0.14     150.58     2.8113
      20.46       0.14     152.27     2.1314
      20.46       0.14     154.63     1.5243
      20.46       0.14     156.32     1.2073
      20.46       0.14     159.36     1.2797
      20.46       0.14     160.71       2.07
      20.46       0.14     162.74     3.0236
      20.46       0.14     164.76     4.2275
      20.46       0.14     167.13     6.3576
      20.46       0.14     169.16     7.9109
      20.46       0.14     170.85     10.901
      20.91       0.13     14.907    0.86395
      20.91       0.13     18.959    0.81492
      20.91       0.13     21.649    0.41681
      20.91       0.13     25.668 5.9994E-02
      20.91       0.13     28.392    0.21007
      20.91       0.13     31.457    0.87616
      20.91       0.13     35.183     1.5693
      20.91       0.13     37.887     1.7631
      20.91       0.13     41.259     1.2982
      20.91       0.13     44.955    0.44797
      20.91       0.13     48.306    0.10131
      20.91       0.13     50.706    0.73512
      20.91       0.13     54.104     2.3931
      20.91       0.13     57.156     4.6103
      20.91       0.13     59.863     5.9926
      20.91       0.13     62.904     6.6356
      20.91       0.13     66.279     5.5703
      20.91       0.13     69.312     3.9835
      20.91       0.13     73.016     2.0673
      20.91       0.13     74.691    0.95485
      20.91       0.13     77.721    0.54877
      20.91       0.13     78.737    0.64416
      20.91       0.13     81.451      1.241
      20.91       0.13       84.5     2.1276
      20.91       0.13     86.869     2.6861
      20.91       0.13     89.573     2.9744
      20.91       0.13     92.611     2.7251
      20.91       0.13     95.307     2.0064
      20.91       0.13     97.662     1.1873
      20.91       0.13     100.69    0.52489
      20.91       0.13     103.03     0.1865
      20.91       0.13     106.07    0.18921
      20.91       0.13     108.12    0.46026
      20.91       0.13     110.83    0.86122
      20.91       0.13     113.54     1.4341
      20.91       0.13     115.23     1.9475
      20.91       0.13     117.27     2.6446
      20.91       0.13     120.31     3.1497
      20.91       0.13     122.34     3.6971
      20.91       0.13      124.7     3.9187
      20.91       0.13     127.07     4.0935
      20.91       0.13     129.43     3.6428
      20.91       0.13     131.46     3.2893
      20.91       0.13     133.14     2.5302
      20.91       0.13      135.5      1.732
      20.91       0.13     138.19     0.8989
      20.91       0.13     141.21    0.42745
      20.91       0.13     142.89    0.22184
      20.91       0.13     145.26    0.29259
      20.91       0.13     148.31    0.61519
      20.91       0.13     150.35    0.99503
      20.91       0.13     152.04     1.2563
      20.91       0.13     154.41      1.586
      20.91       0.13     156.78     1.9448
      20.91       0.13     158.81     2.2828
      20.91       0.13      160.5     3.2386
      20.91       0.13     162.54     4.7996
      20.91       0.13     164.57     6.1486
      20.91       0.13      166.6     8.3494
      20.91       0.13     168.29     9.1119
      20.91       0.13     170.66     12.018
       21.2       0.14     14.464     1.0675
       21.2       0.14     18.177    0.54718
       21.2       0.14     20.879    0.40331
       21.2       0.14     24.928    0.10597
       21.2       0.14     27.972    0.44646
       21.2       0.14     30.677     1.3467
       21.2       0.14     33.718     2.3052
       21.2       0.14     37.096     2.5893
       21.2       0.14     40.472     1.9084
       21.2       0.14     43.848    0.77536
       21.2       0.14      47.56    0.20671
       21.2       0.14     50.266     1.0218
       21.2       0.14     52.971      3.173
       21.2       0.14     55.674     5.6732
       21.2       0.14      59.39     8.1574
       21.2       0.14     62.768     8.9002
       21.2       0.14      65.47     7.6967
       21.2       0.14     68.509     5.1244
       21.2       0.14     71.209     2.8246
       21.2       0.14     74.247     1.0518
       21.2       0.14      77.96    0.49414
       21.2       0.14     80.326     1.0828
       21.2       0.14      81.34     1.3661
       21.2       0.14     84.381     2.2714
       21.2       0.14     86.746     2.9077
       21.2       0.14     89.786     2.7836
       21.2       0.14      92.15     2.2713
       21.2       0.14     95.188     1.4689
       21.2       0.14     97.551    0.84576
       21.2       0.14     100.93    0.33378
       21.2       0.14     103.63    0.22548
       21.2       0.14     105.99    0.22877
       21.2       0.14     108.69     0.3436
       21.2       0.14     110.72    0.54695
       21.2       0.14     112.07    0.93623
       21.2       0.14     114.78     1.5121
       21.2       0.14     117.48     2.4069
       21.2       0.14     119.17     3.3618
       21.2       0.14     121.54     4.1803
       21.2       0.14     124.24     4.6954
       21.2       0.14     127.28     4.8338
       21.2       0.14     129.64     4.0019
       21.2       0.14     132.34     2.9928
       21.2       0.14     135.04     1.7231
       21.2       0.14     138.08    0.79787
       21.2       0.14     140.11    0.38589
       21.2       0.14     142.47    0.47984
       21.2       0.14     144.84    0.79784
       21.2       0.14      147.2     1.2886
       21.2       0.14     149.23     1.6023
       21.2       0.14     151.59     1.6495
       21.2       0.14      154.3     1.4685
       21.2       0.14     156.66     1.6981
       21.2       0.14     158.35     2.1115
       21.2       0.14      159.7     4.1795
       21.2       0.14     161.39       7.92
       21.2       0.14     164.43     12.069
       21.2       0.14     165.79     16.614
       21.2       0.14     168.15     25.319
       21.2       0.14     170.18     31.483
      21.62       0.12     14.308    0.95651
      21.62       0.12     18.021    0.83813
      21.62       0.12     21.383    0.34255
      21.62       0.12     25.092    0.23738
      21.62       0.12     28.153    0.79012
      21.62       0.12     30.868     1.7442
      21.62       0.12     33.914     2.5165
      21.62       0.12     37.291     2.3383
      21.62       0.12     41.336     1.4623
      21.62       0.12     44.356    0.47963
      21.62       0.12     47.389    0.32277
      21.62       0.12     50.456     1.5731
      21.62       0.12     53.512     3.9049
      21.62       0.12     56.898     6.4286
      21.62       0.12     59.941     8.1281
      21.62       0.12     62.981     8.0089
      21.62       0.12     66.355     6.4267
      21.62       0.12     69.387     4.1387
      21.62       0.12     72.415      2.017
      21.62       0.12     75.434    0.60587
      21.62       0.12     78.123    0.28675
      21.62       0.12     81.178    0.69123
      21.62       0.12      83.89     1.2427
      21.62       0.12     86.596     1.5712
      21.62       0.12     89.635     1.4816
      21.62       0.12     91.996     1.2243
      21.62       0.12     94.352    0.77696
      21.62       0.12     97.383    0.44495
      21.62       0.12     100.08    0.28655
      21.62       0.12     102.78    0.23679
      21.62       0.12     105.48    0.29502
      21.62       0.12     107.86     0.5304
      21.62       0.12     110.23     1.0112
      21.62       0.12      112.6     1.6166
      21.62       0.12     115.31     2.4374
      21.62       0.12     117.01     3.3653
      21.62       0.12     119.71     4.3816
      21.62       0.12     122.42     5.0733
      21.62       0.12     125.12     4.7838
      21.62       0.12     127.82     4.1309
      21.62       0.12     129.84     3.0357
      21.62       0.12     132.87     1.8435
      21.62       0.12     135.23     1.0714
      21.62       0.12     137.93     1.2405
      21.62       0.12     139.97     1.9834
      21.62       0.12     142.34     3.0345
      21.62       0.12     145.04     4.0093
      21.62       0.12     147.07     4.3778
      21.62       0.12     149.43     3.8361
      21.62       0.12     151.79      2.544
      21.62       0.12     153.81     1.3943
      21.62       0.12     155.83     1.2767
      21.62       0.12     158.55     3.2161
      21.62       0.12     160.25      7.529
      21.62       0.12     162.63     16.621
      21.62       0.12     164.67     31.225
      21.62       0.12     166.36     47.079
      21.62       0.12     168.06     57.807
      21.62       0.12     170.43     82.188
       21.9       0.12     14.433     1.0509
       21.9       0.12     18.134    0.85483
       21.9       0.12     21.801    0.42792
       21.9       0.12      24.45    0.19905
       21.9       0.12     27.898    0.54908
       21.9       0.12     31.001     1.3665
       21.9       0.12     34.409     2.1237
       21.9       0.12     38.127     2.2185
       21.9       0.12     40.803     1.5128
       21.9       0.12     44.446      0.532
       21.9       0.12     47.756    0.20138
       21.9       0.12     50.572     1.0459
       21.9       0.12     53.347     2.9715
       21.9       0.12     57.099     5.0441
       21.9       0.12     60.495     6.5706
       21.9       0.12     63.537     6.7641
       21.9       0.12     66.225     5.5846
       21.9       0.12     68.559     3.5906
       21.9       0.12     72.221       1.67
       21.9       0.12     75.861    0.56192
       21.9       0.12      77.84    0.28135
       21.9       0.12     80.933    0.60441
       21.9       0.12     83.671     1.0261
       21.9       0.12     86.386     1.2238
       21.9       0.12     89.751     1.0253
       21.9       0.12     91.758    0.77506
       21.9       0.12     94.765    0.48384
       21.9       0.12      98.48    0.47654
       21.9       0.12     100.52    0.57683
       21.9       0.12     102.56    0.69822
       21.9       0.12     104.93    0.79683
       21.9       0.12     107.97    0.82029
       21.9       0.12     111.03    0.96401
       21.9       0.12     113.42     1.4984
       21.9       0.12     115.48     2.3987
       21.9       0.12     117.53     3.5155
       21.9       0.12     119.91     4.2551
       21.9       0.12     122.28      4.928
       21.9       0.12     125.33     5.1484
       21.9       0.12     128.36     4.5749
       21.9       0.12     130.37     3.4078
       21.9       0.12     133.05     2.5382
       21.9       0.12     135.75      2.731
       21.9       0.12     138.47     3.5058
       21.9       0.12     140.53     5.6123
       21.9       0.12     142.58     7.6419
       21.9       0.12     144.95     8.5937
       21.9       0.12     147.65     7.9814
       21.9       0.12     150.33     6.0329
       21.9       0.12     152.32      3.398
       21.9       0.12     153.93     1.0318
       21.9       0.12     156.62    0.89028
       21.9       0.12     158.76     4.6927
       21.9       0.12     160.52     14.143
       21.9       0.12     163.28     30.834
       21.9       0.12     164.67     54.719
       21.9       0.12     166.72     80.195
       21.9       0.12     168.44     114.13
       21.9       0.12     170.14     146.53
      22.48       0.14      16.87    0.94108
      22.48       0.14     18.544    0.75509
      22.48       0.14     21.189    0.31312
      22.48       0.14     24.878    0.20757
      22.48       0.14     28.343    0.79976
      22.48       0.14     31.097     1.7911
      22.48       0.14     34.497     2.5086
      22.48       0.14     37.871     2.3996
      22.48       0.14     41.556     1.5001
      22.48       0.14     45.183    0.38336
      22.48       0.14     47.792 9.1049E-02
      22.48       0.14     51.326     1.0233
      22.48       0.14     53.754     2.7329
      22.48       0.14     56.824     4.3044
      22.48       0.14     60.212     5.0558
      22.48       0.14     62.905     4.4292
      22.48       0.14     65.908      2.499
      22.48       0.14     69.586     1.4098
      22.48       0.14     72.534    0.33978
      22.48       0.14     75.871    0.18345
      22.48       0.14     78.664    0.73866
      22.48       0.14     81.058     1.1807
      22.48       0.14     84.106     1.3272
      22.48       0.14     87.125    0.96082
      22.48       0.14       90.1     0.3543
      22.48       0.14     93.067    0.11619
      22.48       0.14     95.524    0.48177
      22.48       0.14     97.621     1.4258
      22.48       0.14     100.36     2.4523
      22.48       0.14     102.74     3.0548
      22.48       0.14     105.45     3.3839
      22.48       0.14     108.47     2.5979
      22.48       0.14     110.78     1.1424
      22.48       0.14     112.78    0.80324
      22.48       0.14     115.47    0.62579
      22.48       0.14     117.56     1.7211
      22.48       0.14      119.3     3.9696
      22.48       0.14      121.7     6.6305
      22.48       0.14     123.75     9.2882
      22.48       0.14     126.47      11.57
      22.48       0.14     129.17     12.086
      22.48       0.14      131.2     12.083
      22.48       0.14     132.88     10.902
      22.48       0.14     135.23     8.8759
      22.48       0.14     137.92     7.0172
      22.48       0.14     139.25     5.2325
      22.48       0.14     141.59     3.6254
      22.48       0.14     143.59      2.512
      22.48       0.14      145.6     1.8729
      22.48       0.14     147.28     1.5936
      22.48       0.14     149.64     1.4377
      22.48       0.14     151.32     1.3163
      22.48       0.14     153.34      1.241
      22.48       0.14      154.7     1.4159
      22.48       0.14     156.41     1.9835
      22.48       0.14     158.14     3.4119
      22.48       0.14     159.52     5.6996
      22.48       0.14     161.59     10.706
      22.48       0.14      163.3     16.377
      22.48       0.14     165.69      22.94
      22.48       0.14     166.72     31.671
      22.48       0.14     168.77     41.838
      22.48       0.14     170.13     52.125
      22.73       0.13     16.482    0.82048
      22.73       0.13     17.826    0.71983
      22.73       0.13     21.489    0.27584
      22.73       0.13     24.858    0.23846
      22.73       0.13     27.294    0.86861
      22.73       0.13     30.716     1.9588
      22.73       0.13     34.451     2.8155
      22.73       0.13     37.486     2.5425
      22.73       0.13     40.837     1.5736
      22.73       0.13     44.156    0.54473
      22.73       0.13     47.086 7.4420E-02
      22.73       0.13     50.591    0.74938
      22.73       0.13     53.696     2.4656
      22.73       0.13     56.426     4.0985
      22.73       0.13     59.139     4.9491
      22.73       0.13     62.516      4.876
      22.73       0.13     66.551     3.5406
      22.73       0.13     69.223     2.0679
      22.73       0.13     71.876    0.83991
      22.73       0.13     75.227    0.51985
      22.73       0.13     77.953    0.80359
      22.73       0.13     80.672       1.09
      22.73       0.13     83.712     1.0896
      22.73       0.13     86.719    0.60922
      22.73       0.13     89.674    0.13058
      22.73       0.13     92.034    0.11965
      22.73       0.13     94.504    0.81398
      22.73       0.13     96.588     2.3162
      22.73       0.13     99.654     3.6859
      22.73       0.13     102.03     4.7173
      22.73       0.13     105.41     4.7157
      22.73       0.13     107.43     4.0772
      22.73       0.13     109.78     3.3261
      22.73       0.13     114.15     2.2788
      22.73       0.13     117.56      3.733
      22.73       0.13     119.95     6.0278
      22.73       0.13     122.33     9.3181
      22.73       0.13     124.72     13.202
      22.73       0.13     127.09     15.486
      22.73       0.13     130.13     15.258
      22.73       0.13     132.83     13.981
      22.73       0.13     134.84     10.919
      22.73       0.13     137.86     6.9576
      22.73       0.13     140.18     3.4635
      22.73       0.13     142.49      1.199
      22.73       0.13     145.11    0.28041
      22.73       0.13     147.83     0.3859
      22.73       0.13     149.58     1.1639
      22.73       0.13     151.97     1.9918
      22.73       0.13     154.02     3.0347
      22.73       0.13      156.4     3.7727
      22.73       0.13     158.11     5.5032
      22.73       0.13     160.14     6.6457
      22.73       0.13     162.19     8.7564
      22.73       0.13     164.57     11.877
      22.73       0.13     166.61     16.586
      22.73       0.13     168.65     19.456
      22.73       0.13     170.35     24.189
ENDDATA            479
ENDSUBENT          524
SUBENT        F0929003   20120420   20121218   20121205       F047
BIB                  5         33
REACTION   (6-C-12(A,INL)6-C-12,PAR,DA)
SAMPLE     Target thickness was measured to be 320 mu-g/cm2.
DETECTOR   (SOLST) Hughes diffused-junction (p-n) solid-state
           detector was used.
ERR-ANALYS (ERR-S,,2.)         Statistical error
           (DATA-ERR1)         Absolute error
           (DATA-ERR2,12.,17.) Relative error
           The mean scattering angle of the solid-state detector
           system was found to have relative and absolute errors
           of + -0.3 degr. and + -0.8 degr., respectively.
           Statistical counting errors were less than 2% and the
           background subtraction errors were negligible.
           Complete          Relative       Absolute
           angular           error          error
           distribution
              (MeV)           (MeV)          (MeV)
              22.73           0.06           0.13
              22.48           0.08           0.14
              21.90           0.05           0.12
              21.62           0.04           0.12
              21.20           0.06           0.14
              20.91           0.06           0.13
              20.46           0.08           0.14
              20.16           0.10           0.16
           In addition to the usual uncertainties in the energy
           measurements, the errors include energy fluctuations
           observed with the spectrometer as well as the ability
           to match the energies of the transmission and
           reflection portions of the elastic-inelastic angular
           distribution.
           (EN-ERR)     Absolute incident energy error
           (ANG-ERR-D)  Angle digitizing error
STATUS     (CURVE) Fig.4
ENDBIB              33
COMMON               5          3
ANG-RSL    E-LVL      DATA-ERR1  ANG-ERR-D  ERR-DIG
ADEG       MEV        PER-CENT   ADEG       PER-CENT
 1.3        4.43       20.        0.15       0.008
ENDCOMMON            3
DATA                 4        456
EN         EN-ERR     ANG-CM     DATA-CM
MEV        MEV        ADEG       MB/SR
      20.16       0.16     22.501     55.051
      20.16       0.16     26.248     48.264
      20.16       0.16     29.654     42.937
      20.16       0.16     33.061     37.098
      20.16       0.16     36.467     36.029
      20.16       0.16     39.874      36.56
      20.16       0.16     42.599     37.099
      20.16       0.16     46.686     36.561
      20.16       0.16     50.433     32.526
      20.16       0.16     53.158     28.936
      20.16       0.16     56.906     24.638
      20.16       0.16     60.653       21.6
      20.16       0.16     63.378       21.6
      20.16       0.16     66.443     23.581
      20.16       0.16      69.85     26.122
      20.16       0.16     72.915     29.363
      20.16       0.16      75.64     31.132
      20.16       0.16     78.365     33.007
      20.16       0.16     82.453     33.007
      20.16       0.16     85.178     33.007
      20.16       0.16     87.903     33.008
      20.16       0.16     90.968     31.133
      20.16       0.16     93.353     28.519
      20.16       0.16     96.419     25.745
      20.16       0.16     99.825     20.675
      20.16       0.16     102.55     17.604
      20.16       0.16     104.94     12.577
      20.16       0.16     106.98     8.6002
      20.16       0.16     110.73     7.6511
      20.16       0.16     112.77     7.4306
      20.16       0.16     116.18     8.7271
      20.16       0.16     119.24     11.189
      20.16       0.16     121.63     15.211
      20.16       0.16     124.69     17.605
      20.16       0.16     127.08     20.677
      20.16       0.16      129.8     21.604
      20.16       0.16     132.53     22.573
      20.16       0.16     134.91     24.642
      20.16       0.16     137.29     27.298
      20.16       0.16     140.02     28.522
      20.16       0.16     142.74     33.498
      20.16       0.16     144.79     39.343
      20.16       0.16     146.83      42.95
      20.16       0.16     148.88     48.279
      20.16       0.16     150.92     49.712
      20.16       0.16      153.3      54.27
      20.16       0.16     155.69     56.704
      20.16       0.16     158.41     57.539
      20.16       0.16     159.78     57.539
      20.16       0.16     161.14     52.707
      20.16       0.16     163.52      47.58
      20.16       0.16     165.23     43.585
      20.16       0.16     167.27     36.041
      20.16       0.16     168.63     30.242
      20.16       0.16     171.02     24.287
      20.16       0.16     172.72     19.792
      20.46       0.14     22.928     26.052
      20.46       0.14     26.674     23.166
      20.46       0.14     30.419     20.599
      20.46       0.14     33.825     20.297
      20.46       0.14     36.893     24.201
      20.46       0.14     40.642     27.211
      20.46       0.14      43.71     31.972
      20.46       0.14     47.457     31.969
      20.46       0.14     51.203     30.145
      20.46       0.14     54.266     25.651
      20.46       0.14      57.33     21.828
      20.46       0.14     60.395     20.582
      20.46       0.14       63.8     19.695
      20.46       0.14     67.208     21.191
      20.46       0.14     69.934     22.802
      20.46       0.14        73.     24.535
      20.46       0.14     76.067     25.636
      20.46       0.14     79.133     26.013
      20.46       0.14     82.539     25.632
      20.46       0.14     85.264     26.009
      20.46       0.14      88.33     27.176
      20.46       0.14     91.056     27.983
      20.46       0.14     94.462     27.981
      20.46       0.14     97.187     26.774
      20.46       0.14     99.569      23.12
      20.46       0.14     102.29     19.106
      20.46       0.14     105.01     14.248
      20.46       0.14     107.39     9.7299
      20.46       0.14     110.11     7.2559
      20.46       0.14     113.17     6.0844
      20.46       0.14     115.56     7.4707
      20.46       0.14     117.95     10.315
      20.46       0.14       120.     13.629
      20.46       0.14     122.73     16.981
      20.46       0.14     124.77     20.248
      20.46       0.14     126.82     22.436
      20.46       0.14     129.88     22.765
      20.46       0.14     132.27     23.441
      20.46       0.14     134.99     23.786
      20.46       0.14     137.38     23.784
      20.46       0.14     139.77      27.54
      20.46       0.14     142.15     31.424
      20.46       0.14     144.54     37.468
      20.46       0.14     146.58      42.13
      20.46       0.14     148.63     46.682
      20.46       0.14     150.67     50.232
      20.46       0.14     153.06     53.263
      20.46       0.14      155.1      53.26
      20.46       0.14     157.49     49.491
      20.46       0.14     159.19     47.359
      20.46       0.14     160.89     46.667
      20.46       0.14     163.28     41.498
      20.46       0.14     164.98     36.902
      20.46       0.14     167.02     32.815
      20.46       0.14     169.06     27.117
      20.46       0.14      171.1     23.417
      20.46       0.14     172.46     20.824
      20.91       0.13     18.383     21.771
      20.91       0.13      22.13     22.098
      20.91       0.13     25.876     18.195
      20.91       0.13     29.282      14.98
      20.91       0.13     32.688       12.9
      20.91       0.13     36.095     14.758
      20.91       0.13     39.501     19.315
      20.91       0.13     42.567     22.768
      20.91       0.13     46.315      25.28
      20.91       0.13     50.061     24.535
      20.91       0.13     52.786     23.458
      20.91       0.13     56.874     20.505
      20.91       0.13     59.599     19.314
      20.91       0.13     62.664     20.504
      20.91       0.13      65.39     22.096
      20.91       0.13     68.455     23.457
      20.91       0.13     71.862      23.81
      20.91       0.13     75.268     22.428
      20.91       0.13     78.674     20.503
      20.91       0.13     81.399     19.026
      20.91       0.13     84.124     18.744
      20.91       0.13      87.19     20.503
      20.91       0.13     90.596     21.443
      20.91       0.13     92.981     23.809
      20.91       0.13     95.706     24.167
      20.91       0.13     99.112     21.124
      20.91       0.13     101.16     17.134
      20.91       0.13     104.22     13.091
      20.91       0.13      106.6     8.7429
      20.91       0.13     109.33     5.7522
      20.91       0.13     112.39     5.0279
      20.91       0.13     114.44     7.1983
      20.91       0.13     116.82     11.105
      20.91       0.13     119.21     14.754
      20.91       0.13     121.93     17.919
      20.91       0.13     123.98     19.896
      20.91       0.13      126.7     20.196
      20.91       0.13     128.75       20.5
      20.91       0.13     130.79     18.189
      20.91       0.13     133.17     16.878
      20.91       0.13     135.22      15.43
      20.91       0.13     136.92     14.975
      20.91       0.13     139.31     16.138
      20.91       0.13     141.35     19.309
      20.91       0.13     143.73     22.761
      20.91       0.13     145.44      26.83
      20.91       0.13     147.82      29.79
      20.91       0.13     150.55     31.626
      20.91       0.13     152.59     33.575
      20.91       0.13     154.98     33.574
      20.91       0.13     156.34     32.101
      20.91       0.13     158.72     29.789
      20.91       0.13     160.43     27.643
      20.91       0.13     162.81     26.038
      20.91       0.13     164.85     25.651
      20.91       0.13     166.22     25.651
      20.91       0.13     168.26     26.038
      20.91       0.13      170.3     27.232
      20.91       0.13     172.01     29.788
       21.2       0.14     21.914     16.777
       21.2       0.14     25.317     12.884
       21.2       0.14     29.058     8.4194
       21.2       0.14     32.462     7.1644
       21.2       0.14     35.871     8.6685
       21.2       0.14     39.283     13.657
       21.2       0.14     42.695     19.995
       21.2       0.14     45.422     23.152
       21.2       0.14     48.829     23.839
       21.2       0.14     52.234     21.511
       21.2       0.14     55.638     18.849
       21.2       0.14     59.384     17.515
       21.2       0.14     62.111     19.694
       21.2       0.14     65.518      21.19
       21.2       0.14     68.926     23.479
       21.2       0.14     71.312     25.638
       21.2       0.14     75.058     25.262
       21.2       0.14     77.441     22.464
       21.2       0.14     81.186     19.398
       21.2       0.14     83.909     17.249
       21.2       0.14     87.656     16.749
       21.2       0.14     91.403     16.747
       21.2       0.14     93.787     16.502
       21.2       0.14     96.853     17.243
       21.2       0.14     99.237       16.5
       21.2       0.14     101.62     13.048
       21.2       0.14     104.68     9.8738
       21.2       0.14      107.4     7.6944
       21.2       0.14     110.12     6.0846
       21.2       0.14     113.19     5.7375
       21.2       0.14     114.89      7.149
       21.2       0.14      116.6     9.8708
       21.2       0.14     119.33     12.665
       21.2       0.14     121.38     15.324
       21.2       0.14     123.76     18.816
       21.2       0.14     126.49     16.979
       21.2       0.14     128.53     16.247
       21.2       0.14      131.6     15.546
       21.2       0.14     133.64      14.66
       21.2       0.14     136.36     14.445
       21.2       0.14     138.75     16.006
       21.2       0.14     141.48     18.807
       21.2       0.14     143.52     22.098
       21.2       0.14     145.57     25.588
       21.2       0.14     147.95     28.353
       21.2       0.14       150.     29.195
       21.2       0.14     152.73     30.957
       21.2       0.14     154.43     30.505
       21.2       0.14     156.13     31.411
       21.2       0.14     158.17     28.345
       21.2       0.14     160.22     27.931
       21.2       0.14     162.26     29.617
       21.2       0.14     163.97      32.34
       21.2       0.14     166.01     35.834
       21.2       0.14      168.4     40.293
       21.2       0.14     169.76     46.656
       21.2       0.14     171.47     53.236
      21.62       0.12     21.811     16.051
      21.62       0.12     26.239      16.05
      21.62       0.12     29.305     15.583
      21.62       0.12      32.37      16.05
      21.62       0.12     36.118     17.536
      21.62       0.12     39.524     20.627
      21.62       0.12     42.931     24.262
      21.62       0.12     46.338      25.36
      21.62       0.12     50.084     23.556
      21.62       0.12      53.15     20.625
      21.62       0.12     56.215     18.328
      21.62       0.12     59.621     17.794
      21.62       0.12     62.346       18.6
      21.62       0.12     65.753     21.878
      21.62       0.12     68.819     23.553
      21.62       0.12     72.225     22.533
      21.62       0.12     75.291     20.023
      21.62       0.12     78.696     16.284
      21.62       0.12     81.421     12.485
      21.62       0.12     84.486     10.305
      21.62       0.12      86.87     9.7139
      21.62       0.12     89.936     10.458
      21.62       0.12     93.343     11.768
      21.62       0.12     96.068     12.301
      21.62       0.12     98.793     12.121
      21.62       0.12     101.52      10.77
      21.62       0.12      103.9     8.8898
      21.62       0.12     106.63     7.5574
      21.62       0.12     109.35     7.0197
      21.62       0.12     111.74     8.0169
      21.62       0.12     114.12     10.152
      21.62       0.12     116.85     11.767
      21.62       0.12     119.57     14.256
      21.62       0.12     121.28     15.576
      21.62       0.12     123.66     16.042
      21.62       0.12     126.04     16.042
      21.62       0.12     128.09     15.807
      21.62       0.12     131.49     16.041
      21.62       0.12     133.54     17.527
      21.62       0.12     136.26     21.234
      21.62       0.12     138.65     24.976
      21.62       0.12     140.69     28.949
      21.62       0.12     143.42     34.051
      21.62       0.12     145.46     37.204
      21.62       0.12     147.51     39.467
      21.62       0.12     149.55     41.253
      21.62       0.12     152.28      43.12
      21.62       0.12     153.64     41.865
      21.62       0.12     155.34     41.865
      21.62       0.12     157.38      43.76
      21.62       0.12     160.11     46.421
      21.62       0.12     162.15     52.238
      21.62       0.12      164.2     56.239
      21.62       0.12     165.22     68.135
      21.62       0.12     166.92     78.971
      21.62       0.12     169.65     83.772
      21.62       0.12     171.35       103.
       21.9       0.12     22.296     22.601
       21.9       0.12     25.704     25.431
       21.9       0.12      29.11      25.43
       21.9       0.12     32.516     24.688
       21.9       0.12     36.262      22.93
       21.9       0.12     39.328     23.615
       21.9       0.12     42.735      24.32
       21.9       0.12      46.48     21.931
       21.9       0.12     49.544     18.101
       21.9       0.12     52.606     14.083
       21.9       0.12      56.01      11.12
       21.9       0.12     58.733     10.028
       21.9       0.12     62.822     11.283
       21.9       0.12     65.209     13.669
       21.9       0.12     68.617     15.156
       21.9       0.12     72.022     14.286
       21.9       0.12     75.086     11.791
       21.9       0.12     78.487      7.572
       21.9       0.12     81.546     4.5839
       21.9       0.12     83.927     3.4627
       21.9       0.12     86.997      4.862
       21.9       0.12     90.068     7.3498
       21.9       0.12     92.456     10.474
       21.9       0.12     95.183     11.613
       21.9       0.12      98.93      11.96
       21.9       0.12     101.65      9.584
       21.9       0.12     104.03     7.2398
       21.9       0.12     106.07     5.7167
       21.9       0.12     109.14     6.2456
       21.9       0.12     111.87     8.3898
       21.9       0.12     113.92     11.956
       21.9       0.12     116.99     15.593
       21.9       0.12     119.71     18.613
       21.9       0.12     121.42     20.038
       21.9       0.12     124.14     20.037
       21.9       0.12     126.19     18.611
       21.9       0.12     128.57     17.804
       21.9       0.12     131.63     17.031
       21.9       0.12     134.36     18.066
       21.9       0.12     136.75     21.886
       21.9       0.12     138.11     28.546
       21.9       0.12     140.84     36.147
       21.9       0.12     143.23     52.277
       21.9       0.12     145.27     54.641
       21.9       0.12     147.32     57.962
       21.9       0.12     150.04     60.582
       21.9       0.12     152.09     64.264
       21.9       0.12     153.79     64.261
       21.9       0.12     155.84     62.389
       21.9       0.12     157.88     57.948
       21.9       0.12     159.92     60.569
       21.9       0.12     161.97     65.205
       21.9       0.12     164.01     70.195
       21.9       0.12     165.72     77.833
       21.9       0.12     167.42     86.302
       21.9       0.12     169.47     100.02
       21.9       0.12     171.17     110.91
      22.48       0.14     18.274     23.944
      22.48       0.14     21.343     30.626
      22.48       0.14     25.431     31.982
      22.48       0.14     29.177     29.318
      22.48       0.14     32.242     27.665
      22.48       0.14     35.988     26.873
      22.48       0.14     39.394     25.358
      22.48       0.14     42.458     23.246
      22.48       0.14     45.862     20.404
      22.48       0.14     49.264     15.052
      22.48       0.14     52.323     9.1986
      22.48       0.14     55.722     5.4609
      22.48       0.14     59.125     4.3943
      22.48       0.14     62.535     5.7024
      22.48       0.14     65.265     8.0718
      22.48       0.14     68.673     9.3287
      22.48       0.14     72.079     9.1938
      22.48       0.14     74.459     6.7825
      22.48       0.14     77.858     3.9116
      22.48       0.14     80.916     2.3905
      22.48       0.14     83.984     2.6839
      22.48       0.14     87.059     5.0753
      22.48       0.14      89.45     8.1843
      22.48       0.14     92.179     10.776
      22.48       0.14     95.246     11.753
      22.48       0.14      98.31     10.931
      22.48       0.14     101.03     8.4222
      22.48       0.14     103.41     5.6144
      22.48       0.14     106.13     4.0236
      22.48       0.14     108.86     4.9276
      22.48       0.14     111.25     6.9751
      22.48       0.14      113.3     10.615
      22.48       0.14     116.03     13.775
      22.48       0.14     118.07     16.628
      22.48       0.14     120.46     17.365
      22.48       0.14     122.84     17.114
      22.48       0.14     125.23     16.625
      22.48       0.14     126.93     14.592
      22.48       0.14     131.01      13.97
      22.48       0.14     133.74     17.359
      22.48       0.14     136.13     22.203
      22.48       0.14     138.18     28.399
      22.48       0.14      139.2     35.803
      22.48       0.14     141.59     45.136
      22.48       0.14      143.3     49.949
      22.48       0.14       145.     61.173
      22.48       0.14     147.05     66.723
      22.48       0.14     149.43     70.697
      22.48       0.14      150.8     73.834
      22.48       0.14     152.84     74.907
      22.48       0.14     155.56     72.763
      22.48       0.14     158.29     72.758
      22.48       0.14     160.67     71.707
      22.48       0.14      163.4     71.702
      22.48       0.14     165.78     74.881
      22.48       0.14     167.83     79.343
      22.48       0.14     169.87     82.861
      22.73       0.13     18.091     28.365
      22.73       0.13     20.816     29.198
      22.73       0.13     24.563     28.778
      22.73       0.13     27.969     24.898
      22.73       0.13     31.375     22.173
      22.73       0.13     34.781      21.54
      22.73       0.13     37.847     22.173
      22.73       0.13     41.594     21.853
      22.73       0.13        45.     20.034
      22.73       0.13     48.065     15.662
      22.73       0.13      51.81     9.2987
      22.73       0.13     54.874     4.7765
      22.73       0.13      58.62     3.9567
      22.73       0.13     61.346     5.6011
      22.73       0.13     64.754     8.6485
      22.73       0.13      67.48     10.903
      22.73       0.13     70.205     11.062
      22.73       0.13     73.951     8.2804
      22.73       0.13     77.355     5.1345
      22.73       0.13     80.079     3.0484
      22.73       0.13     83.145     3.3736
      22.73       0.13     85.872     6.5674
      22.73       0.13     88.599     10.591
      22.73       0.13     91.665     13.745
      22.73       0.13      94.39     15.211
      22.73       0.13     97.456     14.354
      22.73       0.13     100.18     10.901
      22.73       0.13     102.56       8.16
      22.73       0.13     105.29     5.9336
      22.73       0.13     108.01     5.9335
      22.73       0.13      110.4     8.1596
      22.73       0.13      112.1     11.551
      22.73       0.13     114.83     16.116
      22.73       0.13     117.21     19.174
      22.73       0.13      119.6     22.162
      22.73       0.13     121.64     22.485
      22.73       0.13     124.37     21.529
      22.73       0.13     127.09     20.025
      22.73       0.13     129.48     19.453
      22.73       0.13     131.86     19.736
      22.73       0.13     134.59     24.882
      22.73       0.13     137.31     32.292
      22.73       0.13     139.02     45.055
      22.73       0.13     141.74      57.63
      22.73       0.13     143.45     68.567
      22.73       0.13     145.83     78.112
      22.73       0.13     148.56     83.976
      22.73       0.13     151.28     87.703
      22.73       0.13     154.35     88.981
      22.73       0.13     156.05     85.197
      22.73       0.13     158.43     83.971
      22.73       0.13     160.14     82.763
      22.73       0.13     162.52     82.762
      22.73       0.13     164.57     80.398
      22.73       0.13     166.95     85.192
      22.73       0.13     169.68     87.694
ENDDATA            458
ENDSUBENT          500
SUBENT        F0929004   20120420   20121218   20121205       F047
BIB                  5         34
REACTION   (6-C-12(A,P)7-N-15,PAR,DA)
SAMPLE     Target thickness was measured to be 340 mu-g/cm2.
DETECTOR   (SOLST) Particles were detected with a lithium-drifted
            (p-i-n) solid-state detector.
ERR-ANALYS (ERR-S,,3.)         Statistical error
           (DATA-ERR1)         Absolute error
           (DATA-ERR2,12.,17.) Relative error
           The mean scattering angle of the solid-state detector
           system was found to have relative and absolute errors
           of + -0.3 degr. and + -0.8 degr., respectively.
           Statistical counting errors were less than 3%.
           Complete          Relative       Absolute
           angular           error          error
           distribution
              (MeV)           (MeV)          (MeV)
              22.81           0.04           0.12
              22.50           0.04           0.12
              21.90           0.04           0.12
              21.64           0.04           0.12
              21.20           0.04           0.12
              20.91           0.04           0.12
              20.44           0.05           0.12
              20.17           0.04           0.12
           In addition to the usual uncertainties in the energy
           measurements, the errors include energy fluctuations
           observed with the spectrometer as well as the ability
           to match the energies of the transmission and
           reflection portions of the elastic-inelastic angular
           distribution.
           (EN-ERR)     Absolute incident energy error
           (ANG-ERR-D)  Angle digitizing error
           (DATA-ERR)   Error  bars include statistical and
           background subtraction errors
STATUS     (CURVE) Fig.5
ENDBIB              34
COMMON               6          3
ANG-RSL    E-LVL      DATA-ERR1  ANG-ERR-D  ERR-DIG    EN-ERR
ADEG       MEV        PER-CENT   ADEG       MB/SR      MEV
 1.3        0.         20.        0.19       0.0014     0.12
ENDCOMMON            3
DATA                 4        256
EN         ANG-CM     DATA-CM    DATA-ERR
MEV        ADEG       MB/SR      MB/SR
      20.17     16.868    0.96413
      20.17     19.753    0.95239
      20.17     23.217    0.94651
      20.17     28.695    0.87033
      20.17     34.174    0.80293
      20.17      40.23     0.7326
      20.17      45.71    0.67985
      20.17     51.759    0.51874
      20.17     57.521    0.38399
      20.17     63.001    0.34002
      20.17      68.49    0.38975
      20.17     74.277    0.55369
      20.17     78.915    0.79084
      20.17     84.127    0.98698
      20.17     89.339     1.1831
      20.17     94.541     1.2563
      20.17     99.163     1.2914
      20.17     104.64     1.2416
      20.17     109.54     1.1127
      20.17     114.44     1.0658
      20.17     118.48     1.0013
      20.17     123.67    0.95736
      20.17     128.28    0.88705
      20.17     132.61    0.80209
      20.17     137.23    0.83426
      20.17     141.55    0.77859
      20.17     146.17    0.73755
      20.17     150.21    0.77559
      20.17     154.55    0.83412
      20.17     159.16    0.81065
      20.17     163.22    0.98631
      20.17     167.27     1.0448
      20.17      171.6     1.1619
      20.44     16.055      1.009
      20.44     20.091    0.94512
      20.44      22.97    0.86092
      20.44     28.735    0.77088
      20.44     34.508    0.77083
      20.44     40.567    0.74465
      20.44     46.052     0.7446
      20.44     52.108    0.68359
      20.44     57.301    0.64871
      20.44     62.779    0.57319
      20.44     68.257    0.49767
      20.44     74.032    0.52665
      20.44     79.233    0.58175
      20.44     84.728    0.69781
      20.44     89.644    0.79936
      20.44     94.847    0.87188
      20.44     99.466    0.88055
      20.44     104.37     0.8834
      20.44     109.85    0.81659
      20.44     114.76    0.81945
      20.44     119.66    0.74394
      20.44     123.99    0.73229
      20.44     128.32    0.70903
      20.44     133.22    0.70898
      20.44     137.26    0.69734
      20.44     142.17    0.67697
      20.44     146.21     0.6421
      20.44     150.83    0.65367
      20.44     154.58    0.65944
      20.44     158.91    0.63618
      20.44     163.24    0.65937
      20.44     167.28    0.63901
      20.44     171.61    0.60994
      20.91     17.243    0.43968
      20.91     22.446    0.50031
      20.91     27.942    0.59561
      20.91       34.6     0.7487
      20.91     40.398    0.95382
      20.91     45.606     1.0462
      20.91     51.662     1.0028
      20.91     56.841    0.86114
      20.91     68.067    0.60668
      20.91     74.404    0.49389
      20.91     79.312    0.49961
      20.91     84.513     0.5429
      20.91     89.143    0.63821
      20.91     94.349    0.71618
      20.91     99.553    0.78836
      20.91     104.17    0.81432
      20.91     109.66    0.79402
      20.91     114.27    0.73616
      20.91     118.88    0.65808
      20.91     123.49    0.57132
      20.91      128.1    0.55392
      20.91     132.72    0.55676
      20.91     137.34    0.55959
      20.91     141.67    0.55954
      20.91     145.71    0.55371
      20.91     150.62    0.57388
      20.91     154.67    0.61429
      20.91     158.42    0.65181
      20.91     163.33    0.66331
      20.91     167.09    0.72107
      20.91     171.13    0.73258
       21.2     19.219     0.4604 7.3528E-02
       21.2     22.684    0.47509 3.5293E-02
       21.2     28.464     0.5927 3.2352E-02
       21.2     34.251    0.83383 3.2352E-02
       21.2     39.749     1.0573 3.2352E-02
       21.2      45.24     1.1632 2.9411E-02
       21.2     53.322     1.1602
       21.2     56.491     1.0513
       21.2     62.543    0.89542
       21.2     68.016    0.68951
       21.2     73.781    0.55712
       21.2     78.976    0.53356
       21.2     84.175    0.59824
       21.2       88.8    0.69526
       21.2     94.003    0.81582
       21.2     99.203    0.88637
       21.2     104.11    0.90987
       21.2     109.02    0.88631
       21.2     113.92    0.84805
       21.2     118.82    0.77155 3.2352E-02
       21.2     123.44    0.72152
       21.2     128.34    0.66267
       21.2     132.68    0.69794 3.5294E-02
       21.2     137.01    0.70673 4.1176E-02
       21.2     141.34    0.70965 3.8235E-02
       21.2     145.96    0.71844 3.8235E-02
       21.2     149.99     0.6096 4.1176E-02
       21.2      154.6    0.53898 4.7058E-02
       21.2     158.35    0.46543 5.5881E-02
       21.2     162.68    0.37717 7.6469E-02
       21.2     167.29    0.28891 8.8234E-02
       21.2     171.61    0.18594 7.3528E-02
      21.64     18.624    0.19111
      21.64     21.801    0.23809
      21.64     27.867    0.32323
      21.64     33.646    0.46417
      21.64     39.139     0.6521
      21.64     44.629    0.79304
      21.64      50.69    0.77833
      21.64     56.173    0.73719
      21.64     62.515    0.54333
      21.64     67.418    0.43758
      21.64      72.61    0.35827
      21.64     78.384    0.36999
      21.64     83.581    0.40227
      21.64     88.491    0.45805
      21.64     93.691    0.55787
      21.64       98.6    0.61072
      21.64     104.08    0.60482
      21.64     108.99    0.56074
      21.64     113.32    0.54898
      21.64     118.22    0.51371
      21.64     123.13    0.55774
      21.64     127.75    0.59003
      21.64      131.8    0.63406
      21.64     136.42    0.67809
      21.64     140.75    0.78086
      21.64     145.37    0.82783
      21.64      149.7    0.84543
      21.64     153.74    0.84541
      21.64     158.07     0.7984
      21.64     162.11     0.8072
      21.64     166.44    0.69264
      21.64     170.19    0.66326
       21.9     19.749    0.21109
       21.9     22.643    0.26987
       21.9     28.435    0.40803
       21.9     33.932    0.49325
       21.9     40.011    0.61963
       21.9     46.071    0.60484
       21.9     57.024    0.48998
       21.9     62.784    0.39283
       21.9     67.688    0.37218
       21.9     73.462    0.37798
       21.9     78.376    0.42791
       21.9     84.153    0.45724
       21.9     89.353    0.48952
       21.9     93.973    0.49828
       21.9      99.17    0.50408
       21.9     104.07     0.4746
       21.9     109.55    0.44511
       21.9     114.17    0.44799
       21.9     119.08    0.45674
       21.9     122.84    0.49492
       21.9     128.33    0.54191
       21.9     132.68    0.67126
       21.9      137.6    0.79472
       21.9     140.79    0.87997
       21.9     143.72     1.1946
       21.9     149.52     1.4269
       21.9      153.6     1.7004
       21.9     157.67     1.9356
       21.9     162.62     2.1856
       21.9     165.81     2.2943
       21.9     167.55     2.3943
       21.9     169.88     2.5266
       22.5     18.495    0.18248
       22.5     22.836    0.22349
       22.5     27.208    0.37614
       22.5     33.312    0.52875
       22.5     38.821    0.61967
       22.5     44.884    0.62243
       22.5     50.646    0.58114
       22.5     56.105     0.4899
       22.5     61.577    0.44274
       22.5     67.062    0.44552
       22.5     72.842    0.46886
       22.5     77.753    0.48341
       22.5     83.239    0.48913
       22.5     88.424    0.45079
       22.5     93.603    0.38894
       22.5     98.197    0.29773
       22.5     103.66    0.21825
       22.5     108.55    0.15053
       22.5     113.45    0.13276
       22.5     118.07    0.12382
       22.5     122.97     0.1178
       22.5      127.3    0.12943
       22.5     131.64    0.15281
       22.5     136.57    0.22906
       22.5     140.92    0.32002
       22.5       145.    0.44036
       22.5     148.82    0.68705
       22.5      153.2    0.88083
       22.5      157.9     1.1863
       22.5       162.     1.3712
       22.5      166.7     1.6708
       22.5     169.35     1.8587
      22.81     18.761 8.2206E-02 5.4986E-02
      22.81     21.672    0.15446 3.4727E-02
      22.81     28.083    0.34236 4.0516E-02
      22.81     33.642    0.56791 3.4728E-02
      22.81     39.184    0.74426 2.8939E-02
      22.81     44.688    0.80485 3.7622E-02
      22.81     50.462    0.80756
      22.81     56.197    0.68871
      22.81     62.223    0.57854
      22.81     67.396    0.50892
      22.81      72.87     0.4769
      22.81     78.351    0.46515
      22.81     83.548    0.47077
      22.81     88.736    0.44455
      22.81     93.628    0.39808
      22.81     98.514    0.33426
      22.81      103.4    0.27332
      22.81     108.87    0.23263
      22.81     113.76    0.18327
      22.81     118.37    0.15996
      22.81     123.27    0.13376
      22.81      127.3 8.7321E-02
      22.81     131.63 7.8497E-02
      22.81     136.82 7.5432E-02
      22.81     140.87 8.6875E-02 2.6046E-02
      22.81      145.5    0.13881
      22.81      151.3    0.21387
      22.81     154.21    0.28323 3.4728E-02
      22.81     158.31     0.4741 5.2092E-02
      22.81     161.56    0.69104 6.3667E-02
      22.81     165.89    0.69958 6.6561E-02
ENDDATA            258
ENDSUBENT          301
SUBENT        F0929005   20120420   20121218   20121205       F047
BIB                  6         11
REACTION   (6-C-12(A,INL)6-C-12,PAR,SIG)
SAMPLE     Target thickness was measured to be 320 mu-g/cm2.
DETECTOR   (SIBAR) ORTEG surface-barrier detector and a Nuclear
           Data channel analyzer was used.
MONITOR    (79-AU-197(A,EL)79-AU-197,,DA)
ERR-ANALYS (DATA-ERR1)   Absolute error
           (DATA-ERR2)   Error bars represent relative errors of
           16% and include estimates of the error caused by
           neglecting the end portions of the distributions
           (EN-ERR-DIG)  Energy digitizing error
STATUS     (CURVE) Fig.6
ENDBIB              11
COMMON               4          3
DATA-ERR1  E-LVL      EN-ERR-DIG ERR-DIG
PER-CENT   MEV        MEV        MB
 30.        4.43       0.003      0.25
ENDCOMMON            3
DATA                 3          8
EN         DATA       DATA-ERR2
MEV        MB         MB
     20.167     323.98     18.182
     20.476      293.5     20.455
     20.922     249.47     18.182
     21.203     220.11     14.773
     21.619     231.75     15.903
       21.9     223.98       12.5
     22.471     217.54     12.504
     22.723     238.16     14.767
ENDDATA             10
ENDSUBENT           30
SUBENT        F0929006   20120420   20121218   20121205       F047
BIB                  6         11
REACTION   (6-C-12(A,P)7-N-15,PAR,SIG)
SAMPLE     Target thickness was measured to be 340 mu-g/cm2.
DETECTOR   (SIBAR) ORTEG surface-barrier detector and a Nuclear
           Data channel analyzer was used.
MONITOR    (79-AU-197(A,EL)79-AU-197,,DA)
ERR-ANALYS (DATA-ERR1)  Absolute error
           (DATA-ERR2)  Error bars represent relative errors of
           13% and include estimates of the error caused by
           neglecting the end portions of the distributions
           (EN-ERR-DIG)  Energy digitizing error
STATUS     (CURVE) Fig.6
ENDBIB              11
COMMON               4          3
E-LVL      DATA-ERR1  EN-ERR-DIG ERR-DIG
MEV        PER-CENT   MEV        MB
 0.          30.       0.003      0.025
ENDCOMMON            3
DATA                 3          8
EN         DATA       DATA-ERR2
MEV        MB         MB
     20.168     10.595     1.0175
     20.431     8.9169    0.90399
      20.92      8.384    0.90395
       21.2     9.5323     1.0169
     21.644     7.0756      1.017
     21.915     7.6583     1.0171
     22.505     5.0981     1.0167
     22.821     5.0059    0.79095
ENDDATA             10
ENDSUBENT           30
ENDENTRY             6
