ENTRY            F0954   20120125   20120702   20120702       F045
SUBENT        F0954001   20120125   20120702   20120702       F045
BIB                  8         18
TITLE      Investigation of proton induced resonance reactions on
           39K.
AUTHOR     (R.J.de Meijer,A.A.Sieders,H.A.A.Landman,G.de Roos)
INSTITUTE  (2NEDUTR)
REFERENCE  (J,NP/A,155,109,1970)
FACILITY   (VDG)
SAMPLE     Two types of targets have been used; a natural KI
           target for the measurement of the yield curve and a
           natural KCL target for the energy and strength
           calibration and the angular distribution measurements.
           The targets consist of a 10 mu-g/cm2 carbon backing on
           which the potassium salt has been evaporated in vacuum.
           The thickness of the target was measured as 3.2 keV at
           the 2.54 MeV resonance.
ERR-ANALYS (ERR-DIG)    Data digitizing error
HISTORY    (20090226C)
           (20120125A)  COMMON section and REACTION records in
           Sub 003,004 were changed.
ENDBIB              18
NOCOMMON             0          0
ENDSUBENT           21
SUBENT        F0954002   20090226   20090508   20090508       F035
BIB                  5         11
REACTION   (19-K-39(P,EL)19-K-39,,DA,,REL)
           Data are given in counts per 300 microC.
DETECTOR   Semiconductor detectors with the thicknesses of 20
           mu-m and 300 mu-m (active area of 25 mm2) were used
           separately and as a dE-E counter telescope.
           (TELES) System has been used to reduce the background
           arising from proton pile-up. Detectors were placed at
           a distance of 8.5 cm from the target.
METHOD     (EDE)
ERR-ANALYS (EN-ERR-DIG) Energy digitizing error
STATUS     (CURVE) Fig.4
ENDBIB              11
COMMON               3          3
ANG        EN-ERR-DIG ERR-DIG
ADEG       MEV        ARB-UNITS
  168.      0.001       399.3
ENDCOMMON            3
DATA                 2        309
EN         DATA
MEV        ARB-UNITS
     1.7314 9.8628E+04
     1.7327 9.8058E+04
     1.7335 9.6355E+04
     1.7356 9.6918E+04
     1.7373 9.6347E+04
     1.7389 9.5209E+04
     1.7402 9.4639E+04
      1.741 9.4354E+04
     1.7427 9.2365E+04
     1.7443 9.2645E+04
     1.7464 9.1223E+04
     1.7472 9.0087E+04
     1.7489 8.8381E+04
     1.7501 8.7528E+04
     1.7526 8.5821E+04
     1.7547 8.4965E+04
     1.7568 8.2692E+04
      1.758 8.3540E+04
     1.7593 8.2403E+04
     1.7609 8.1265E+04
     1.7622 8.2681E+04
     1.7634 8.1260E+04
     1.7638 7.8990E+04
     1.7655 7.9554E+04
     1.7676 7.9834E+04
     1.7684 8.1250E+04
     1.7701 8.2098E+04
     1.7709 8.0962E+04
     1.7717 8.3513E+04
     1.7726 8.1242E+04
     1.7734 7.9822E+04
     1.7746 7.8969E+04
     1.7746 8.0671E+04
     1.7755 8.2371E+04
     1.7767 8.3220E+04
     1.7788 8.4634E+04
     1.7801 8.3497E+04
     1.7821 8.4060E+04
     1.7834 8.6044E+04
     1.7851 8.5757E+04
     1.7863 8.6038E+04
     1.7876 8.5468E+04
     1.7901 8.8867E+04
     1.7905 8.6597E+04
     1.7921 8.6877E+04
     1.7942 9.1696E+04
     1.7959 8.8288E+04
     1.7972 9.0839E+04
      1.798 8.7149E+04
     1.8001 8.8847E+04
     1.8013 9.0547E+04
     1.8038 9.1110E+04
     1.8055 9.0823E+04
     1.8071 9.0536E+04
     1.8084 9.0533E+04
     1.8105 9.1096E+04
     1.8134 9.1942E+04
     1.8163 9.0518E+04
     1.8184 9.1932E+04
     1.8196 9.1362E+04
     1.8213 9.1075E+04
     1.8225 8.9370E+04
     1.8242 9.0786E+04
     1.8254 8.9365E+04
     1.8275 8.7659E+04
     1.8284 8.9643E+04
     1.8292 9.0492E+04
     1.8313 9.0488E+04
     1.8329 9.1336E+04
     1.8346 9.1332E+04
     1.8363 9.1045E+04
     1.8375 8.9625E+04
     1.8388 8.9906E+04
     1.8409 9.0469E+04
     1.8417 8.9900E+04
     1.8438 8.8194E+04
     1.8463 8.8189E+04
     1.8483 8.8752E+04
     1.8496 8.9033E+04
     1.8508 8.9031E+04
     1.8521 8.8461E+04
     1.8542 8.8741E+04
     1.8558 8.7603E+04
     1.8571 8.7033E+04
     1.8583 8.6747E+04
       1.86 8.5325E+04
     1.8616 8.4471E+04
     1.8633 8.4467E+04
      1.865 8.3613E+04
     1.8662 8.3894E+04
     1.8679 8.3607E+04
     1.8691 8.2754E+04
     1.8708 8.1899E+04
     1.8724 8.1896E+04
     1.8745 8.3594E+04
      1.877 8.1320E+04
     1.8787 8.2167E+04
     1.8795 8.0747E+04
     1.8808 8.0178E+04
     1.8828 7.9606E+04
     1.8841 7.9887E+04
     1.8853 7.8750E+04
     1.8878 8.0164E+04
     1.8895 7.9593E+04
     1.8912 7.8739E+04
     1.8924 7.7885E+04
     1.8945 7.7314E+04
     1.8957 7.7027E+04
     1.8974 7.8443E+04
     1.8991 8.0425E+04
     1.8995 8.2410E+04
     1.9003 8.3543E+04
     1.9012 8.6095E+04
     1.9033 8.7509E+04
     1.9049 8.6655E+04
     1.9062 8.5801E+04
     1.9082 8.3244E+04
     1.9095 8.0972E+04
     1.9116 8.0117E+04
     1.9128 7.9263E+04
      1.914 7.8126E+04
     1.9149 7.6706E+04
     1.9157 7.5286E+04
     1.9169 7.3865E+04
     1.9186 7.0174E+04
     1.9199 7.5278E+04
     1.9207 7.7546E+04
     1.9211 7.9247E+04
     1.9224 8.2081E+04
     1.9245 8.2644E+04
     1.9261 8.0372E+04
      1.929 8.0650E+04
     1.9303 7.8378E+04
     1.9319 7.9509E+04
     1.9332 7.8656E+04
     1.9344 7.9504E+04
     1.9365 8.0067E+04
     1.9386 7.9212E+04
     1.9403 7.9209E+04
     1.9419 7.8922E+04
      1.944 7.8351E+04
     1.9457 7.8347E+04
     1.9469 7.8061E+04
     1.9486 7.4937E+04
     1.9507 7.8621E+04
     1.9532 7.8900E+04
     1.9548 7.8897E+04
     1.9569 8.0595E+04
     1.9586 8.0024E+04
     1.9602 7.7751E+04
     1.9619 7.8032E+04
     1.9631 7.6611E+04
     1.9648 7.9161E+04
     1.9665 7.8590E+04
     1.9677 7.9722E+04
      1.969 7.9152E+04
     1.9711 8.0567E+04
     1.9719 7.8863E+04
     1.9736 7.9994E+04
     1.9756 7.9990E+04
     1.9773 7.9987E+04
     1.9802 7.7144E+04
      1.981 7.3455E+04
     1.9827 7.2884E+04
     1.9839 6.8343E+04
     1.9856 6.8907E+04
     1.9872 6.8904E+04
     1.9897 6.8048E+04
     1.9914 7.1732E+04
     1.9931 7.0027E+04
     1.9947 7.1442E+04
      1.996 6.9170E+04
     1.9964 6.6616E+04
     1.9972 6.3494E+04
     1.9981 6.6613E+04
     1.9981 7.0584E+04
     1.9998 7.5120E+04
     2.0006 7.8239E+04
     2.0014 8.0223E+04
     2.0014 8.2492E+04
     2.0035 8.2772E+04
     2.0048 8.2486E+04
     2.0073 8.1346E+04
     2.0098 8.1625E+04
      2.011 8.1339E+04
     2.0118 8.0770E+04
     2.0148 8.0764E+04
      2.016 7.5655E+04
     2.0177 7.8489E+04
     2.0193 7.6216E+04
     2.0206 7.9334E+04
     2.0218 7.9332E+04
     2.0231 8.0180E+04
     2.0243 8.2164E+04
     2.0256 8.2161E+04
     2.0277 7.9888E+04
     2.0289 8.2155E+04
      2.031 8.2718E+04
     2.0326 7.5339E+04
     2.0347 7.6753E+04
     2.0368 7.6465E+04
     2.0389 7.6461E+04
     2.0414 7.7591E+04
     2.0422 7.8440E+04
     2.0435 7.7587E+04
     2.0451 7.7867E+04
     2.0472 7.6728E+04
     2.0489 7.8427E+04
     2.0497 7.7858E+04
     2.0514 7.6720E+04
     2.0523 7.3316E+04
     2.0534 7.3596E+04
     2.0547 7.1891E+04
     2.0567 7.0752E+04
     2.0568 7.3589E+04
     2.0588 7.4720E+04
     2.0613 7.5566E+04
     2.0634 7.3576E+04
     2.0643 7.4709E+04
     2.0659 7.3855E+04
     2.0684 7.3282E+04
     2.0697 7.3280E+04
     2.0713 7.4128E+04
     2.0726 7.3558E+04
     2.0742 7.2136E+04
     2.0751 7.0432E+04
     2.0767 7.0145E+04
     2.0796 6.8437E+04
     2.0809 6.7300E+04
     2.0817 6.4178E+04
     2.0825 6.2758E+04
     2.0829 6.1339E+04
     2.0837 5.9068E+04
     2.0854 5.5093E+04
     2.0871 5.6792E+04
     2.0879 5.9911E+04
     2.0888 6.3313E+04
     2.0892 6.6149E+04
     2.0896 6.9269E+04
     2.0909 7.1536E+04
     2.0925 7.0114E+04
     2.0938 6.9828E+04
     2.0954 6.8406E+04
     2.0967 6.7553E+04
     2.0979 6.5848E+04
     2.0992 6.3860E+04
     2.1004 6.5843E+04
     2.1008 6.7545E+04
     2.1017 6.9812E+04
     2.1025 7.1229E+04
     2.1042 7.2644E+04
     2.1054 7.2074E+04
     2.1075 7.0652E+04
     2.1088 7.0933E+04
     2.1113 7.0928E+04
     2.1129 6.9506E+04
     2.1142 7.0071E+04
     2.1154 6.9785E+04
     2.1171 6.9782E+04
     2.1183 7.0631E+04
     2.1196 7.0344E+04
     2.1217 7.0057E+04
     2.1221 7.1191E+04
     2.1246 6.9767E+04
     2.1258 7.1750E+04
     2.1271 7.2599E+04
     2.1287 7.1461E+04
     2.1296 6.8339E+04
     2.1308 6.6351E+04
     2.1325 6.6347E+04
     2.1341 6.5493E+04
     2.1358 6.3788E+04
      2.137 6.1799E+04
     2.1387 6.2080E+04
     2.1399 6.2928E+04
     2.1416 6.1790E+04
     2.1424 6.0654E+04
     2.1441 6.1785E+04
     2.1454 6.3769E+04
     2.1458 6.5186E+04
     2.1474 6.4899E+04
     2.1491 6.5747E+04
     2.1508 6.4609E+04
     2.1528 6.4038E+04
     2.1545 6.4318E+04
     2.1566 6.4314E+04
     2.1574 6.2894E+04
     2.1578 6.0624E+04
     2.1591 5.9770E+04
     2.1595 5.6932E+04
     2.1615 5.0971E+04
     2.1619 4.8417E+04
     2.1628 4.6997E+04
     2.1628 4.5011E+04
     2.1644 4.3306E+04
     2.1657 4.5005E+04
     2.1669 5.1244E+04
      2.167 5.5783E+04
      2.167 6.2591E+04
     2.1672 6.4291E+04
     2.1678 6.8263E+04
     2.1695 7.1664E+04
     2.1724 7.3928E+04
     2.1737 7.2507E+04
     2.1762 7.1935E+04
     2.1766 7.1083E+04
     2.1778 7.0229E+04
     2.1799 6.9942E+04
     2.1816 6.8520E+04
ENDDATA            311
ENDSUBENT          331
SUBENT        F0954003   20120125   20120702   20120702       F045
BIB                  5         13
REACTION   (19-K-39(P,A)18-AR-36,PAR,DA,,REL)
           Yield of the reaction summed over six angles: 89,
           110, 125, 140, 149 and 155 degr. is presented.
           Data are given in counts per 300 microC.
DETECTOR   Semiconductor detectors with the thicknesses of 20
           mu-m and 300 mu-m (active area of 25 mm2) were used
           separately and as a dE-E counter telescope.
           (TELES) System has been used to reduce the background
           arising from proton pile-up. Detectors were placed at
           a distance of 8.5 cm from the target.
METHOD     (EDE)
ERR-ANALYS (EN-ERR-DIG) Energy digitizing error
STATUS     (CURVE) Fig.4
ENDBIB              13
COMMON               5          3
ANG-MIN    ANG-MAX    E-LVL      EN-ERR-DIG ERR-DIG
ADEG       ADEG       MEV        MEV        ARB-UNITS
  89.        155.      0.         0.001      0.679
ENDCOMMON            3
DATA                 2        925
EN         DATA
MEV        ARB-UNITS
     1.7319     27.606
     1.7327     13.169
     1.7343     12.055
      1.736     13.162
     1.7377       17.6
     1.7389     19.262
     1.7402     25.922
     1.7419     23.697
     1.7435     10.924
     1.7456     23.134
     1.7468     14.248
     1.7485     9.8027
     1.7497     5.9136
     1.7514     7.5754
     1.7527     12.569
     1.7539     17.563
      1.756     9.2307
     1.7576     4.7855
     1.7585     8.1147
     1.7601     11.442
     1.7614     14.215
     1.7631     16.432
     1.7656      11.43
     1.7668      18.09
     1.7681     19.197
     1.7697     13.641
      1.771     13.083
     1.7726     9.1934
     1.7731     12.524
     1.7756     40.277
      1.776      65.26
     1.7769      71.92
     1.7773     83.579
     1.7781      50.82
     1.7793     32.496
     1.7801     21.946
     1.7814     12.505
     1.7826     17.499
     1.7847     10.277
     1.7859     9.7187
     1.7872     3.0537
     1.7889     5.2707
     1.7905     3.0462
     1.7922     8.0392
     1.7934      6.926
     1.7947     7.4784
     1.7964     9.1402
     1.7976     5.2511
     1.8009     8.0196
      1.803     13.012
     1.8038     8.5682
     1.8047     5.7904
     1.8068     8.5617
     1.8088     4.1155
     1.8097     3.0033
     1.8109     5.2212
     1.8126     6.3279
     1.8138     4.1043
     1.8155     3.5454
     1.8172     4.0968
     1.8192     6.3129
     1.8201     6.3111
     1.8222     10.193
      1.823     7.4149
     1.8246     4.0801
     1.8259     6.8532
     1.8276     4.0735
     1.8292     11.287
     1.8309     9.0628
     1.8326      9.059
     1.8334     10.723
      1.835     5.7223
     1.8367     9.6049
      1.838     11.823
     1.8392     10.154
     1.8409     10.151
      1.843     16.808
      1.843     34.019
     1.8438     49.007
     1.8447     61.775
     1.8463     46.226
     1.8471     32.344
     1.8492     12.353
     1.8505     14.571
     1.8521     10.126
     1.8534      5.126
     1.8546     6.2336
     1.8567     5.1186
     1.8579     7.3365
     1.8592     7.8889
     1.8608     6.2196
     1.8625     8.9918
     1.8638     4.5475
     1.8646     6.7664
     1.8667     8.4273
     1.8683      6.758
     1.8696     15.638
     1.8713     7.3067
     1.8725     3.4176
     1.8742      6.745
     1.8754     10.073
     1.8771      8.404
     1.8783     2.8493
     1.8796     8.9536
     1.8821     3.9513
     1.8833     5.0589
     1.8846     5.6113
     1.8862     7.2731
     1.8879     10.601
     1.8883     12.265
     1.8908     6.1524
     1.8925     5.5935
     1.8941     10.031
     1.8966     9.4705
     1.8983     2.2493
     1.9004     12.793
     1.9016     7.7938
     1.9025     8.9023
     1.9045     5.5665
     1.9054     7.7854
     1.9079     6.6694
     1.9095      7.776
     1.9112     7.7723
     1.9129     5.5478
     1.9145     6.6544
     1.9166     4.9842
     1.9179     7.2022
     1.9183     2.2045
     1.9191     7.7546
       1.92      13.86
     1.9212     27.182
     1.9216     32.177
     1.9229     26.623
     1.9241     15.516
     1.9254     11.627
     1.9262     10.515
     1.9283     13.286
     1.9295     9.3968
     1.9312     7.1723
     1.9324     9.3903
     1.9337     8.8323
     1.9358     7.1621
     1.9374     2.1616
     1.9391     2.1579
     1.9403     3.8206
     1.9424     1.5952
     1.9432     4.9245
     1.9445     4.3665
     1.9462     2.6972
     1.9478     3.8039
     1.9491     5.4666
     1.9516     1.0195
     1.9532     2.6813
     1.9549     4.3432
     1.9566     7.1154
     1.9582     6.5565
     1.9603      7.107
     1.9615    0.99711
     1.9636     3.7684
     1.9665     2.0963
      1.969     2.6459
     1.9711     3.1964
     1.9728     5.4134
     1.9761     4.8508
     1.9778     6.5126
     1.9799     7.6183
     1.9811     6.5052
     1.9824     7.6127
      1.984      7.609
     1.9853     7.6062
     1.9874     15.929
     1.9899     12.037
     1.9911     10.369
     1.9928     18.693
      1.994      17.58
     1.9948     5.9192
     1.9961     10.358
     1.9974      10.91
      1.999     7.0202
     2.0007     9.7924
     2.0028     25.888
     2.0044     21.443
     2.0057     13.112
     2.0061     4.7836
     2.0073     7.5567
     2.0094     4.2209
     2.0111     9.7691
     2.0123     12.542
     2.0136     7.5427
     2.0144     2.5442
     2.0152     6.4286
     2.0165     5.3155
     2.0182     10.864
      2.019     5.3099
     2.0206     3.6406
     2.0223     5.3024
     2.0236      3.634
     2.0248     7.5176
     2.0256     4.1845
     2.0273      4.736
     2.0286     9.7299
     2.0302     8.6158
      2.031     4.1724
     2.0327     4.7239
      2.034     4.1659
     2.0348     2.4985
     2.0365     4.1603
     2.0377      8.599
     2.0385      5.266
     2.0398     6.3736
     2.0419     2.4826
     2.0435     4.1444
     2.0448     3.0312
      2.046     1.3629
     2.0481     4.6894
     2.0498     3.5752
     2.0502     3.0191
     2.0519      4.681
     2.0531     3.5678
     2.0548     10.226
      2.056     19.662
     2.0565     37.982
     2.0574     77.399
     2.0582     117.37
      2.059     89.054
     2.0598     72.952
     2.0623     32.972
     2.0631     22.422
     2.0639     12.982
     2.0652     9.0926
      2.066     4.6492
     2.0677     2.9799
     2.0698      5.196
     2.0714      7.413
     2.0743     12.958
     2.0752     6.2943
      2.076     1.8509
     2.0785     5.1764
     2.0793     5.7297
      2.081     12.388
     2.0818     5.7241
     2.0835     3.4997
     2.0852     6.8271
     2.0872     12.374
     2.0885     12.927
     2.0893     6.8177
      2.091     3.4829
     2.0935     7.9188
     2.0947     2.9193
     2.0964    0.69478
     2.0972     6.2448
      2.098     2.9118
     2.0989     6.7963
     2.0997     1.2425
     2.1005      5.127
     2.1014     9.0114
     2.1026     2.9015
     2.1047    0.67612
      2.106     6.7804
     2.1076     16.215
     2.1085     21.765
     2.1105     16.208
      2.111     10.656
     2.1134     3.4325
     2.1151    0.65279
     2.1168     7.3113
     2.1189     3.9755
     2.1205     7.3029
     2.1218     6.1898
     2.1226     4.5223
     2.1239     10.627
     2.1247     4.5177
     2.1255     8.9573
     2.1268     6.7338
     2.1284      9.506
     2.1301     5.0607
     2.1313     5.0579
     2.1326     8.3863
     2.1334     10.605
     2.1347     15.044
     2.1351     11.712
     2.1368     6.1562
      2.138     4.4878
     2.1397     5.5944
     2.1405     8.9237
     2.1418     17.249
     2.1426     22.799
     2.1434      30.57
     2.1455     34.451
     2.1459     29.454
     2.1476     23.898
     2.1484     16.679
     2.1492     9.4593
     2.1501     6.6815
     2.1522     10.563
      2.153     17.224
     2.1551      20.55
     2.1559     22.769
     2.1584     12.215
     2.1601     7.7695
     2.1613     7.7667
      2.163     17.756
     2.1634     8.8724
     2.1646     5.5385
     2.1663     8.8659
     2.1671      12.75
      2.168     19.966
     2.1693     37.729
     2.1717     27.175
     2.1734     17.178
      2.175     10.512
     2.1767     12.729
      2.178     13.836
     2.1796     13.278
     2.1821     10.496
      2.184     9.5321
     2.1859     18.093
     2.1877     9.5123
     2.1896     9.5024
     2.1919       9.49
     2.1942     15.192
      2.196     15.182
     2.1979     20.886
     2.1998     12.305
     2.2007      6.586
     2.2021     18.006
     2.2035     15.142
     2.2053     9.4182
     2.2067     12.268
      2.209     12.255
     2.2109     12.245
     2.2118      12.24
     2.2146     9.3687
      2.216     12.218
     2.2174     17.925
     2.2197     9.3414
      2.222     9.3291
     2.2238     12.176
     2.2252      20.74
     2.2266     9.3043
     2.2275     15.013
     2.2294     15.003
     2.2303     14.998
     2.2326     23.557
     2.2345      20.69
     2.2359     20.683
     2.2382     14.956
     2.2391     29.236
      2.241     66.367
     2.2414      89.22
     2.2424     94.929
     2.2433     86.353
     2.2438     69.209
     2.2447     60.633
     2.2456     46.343
      2.247     26.337
     2.2488      23.47
     2.2502     23.463
     2.2525      23.45
     2.2549     20.581
     2.2567     20.571
     2.2581     20.564
      2.259     17.702
     2.2604     17.694
     2.2613     11.976
     2.2632     14.823
      2.266     20.522
     2.2674     31.942
     2.2678      69.08
     2.2683      160.5
     2.2697     171.92
     2.2716      146.2
     2.2725     71.912
     2.2734     43.338
     2.2752       31.9
     2.2762     26.181
     2.2771     17.605
      2.278     14.743
     2.2799     11.877
     2.2817     14.724
     2.2831     11.859
     2.2845     28.994
     2.2859     40.414
     2.2877     37.547
     2.2891      37.54
     2.2915     43.241
     2.2928     48.948
     2.2938     57.514
     2.2956     48.933
     2.2975     46.066
     2.2993     48.913
     2.3007     57.476
      2.303     68.892
     2.3044     57.457
     2.3053     51.738
     2.3072     51.728
     2.3086      51.72
     2.3095     51.716
     2.3104     68.852
     2.3123     71.699
     2.3137      54.55
     2.3165      68.82
     2.3179     45.957
     2.3192     63.091
     2.3202     60.229
     2.3216      71.65
     2.3229     63.072
     2.3234     80.211
     2.3248     168.77
     2.3253     200.19
     2.3258     288.76
     2.3267     314.46
     2.3281     280.17
     2.3281     257.32
     2.3299     194.45
     2.3299      131.6
     2.3308     114.45
     2.3313     94.454
     2.3331     114.44
     2.3341     91.582
     2.3355      85.86
     2.3364     74.428
     2.3373     60.138
     2.3392     68.699
     2.3405     71.548
     2.3424     68.682
     2.3429     62.965
     2.3442     68.672
     2.3456     65.807
      2.347     60.086
      2.348      51.51
     2.3489     68.647
     2.3512     65.777
     2.3521     82.914
     2.3535     154.33
     2.3544     128.61
     2.3563     91.463
     2.3568     77.176
     2.3581     71.454
     2.3595     71.447
     2.3619     82.862
     2.3632     48.571
     2.3651     79.988
      2.366     59.984
     2.3674     62.834
     2.3693     62.824
     2.3711       57.1
      2.373     59.947
     2.3748      57.08
     2.3767     68.498
     2.3785     71.345
     2.3794     82.768
     2.3822     51.327
     2.3845     59.885
     2.3859     62.735
     2.3878      77.01
     2.3883     94.149
     2.3896       137.
     2.3906     145.56
     2.3915      122.7
     2.3929     85.553
     2.3938      65.55
     2.3957     56.969
      2.397     54.105
     2.3989     48.381
     2.4003     42.659
     2.4017     51.223
     2.4045     45.494
     2.4049     59.776
     2.4063     79.768
     2.4068     139.76
     2.4068     202.61
     2.4073      322.6
     2.4078     539.73
     2.4082      588.3
     2.4092     645.43
     2.4105     588.28
      2.411     525.43
     2.4119     328.29
     2.4142     159.72
     2.4151     108.29
     2.4179      56.85
     2.4202     56.838
     2.4216     53.973
     2.4239     42.533
     2.4271     62.515
     2.4276     42.513
     2.4304     33.928
     2.4318     39.634
     2.4332     59.625
     2.4346     56.761
     2.4373     42.461
     2.4396     36.735
      2.441     48.155
     2.4429     51.003
     2.4452     56.704
     2.4471     48.123
      2.448     45.261
     2.4498     56.679
     2.4517     36.671
     2.4535     48.089
     2.4549     45.224
     2.4572      56.64
     2.4609     30.907
     2.4623     33.757
     2.4642      30.89
     2.4656     36.596
     2.4665     39.448
     2.4684     28.011
     2.4707     36.569
     2.4721     39.419
     2.4735     36.554
     2.4753     50.829
     2.4762     79.394
     2.4781     82.241
     2.4795     70.806
     2.4809     33.658
     2.4827     25.077
      2.485     45.063
     2.4855     70.773
     2.4869     79.337
     2.4883       87.9
     2.4901     65.035
     2.4911     47.888
      2.492     45.026
     2.4938     33.588
     2.4957     30.722
     2.4966     36.431
     2.4989     39.275
     2.5008     19.267
     2.5026     19.257
      2.504     16.392
     2.5063      16.38
     2.5082     13.513
       2.51     10.646
     2.5124     36.346
     2.5133     76.339
     2.5138     127.76
     2.5156     199.18
      2.517     187.74
     2.5189     173.45
     2.5198     127.73
     2.5212     96.295
     2.5216     76.294
      2.523     53.431
     2.5253     19.135
     2.5272     19.125
      2.529     10.545
     2.5309     7.6778
     2.5341     16.231
     2.5355     30.509
     2.5364     47.646
     2.5374     184.77
     2.5383     333.33
     2.5384     539.03
     2.5398     599.02
      2.542     430.45
     2.5439      207.6
     2.5443     130.46
     2.5462     64.735
     2.5471     47.589
     2.5485     33.296
     2.5503     21.859
     2.5526     13.275
     2.5545     13.265
     2.5568     18.967
     2.5591     18.955
     2.5614     16.085
     2.5628     4.6501
     2.5642     7.4996
     2.5651     7.4946
      2.567     24.626
     2.5689     41.758
     2.5693     56.041
     2.5703     76.034
     2.5721      61.74
     2.5744     36.015
     2.5763      21.72
      2.579     4.5634
     2.5809     7.4105
     2.5827     13.114
     2.5841     15.964
     2.5865     18.809
     2.5892     27.365
     2.5915     33.066
     2.5943     38.765
     2.5957     50.186
     2.5971     75.891
     2.5985     118.74
     2.5994     144.45
     2.5999      127.3
     2.6008     101.58
     2.6022     75.864
     2.6031      55.86
     2.6036     72.999
     2.6054      81.56
     2.6073     72.979
     2.6078     58.692
     2.6096     58.682
     2.6115     55.815
     2.6129     47.237
     2.6142     44.373
     2.6152     58.652
     2.6152      70.08
     2.6184      72.92
     2.6193     44.345
     2.6212     55.763
      2.623     55.753
     2.6244     47.175
     2.6258     67.166
     2.6277     47.158
     2.6295     50.005
     2.6309     55.711
     2.6332     38.557
     2.6342     44.266
      2.636     61.398
     2.6383     58.529
     2.6397      49.95
     2.6406     61.373
     2.6434     52.788
     2.6457      67.06
     2.6462     81.342
     2.6476      109.9
      2.649     147.04
     2.6504     169.89
     2.6518     215.59
     2.6527     229.87
     2.6536     209.87
     2.6564     132.71
     2.6587     64.134
     2.6615     24.121
     2.6638     24.109
     2.6661     18.383
     2.6689     58.365
     2.6698     81.216
     2.6703     98.355
     2.6721     118.34
     2.6749     69.761
     2.6758     49.757
     2.6777     35.463
     2.6791     24.027
     2.6805     32.591
     2.6814     46.871
     2.6828     66.862
     2.6833     112.57
     2.6847     221.13
     2.6855     293.87
     2.6865     222.27
     2.6885     167.85
     2.6895     122.02
       2.69     90.516
     2.6915     76.189
      2.693     79.044
     2.6956     53.256
     2.6986      16.01
     2.6996     16.004
     2.7012     27.451
     2.7027     18.851
     2.7057     7.3788
     2.7083     10.228
     2.7103     7.3531
     2.7134     15.927
     2.7149     7.3274
     2.7169     21.635
     2.7179     7.3103
     2.7195     18.757
      2.721     10.157
     2.7235     10.143
     2.7255     12.995
     2.7281     15.845
     2.7291      24.43
     2.7301     15.833
     2.7322     24.413
     2.7347     21.535
     2.7372     30.112
     2.7393     47.283
     2.7403      64.46
     2.7408     81.639
     2.7418     104.54
     2.7454     75.886
     2.7469     61.559
     2.7484     50.095
     2.7504     50.084
      2.753     32.887
     2.7555     21.418
     2.7581      18.54
     2.7616     21.384
     2.7627     41.419
     2.7637     67.181
     2.7647     207.51
     2.7657     367.87
     2.7658     479.56
     2.7668     631.33
     2.7698     385.03
     2.7703     276.21
     2.7723     184.56
     2.7738     138.73
     2.7743      72.86
     2.7764     44.211
     2.7779     35.611
     2.7794     27.011
     2.7809     18.412
     2.7835      12.67
     2.7855     15.522
     2.7885     24.096
     2.7906     32.676
     2.7931     21.207
     2.7957     15.465
     2.7992     18.309
     2.8017     18.295
     2.8058     18.272
     2.8099     15.385
     2.8124     15.371
     2.8145     21.087
      2.816     32.534
      2.818     32.522
     2.8211     32.505
     2.8231     32.494
     2.8251     58.256
     2.8287      38.19
     2.8307      23.86
     2.8327     29.576
     2.8348     35.292
     2.8373     46.732
     2.8383     52.454
     2.8393     35.266
     2.8419     26.661
     2.8434     23.788
     2.8459      20.91
      2.848     20.899
       2.85     35.206
     2.8526     29.464
     2.8551      29.45
     2.8581     15.114
     2.8597     23.697
     2.8612     23.688
     2.8627     12.225
     2.8642     35.126
     2.8658     63.755
     2.8663     80.935
     2.8678     69.471
     2.8708     37.953
     2.8724     23.626
     2.8744     35.069
     2.8754     49.382
     2.8774     57.962
     2.8795     63.678
       2.88      52.22
     2.8815     40.757
     2.8825      32.16
     2.8846     26.421
     2.8866     35.001
     2.8886     26.398
     2.8896     23.529
     2.8917     34.972
     2.8942      29.23
     2.8973     34.941
     2.8993     34.929
     2.9023     34.912
     2.9059     26.301
     2.9074     43.475
     2.9095     49.191
     2.9115     52.044
      2.914     40.574
     2.9156     72.067
     2.9181     94.963
     2.9191     52.001
     2.9211     31.943
     2.9232     51.978
     2.9237     31.929
     2.9257      26.19
     2.9282     31.903
     2.9303     40.483
     2.9323     29.017
     2.9348     26.139
     2.9359     20.405
     2.9379     34.713
     2.9399      26.11
     2.9425     23.232
      2.946     23.212
     2.9486     31.789
     2.9501     20.325
     2.9521     20.314
     2.9547     31.755
     2.9567     23.152
     2.9587     17.413
     2.9597     31.726
     2.9623     40.303
     2.9633     28.843
     2.9658     31.692
     2.9669     28.823
     2.9684     45.997
     2.9699     45.988
     2.9709     43.119
     2.9724       20.2
      2.976     28.771
     2.9785     37.348
     2.9821     14.418
     2.9841     11.543
     2.9867     14.393
     2.9897      25.83
     2.9923     20.089
     2.9953     48.709
     2.9963     77.341
     2.9974      206.2
     2.9979     349.39
     2.9984     415.25
     3.0014     217.64
     3.0024     146.04
      3.004     100.21
      3.005     71.565
     3.0065     54.374
     3.0085     31.452
     3.0105     42.896
     3.0121     54.342
     3.0131     65.792
     3.0141     131.65
     3.0146     188.92
     3.0152     289.15
     3.0172     369.33
     3.0187     300.59
     3.0197     243.31
     3.0212     148.79
     3.0223     88.645
     3.0232      54.28
     3.0258     34.219
     3.0278      28.48
     3.0304      31.33
     3.0329     28.452
     3.0359     25.571
      3.038     19.832
     3.0405      14.09
     3.0431     19.803
     3.0466     28.375
     3.0481     22.639
     3.0502     28.355
     3.0522     31.207
     3.0542     34.059
     3.0563     19.729
     3.0578     22.584
     3.0603      22.57
     3.0613     44.438
     3.0654     32.892
      3.069     44.267
      3.072     90.018
     3.0741     250.34
     3.0746     502.34
     3.0751     731.43
     3.0766     845.95
     3.0776     536.64
     3.0786     376.25
     3.0812     261.64
     3.0837     169.94
     3.0862     135.52
     3.0883     89.653
     3.0903     32.333
     3.0939     32.253
     3.0969     55.094
     3.0994     77.947
      3.103     77.867
     3.1086     54.832
     3.1121     54.752
     3.1157     77.582
     3.1167     123.38
     3.1183     318.08
     3.1188     524.26
     3.1208     696.04
     3.1233     421.06
     3.1238     363.77
     3.1254     237.74
     3.1269     123.15
     3.1289      88.74
     3.1314     88.683
      3.133     168.83
     3.1345     260.44
     3.1345     352.08
     3.1366     695.68
     3.1376     512.38
     3.1386     351.99
     3.1401     180.13
     3.1416     122.82
     3.1436     54.045
     3.1462     42.532
     3.1487     42.475
     3.1518     42.407
     3.1553     42.327
     3.1584     30.804
     3.1635     7.7795
     3.1665     76.441
     3.1696      145.1
     3.1716     99.237
     3.1767     53.303
     3.1807     41.757
     3.1848      53.12
     3.1878     110.33
     3.1894     179.02
     3.1904     247.73
     3.1914     304.98
     3.1929     270.58
      3.197     430.86
      3.198     648.48
      3.199     854.65
     3.2001     992.09
     3.2016 1.0722E+03
     3.2036     808.73
     3.2056     556.67
     3.2082     499.34
     3.2087     545.15
     3.2097      602.4
     3.2112     968.93
     3.2123 1.4844E+03
     3.2133 1.7593E+03
     3.2138 1.4958E+03
     3.2158 1.2094E+03
     3.2163 1.0834E+03
     3.2184     968.77
     3.2184     865.67
     3.2194     625.09
     3.2199     521.99
     3.2214     384.49
     3.2214     247.03
     3.2229      143.9
     3.2249     75.129
      3.227     52.173
     3.2295     40.661
ENDDATA            927
ENDSUBENT          949
SUBENT        F0954004   20120125   20120702   20120702       F045
BIB                  6         12
REACTION   (19-K-39(P,A)18-AR-36,PAR,DA,,REL)
DETECTOR   Semiconductor detectors with the thicknesses of 20
           mu-m and 300 mu-m (active area of 25 mm2) were used
           separately and as a dE-E counter telescope.
           (TELES) System has been used to reduce the background
           arising from proton pile-up. Detectors were placed at
           a distance of 8.5 cm from the target.
METHOD     (EDE)
MISC-COL   (MISC)    Initial abscissa data are given in cos**2.
ERR-ANALYS (MISC-ERR-D) Miscellaneous digitizing error
           (DATA-ERR)   Error from the graphic bars
STATUS     (CURVE) Fig.6
ENDBIB              12
COMMON               3          3
E-LVL      MISC-ERR-D ERR-DIG
MEV        NO-DIM     ARB-UNITS
 0.         0.003       4.292
ENDCOMMON            3
DATA                 5         56
EN         COS        MISC       DATA       DATA-ERR
MEV        NO-DIM     NO-DIM     ARB-UNITS  ARB-UNITS
      1.846 5.2493E-02 2.7555E-03     681.22     47.137
      1.846    0.38114    0.14527     531.08     47.181
      1.846    0.59222    0.35073     790.95     40.359
      1.846    0.78081    0.60966 1.2589E+03     60.604
      1.846    0.86347    0.74558 1.4456E+03     47.181
      1.846      0.908    0.82446 1.3435E+03     47.137
      1.846    0.97778    0.95605 1.2138E+03     40.359
      2.059 5.3030E-02 2.8122E-03     548.81     47.134
      2.059     0.3779    0.14281     660.93     47.134
      2.059    0.59104    0.34933     792.14     47.078
      2.059    0.77864    0.60628 1.0706E+03     53.867
      2.059    0.86398    0.74647 1.2299E+03     33.667
      2.059    0.90724    0.82309 1.2825E+03     40.345
      2.059    0.97952    0.95946 1.3206E+03     53.867
      2.158 3.3240E-02 1.1049E-03     790.52     27.025
      2.158     0.3815    0.14554     786.09     30.403
      2.158     0.5975    0.35701     517.69     43.892
      2.158    0.78366    0.61412     580.03     37.159
      2.158    0.86831    0.75396     555.38     43.916
      2.158    0.91489    0.83703     517.63      37.16
      2.158    0.98202    0.96436     611.31     43.916
      2.272 6.4361E-02 4.1423E-03     675.68     30.392
      2.272    0.37177    0.13821     928.51     37.161
      2.272    0.59081    0.34906 1.0189E+03     37.149
      2.272    0.77823    0.60564 1.0180E+03     43.905
      2.272     0.8623    0.74356     949.88     47.284
      2.272    0.90846     0.8253     811.06     30.405
      2.272    0.97953    0.95947     614.61      40.54
      2.354 6.1841E-02 3.8243E-03     530.39      30.37
      2.354    0.38901    0.15133     695.16     30.387
      2.354    0.59811    0.35774     643.41     33.783
      2.354    0.78168    0.61103     635.33     30.422
      2.354    0.86857    0.75441     644.72     33.783
      2.354    0.91152    0.83086      600.4     40.557
      2.354    0.98203    0.96439     640.24     33.783
      2.475 1.8365E-02 3.3726E-04 1.1543E+03     50.302
      2.475    0.38085    0.14505     928.24     50.331
      2.475    0.59872    0.35847     738.44     43.592
      2.475     0.7832     0.6134      447.6     40.265
      2.475    0.86717    0.75199     268.53      43.62
      2.475     0.9124    0.83247     153.73     43.592
      2.475    0.98057    0.96151     1.5876     20.104
      2.539 5.8689E-03 3.4444E-05 1.9909E+03     67.504
      2.539    0.37292    0.13907 1.8872E+03     54.106
      2.539    0.58991    0.34799 1.7958E+03     67.562
      2.539     0.7769    0.60357 1.7373E+03     60.748
      2.539     0.8659    0.74979 1.7483E+03     54.049
      2.539     0.9068    0.82229 1.6052E+03     60.805
      2.539    0.97382    0.94833 1.5557E+03     53.992
      2.875 6.4317E-02 4.1367E-03     525.78     26.918
      2.875    0.38356    0.14712     454.36     30.301
      2.875    0.60186    0.36224     483.58     30.269
      2.875    0.78169    0.61104     748.31     33.668
      2.875    0.86714    0.75194     926.05     30.285
      2.875     0.9082    0.82482 1.1849E+03     37.035
      2.875    0.97603    0.95263 1.3493E+03     40.418
ENDDATA             58
ENDSUBENT           79
SUBENT        F0954005   20110821   20111215   20111123       F042
BIB                  6         11
REACTION   (19-K-39(P,EL)19-K-39,,DA,,REL)
DETECTOR   Semiconductor detectors with the thicknesses of 20
           mu-m and 300 mu-m (active area of 25 mm2) were used
           separately and as a dE-E counter telescope.
           (TELES) System has been used to reduce the background
           arising from proton pile-up. Detectors were placed at
           a distance of 8.5 cm from the target.
METHOD     (EDE)
ERR-ANALYS (EN-ERR-DIG) Energy digitizing error
STATUS     (CURVE) Fig.8-13
HISTORY    (20110821A) SD: Units of energy changed (MEV -> KEV).
ENDBIB              11
COMMON               2          3
EN-ERR-DIG ERR-DIG
MEV        ARB-UNITS
 0.014      0.001
ENDCOMMON            3
DATA                 3       2319
ANG        EN         DATA
ADEG       KEV        ARB-UNITS
        89. 1.3006E+03    0.36098
        89. 1.3009E+03    0.36194
        89. 1.3013E+03    0.36157
        89. 1.3015E+03    0.36288
        89. 1.3018E+03     0.3607
        89. 1.3022E+03    0.36069
        89. 1.3024E+03    0.36081
        89. 1.3027E+03     0.3614
        89. 1.3030E+03    0.36018
        89. 1.3034E+03    0.36126
        89. 1.3036E+03     0.3586
        89. 1.3039E+03    0.35847
        89. 1.3042E+03    0.36075
        89. 1.3046E+03    0.35869
        89. 1.3049E+03    0.35928
        89. 1.3051E+03    0.35976
        89. 1.3054E+03    0.35915
        89. 1.3057E+03    0.36034
        89. 1.3061E+03    0.35985
        89. 1.3063E+03    0.36105
        89. 1.3066E+03    0.36104
        89. 1.3069E+03    0.35994
        89. 1.3072E+03    0.35885
        89. 1.3076E+03    0.36064
        89. 1.3079E+03    0.36039
        89. 1.3081E+03    0.36171
        89. 1.3084E+03    0.36122
        89. 1.3087E+03    0.35964
        89. 1.3091E+03    0.35855
        89. 1.3093E+03    0.36023
        89. 1.3097E+03    0.35997
        89. 1.3099E+03    0.35948
        89. 1.3102E+03    0.35767
        89. 1.3105E+03    0.35983
        89. 1.3109E+03    0.35704
        89. 1.3110E+03    0.35764
        89. 1.3114E+03    0.35787
        89. 1.3118E+03     0.3569
        89. 1.3120E+03    0.35496
        89. 1.3122E+03    0.35435
        89. 1.3125E+03    0.35615
        89. 1.3679E+03    0.19013
        89. 1.3683E+03    0.19036
        89. 1.3686E+03    0.18718
        89. 1.3690E+03    0.18847
        89. 1.3693E+03    0.19022
        89. 1.3696E+03    0.18881
        89. 1.3699E+03    0.18868
        89. 1.3703E+03    0.18832
        89. 1.3706E+03    0.18808
        89. 1.3709E+03    0.18761
        89. 1.3712E+03    0.18607
        89. 1.3715E+03    0.18736
        89. 1.3719E+03    0.18747
        89. 1.3723E+03    0.18899
        89. 1.3726E+03    0.18793
        89. 1.3729E+03     0.1898
        89. 1.3732E+03     0.1885
        89. 1.3737E+03    0.19097
        89. 1.3739E+03    0.18943
        89. 1.3743E+03     0.1906
        89. 1.3745E+03    0.19001
        89. 1.3749E+03    0.18883
        89. 1.3753E+03    0.18917
        89. 1.3755E+03    0.18823
        89. 1.3759E+03    0.18787
        89. 1.3763E+03    0.18798
        89. 1.3766E+03    0.18809
        89. 1.3768E+03    0.18656
        89. 1.3773E+03    0.18619
        89. 2.0824E+03    0.25008
        89. 2.0829E+03    0.25119
        89. 2.0833E+03    0.24992
        89. 2.0837E+03    0.25047
        89. 2.0841E+03    0.25045
        89. 2.0845E+03    0.24986
        89. 2.0849E+03    0.25019
        89. 2.0852E+03    0.24903
        89. 2.0856E+03    0.25106
        89. 2.0860E+03    0.24968
        89. 2.0864E+03    0.25034
        89. 2.0867E+03    0.25214
        89. 2.0871E+03    0.25087
        89. 2.0876E+03    0.25221
        89. 2.0879E+03    0.25242
        89. 2.0882E+03    0.25445
        89. 2.0886E+03    0.25614
        89. 2.0891E+03    0.25714
        89. 2.0894E+03    0.25894
        89. 2.0898E+03    0.25949
        89. 2.0902E+03    0.26208
        89. 2.0906E+03    0.26195
        89. 2.0909E+03    0.26103
        89. 2.0913E+03    0.26248
        89. 2.0918E+03    0.26201
        89. 2.0921E+03    0.26199
        89. 2.0925E+03    0.26004
        89. 2.0929E+03    0.26002
        89. 2.0932E+03    0.26239
        89. 2.0936E+03    0.26203
        89. 2.0940E+03    0.26155
        89. 2.0944E+03    0.26063
        89. 2.0947E+03    0.26004
        89. 2.0952E+03    0.25945
        89. 2.0956E+03    0.25829
        89. 2.0959E+03    0.25862
        89. 2.0963E+03    0.25678
        89. 2.0967E+03    0.25631
        89. 2.0970E+03    0.25515
        89. 2.0975E+03    0.25456
        89. 2.0978E+03    0.25364
        89. 2.0983E+03    0.25214
        89. 2.0985E+03    0.25235
        89. 2.0989E+03    0.25176
        89. 2.0993E+03    0.25015
        89. 2.0997E+03     0.2499
        89. 2.1001E+03       0.25
        89. 2.1005E+03    0.24998
        89. 2.1009E+03    0.24973
        89. 2.3821E+03    0.23692
        89. 2.3826E+03    0.23781
        89. 2.3829E+03    0.23722
        89. 2.3833E+03    0.23673
        89. 2.3837E+03    0.23786
        89. 2.3841E+03     0.2368
        89. 2.3845E+03    0.23712
        89. 2.3850E+03    0.23595
        89. 2.3854E+03    0.23581
        89. 2.3858E+03    0.23486
        89. 2.3861E+03    0.23657
        89. 2.3866E+03    0.23482
        89. 2.3869E+03    0.23468
        89. 2.3873E+03    0.23328
        89. 2.3878E+03     0.2352
        89. 2.3881E+03    0.23392
        89. 2.3885E+03    0.23436
        89. 2.3890E+03    0.23306
        89. 2.3894E+03     0.2289
        89. 2.3897E+03    0.22693
        89. 2.3901E+03    0.22541
        89. 2.3906E+03    0.22412
        89. 2.3909E+03    0.22686
        89. 2.3913E+03    0.22798
        89. 2.3917E+03    0.22842
        89. 2.3923E+03    0.22954
        89. 2.3926E+03    0.23124
        89. 2.3929E+03    0.23053
        89. 2.3933E+03    0.23223
        89. 2.3938E+03    0.23416
        89. 2.3942E+03    0.23379
        89. 2.4713E+03    0.65419
        89. 2.4718E+03    0.65441
        89. 2.4721E+03    0.65271
        89. 2.4726E+03    0.65161
        89. 2.4730E+03     0.6522
        89. 2.4735E+03    0.65109
        89. 2.4738E+03    0.65133
        89. 2.4743E+03    0.65276
        89. 2.4747E+03    0.65129
        89. 2.4751E+03    0.65056
        89. 2.4755E+03    0.65175
        89. 2.4759E+03    0.65366
        89. 2.4763E+03    0.65341
        89. 2.4767E+03    0.65725
        89. 2.4772E+03    0.65675
        89. 2.4776E+03    0.65685
        89. 2.4780E+03    0.65865
        89. 2.4784E+03    0.65646
        89. 2.4788E+03      0.655
        89. 2.4793E+03    0.65486
        89. 2.4797E+03     0.6534
        89. 2.4801E+03    0.65279
        89. 2.4805E+03    0.65096
        89. 2.4810E+03    0.64926
        89. 2.4813E+03    0.64961
        89. 2.4817E+03     0.6473
        89. 2.4821E+03    0.64693
        89. 2.4826E+03    0.64812
        89. 2.4830E+03    0.64738
        89. 2.4834E+03    0.64773
        89. 2.4838E+03    0.64723
        89. 2.4842E+03    0.64721
        89. 2.5438E+03    0.15516
        89. 2.5447E+03    0.15506
        89. 2.5456E+03    0.15345
        89. 2.5464E+03    0.15266
        89. 2.5473E+03    0.15209
        89. 2.5481E+03    0.15118
        89. 2.5488E+03    0.15072
        89. 2.5500E+03    0.15005
        89. 2.5507E+03    0.14925
        89. 2.5515E+03    0.15076
        89. 2.5524E+03    0.15089
        89. 2.5533E+03    0.15217
        89. 2.5542E+03    0.15381
        89. 2.5551E+03    0.15636
        89. 2.5558E+03    0.15995
        89. 2.5567E+03    0.16135
        89. 2.5577E+03    0.16171
        89. 2.5585E+03    0.16103
        89. 2.5594E+03    0.15862
        89. 2.5603E+03    0.15701
        89. 2.5610E+03    0.15459
        89. 2.5620E+03    0.15461
        89. 2.5628E+03    0.15231
        89. 2.5638E+03    0.15094
        89. 2.5645E+03    0.14794
        89. 2.5654E+03    0.14668
        89. 2.5662E+03    0.14565
        89. 2.5672E+03    0.14532
        89. 2.5681E+03    0.14348
        89. 2.7251E+03 4.5860E-02
        89. 2.7260E+03 4.5528E-02
        89. 2.7269E+03 4.5533E-02
        89. 2.7278E+03 4.4414E-02
        89. 2.7287E+03 4.3857E-02
        89. 2.7295E+03 4.4199E-02
        89. 2.7302E+03 4.4989E-02
        89. 2.7311E+03 4.4094E-02
        89. 2.7320E+03 4.4773E-02
        89. 2.7328E+03 4.4103E-02
        89. 2.7337E+03 4.3547E-02
        89. 2.7344E+03 4.3213E-02
        89. 2.7354E+03 4.4005E-02
        89. 2.7362E+03 4.5021E-02
        89. 2.7372E+03 4.7272E-02
        89. 2.7380E+03 4.7726E-02
        89. 2.7388E+03 4.8517E-02
        89. 2.7396E+03 4.8746E-02
        89. 2.7407E+03 4.8302E-02
        89. 2.7414E+03 4.8081E-02
        89. 2.7422E+03 4.6175E-02
        89. 2.7430E+03 4.4831E-02
        89. 2.7439E+03 4.3601E-02
        89. 2.7449E+03 4.2145E-02
        89. 2.7456E+03 4.0689E-02
        89. 2.8499E+03    0.33912
        89. 2.8504E+03    0.33864
        89. 2.8508E+03    0.33933
        89. 2.8512E+03    0.33885
        89. 2.8516E+03    0.33789
        89. 2.8520E+03    0.33906
        89. 2.8525E+03    0.33775
        89. 2.8531E+03    0.34091
        89. 2.8535E+03    0.34148
        89. 2.8539E+03    0.34006
        89. 2.8544E+03    0.33863
        89. 2.8548E+03    0.34086
        89. 2.8552E+03    0.34108
        89. 2.8557E+03    0.34271
        89. 2.8563E+03    0.34387
        89. 2.8566E+03    0.34269
        89. 2.8572E+03     0.3429
        89. 2.8575E+03    0.34395
        89. 2.8581E+03    0.34288
        89. 2.8584E+03    0.34346
        89. 2.8589E+03    0.34226
        89. 2.8594E+03    0.34213
        89. 2.8598E+03    0.34153
        89. 2.8602E+03    0.34128
        89. 2.8607E+03    0.34044
        89. 2.8611E+03    0.33996
        89. 2.8617E+03    0.33983
        89. 2.8620E+03    0.34005
        89. 2.8625E+03    0.33827
        89. 2.8630E+03    0.33755
        89. 2.8634E+03    0.33837
        89. 2.8639E+03    0.33788
        89. 2.8643E+03    0.33798
        89. 2.8648E+03    0.33644
        89. 2.8653E+03     0.3369
        89. 2.8657E+03    0.33571
        89. 2.8662E+03    0.33511
        89. 2.8666E+03    0.33439
        89. 2.8671E+03    0.33378
        89. 2.8676E+03    0.33353
        89. 2.8680E+03    0.33246
       110. 1.0977E+03    0.44957
       110. 1.0980E+03    0.43019
       110. 1.0983E+03    0.43642
       110. 1.0986E+03    0.43345
       110. 1.0989E+03    0.43051
       110. 1.0992E+03    0.43094
       110. 1.0994E+03    0.42364
       110. 1.0997E+03    0.42746
       110. 1.0999E+03    0.43127
       110. 1.1002E+03    0.42493
       110. 1.1005E+03    0.43115
       110. 1.1009E+03    0.43012
       110. 1.1010E+03    0.41656
       110. 1.1014E+03    0.42905
       110. 1.1017E+03    0.41595
       110. 1.1019E+03    0.41252
       110. 1.1022E+03    0.42308
       110. 1.1025E+03    0.41578
       110. 1.1027E+03    0.41767
       110. 1.1031E+03    0.40988
       110. 1.1032E+03    0.41226
       110. 1.1036E+03     0.4088
       110. 1.1038E+03    0.41746
       110. 1.1042E+03    0.41932
       110. 1.1044E+03    0.40961
       110. 1.1047E+03    0.41825
       110. 1.1049E+03    0.42062
       110. 1.1053E+03    0.42876
       110. 1.1055E+03     0.4176
       110. 1.1058E+03     0.4272
       110. 1.1061E+03     0.4146
       110. 1.1064E+03    0.42226
       110. 1.1066E+03    0.41546
       110. 1.1069E+03     0.4154
       110. 1.1073E+03    0.42064
       110. 1.1075E+03    0.41383
       110. 1.1077E+03    0.41571
       110. 1.1081E+03    0.42483
       110. 1.1083E+03    0.41753
       110. 1.1086E+03    0.42182
       110. 1.3005E+03    0.19772
       110. 1.3008E+03    0.19794
       110. 1.3012E+03    0.19734
       110. 1.3015E+03    0.19781
       110. 1.3018E+03    0.19637
       110. 1.3020E+03     0.1966
       110. 1.3023E+03    0.19623
       110. 1.3026E+03    0.19717
       110. 1.3029E+03    0.19645
       110. 1.3033E+03    0.19691
       110. 1.3036E+03    0.19619
       110. 1.3038E+03    0.19594
       110. 1.3042E+03    0.19593
       110. 1.3044E+03    0.19616
       110. 1.3047E+03    0.19651
       110. 1.3051E+03    0.19555
       110. 1.3054E+03    0.19554
       110. 1.3056E+03     0.1947
       110. 1.3059E+03    0.19469
       110. 1.3063E+03    0.19503
       110. 1.3065E+03    0.19443
       110. 1.3068E+03    0.19263
       110. 1.3072E+03    0.19203
       110. 1.3074E+03     0.1913
       110. 1.3078E+03     0.1926
       110. 1.3081E+03    0.19199
       110. 1.3084E+03    0.19163
       110. 1.3087E+03    0.19221
       110. 1.3090E+03    0.19208
       110. 1.3093E+03    0.19065
       110. 1.3096E+03    0.19242
       110. 1.3098E+03    0.19122
       110. 1.3101E+03    0.19181
       110. 1.3104E+03    0.19144
       110. 1.3108E+03    0.19167
       110. 1.3111E+03    0.19213
       110. 1.3114E+03    0.19165
       110. 1.3117E+03    0.19188
       110. 1.3119E+03    0.19128
       110. 1.3123E+03    0.19115
       110. 1.3126E+03    0.19185
       110. 2.0826E+03 5.4317E-02
       110. 2.0830E+03 5.2720E-02
       110. 2.0833E+03 5.3826E-02
       110. 2.0838E+03 5.4357E-02
       110. 2.0841E+03 5.3552E-02
       110. 2.0845E+03 5.2856E-02
       110. 2.0849E+03 5.2157E-02
       110. 2.0853E+03 5.3253E-02
       110. 2.0857E+03 5.2445E-02
       110. 2.0860E+03 5.2199E-02
       110. 2.0864E+03 5.1726E-02
       110. 2.0868E+03 5.1815E-02
       110. 2.0872E+03 5.1456E-02
       110. 2.0875E+03 5.1096E-02
       110. 2.0879E+03 4.9838E-02
       110. 2.0883E+03 4.8915E-02
       110. 2.0887E+03 4.8780E-02
       110. 2.0891E+03 4.8755E-02
       110. 2.0895E+03 4.8281E-02
       110. 2.0898E+03 4.8038E-02
       110. 2.0902E+03 4.6666E-02
       110. 2.0905E+03 4.7770E-02
       110. 2.0910E+03 4.6729E-02
       110. 2.0914E+03 4.6820E-02
       110. 2.0917E+03 4.7586E-02
       110. 2.0921E+03 4.7112E-02
       110. 2.0925E+03 4.7652E-02
       110. 2.0928E+03 4.8306E-02
       110. 2.0932E+03 4.7723E-02
       110. 2.0935E+03 4.8374E-02
       110. 2.0940E+03 4.9131E-02
       110. 2.0944E+03 4.9219E-02
       110. 2.0948E+03 5.0319E-02
       110. 2.0952E+03 4.9733E-02
       110. 2.0956E+03 5.0945E-02
       110. 2.0960E+03 5.1933E-02
       110. 2.0964E+03 5.1120E-02
       110. 2.0967E+03 5.0538E-02
       110. 2.0971E+03 5.1189E-02
       110. 2.0975E+03 5.1618E-02
       110. 2.0979E+03 5.2601E-02
       110. 2.0982E+03 5.2807E-02
       110. 2.0986E+03 5.2897E-02
       110. 2.0990E+03 5.3773E-02
       110. 2.0994E+03 5.3072E-02
       110. 2.0998E+03 5.3384E-02
       110. 2.1002E+03 5.4596E-02
       110. 2.1006E+03 5.3788E-02
       110. 2.1009E+03 5.4555E-02
       110. 2.3821E+03     0.1668
       110. 2.3825E+03    0.16748
       110. 2.3830E+03    0.16792
       110. 2.3834E+03    0.16802
       110. 2.3838E+03    0.16778
       110. 2.3842E+03    0.16662
       110. 2.3846E+03    0.16683
       110. 2.3849E+03    0.16728
       110. 2.3854E+03      0.166
       110. 2.3858E+03    0.16645
       110. 2.3862E+03    0.16529
       110. 2.3867E+03    0.16642
       110. 2.3869E+03    0.16549
       110. 2.3874E+03    0.16491
       110. 2.3877E+03    0.16581
       110. 2.3882E+03    0.16477
       110. 2.3886E+03    0.16326
       110. 2.3889E+03    0.16095
       110. 2.3894E+03    0.15841
       110. 2.3898E+03    0.15782
       110. 2.3901E+03    0.16034
       110. 2.3905E+03    0.16067
       110. 2.3909E+03     0.1633
       110. 2.3914E+03    0.16535
       110. 2.3918E+03    0.16718
       110. 2.3922E+03    0.16797
       110. 2.3926E+03    0.16887
       110. 2.3929E+03    0.16932
       110. 2.3934E+03    0.17023
       110. 2.3938E+03     0.1709
       110. 2.3942E+03    0.17089
       125. 1.1262E+03    0.23408
       125. 1.1265E+03    0.23383
       125. 1.1268E+03     0.2333
       125. 1.1271E+03    0.23363
       125. 1.1274E+03    0.23301
       125. 1.1277E+03    0.23272
       125. 1.1280E+03    0.23271
       125. 1.1282E+03    0.23185
       125. 1.1285E+03    0.23151
       125. 1.1288E+03    0.23089
       125. 1.1291E+03    0.23112
       125. 1.1294E+03    0.23045
       125. 1.1296E+03    0.22987
       125. 1.1299E+03    0.22954
       125. 1.1302E+03    0.22953
       125. 1.1305E+03    0.22905
       125. 1.1307E+03    0.22862
       125. 1.1310E+03    0.22938
       125. 1.1314E+03    0.22899
       125. 1.1316E+03    0.22922
       125. 1.1319E+03     0.2296
       125. 1.1322E+03     0.2294
       125. 1.1324E+03    0.22902
       125. 1.1327E+03    0.23001
       125. 1.1330E+03    0.22939
       125. 1.1333E+03     0.2301
       125. 1.1336E+03    0.22966
       125. 1.1339E+03    0.23023
       125. 1.1342E+03    0.23056
       125. 1.1344E+03    0.23141
       125. 1.1347E+03    0.23107
       125. 1.1350E+03    0.23107
       125. 1.1353E+03    0.23163
       125. 1.1472E+03    0.46814
       125. 1.1475E+03    0.46764
       125. 1.1477E+03    0.46636
       125. 1.1481E+03    0.46631
       125. 1.1483E+03    0.46469
       125. 1.1486E+03    0.46306
       125. 1.1489E+03     0.4629
       125. 1.1492E+03    0.46195
       125. 1.1495E+03    0.46179
       125. 1.1497E+03    0.46052
       125. 1.1500E+03    0.46161
       125. 1.1503E+03    0.45941
       125. 1.1506E+03    0.45994
       125. 1.1509E+03    0.45842
       125. 1.1512E+03    0.45895
       125. 1.1515E+03    0.45777
       125. 1.1517E+03    0.45762
       125. 1.1520E+03    0.45712
       125. 1.1524E+03    0.45617
       125. 1.1526E+03    0.45614
       125. 1.1529E+03    0.45609
       125. 1.1531E+03    0.45493
       125. 1.1534E+03    0.45501
       125. 1.1537E+03    0.45542
       125. 1.1541E+03    0.45457
       125. 1.1543E+03    0.45579
       125. 1.1546E+03    0.45621
       125. 1.1549E+03    0.45536
       125. 1.1551E+03    0.45648
       125. 1.1555E+03    0.45654
       125. 1.1557E+03    0.45651
       125. 1.1560E+03    0.45669
       125. 1.1563E+03    0.45699
       125. 1.1566E+03     0.4565
       125. 1.1569E+03    0.45748
       125. 1.1571E+03    0.45688
       125. 1.1574E+03    0.45729
       125. 1.1577E+03    0.45861
       125. 1.1580E+03    0.45721
       125. 1.1583E+03    0.45887
       125. 1.1586E+03    0.45861
       125. 1.2326E+03 9.6726E-02
       125. 1.2329E+03 9.5970E-02
       125. 1.2332E+03 9.6142E-02
       125. 1.2335E+03 9.6218E-02
       125. 1.2337E+03 9.5465E-02
       125. 1.2341E+03 9.4567E-02
       125. 1.2344E+03 9.5153E-02
       125. 1.2347E+03 9.5509E-02
       125. 1.2351E+03 9.6139E-02
       125. 1.2353E+03 9.5524E-02
       125. 1.2356E+03 9.6204E-02
       125. 1.2360E+03 9.5771E-02
       125. 1.2363E+03 9.4043E-02
       125. 1.2365E+03 9.5696E-02
       125. 1.2368E+03 9.4477E-02
       125. 1.2372E+03 9.3811E-02
       125. 1.2375E+03 9.2826E-02
       125. 1.2378E+03 9.2763E-02
       125. 1.2381E+03 9.3629E-02
       125. 1.2384E+03 9.2873E-02
       125. 1.2387E+03 9.3875E-02
       125. 1.2390E+03 9.3167E-02
       125. 1.2393E+03 9.4214E-02
       125. 1.2396E+03 9.3552E-02
       125. 1.2399E+03 9.4002E-02
       125. 1.2402E+03 9.4079E-02
       125. 1.2406E+03 9.5449E-02
       125. 1.2409E+03 9.4554E-02
       125. 1.2411E+03 9.5052E-02
       125. 1.2415E+03 9.5219E-02
       125. 1.2418E+03 9.5111E-02
       125. 1.2421E+03 9.5375E-02
       125. 1.2424E+03 9.5081E-02
       125. 1.2427E+03 9.5530E-02
       125. 1.2430E+03 9.4772E-02
       125. 1.2433E+03 9.4943E-02
       125. 1.3680E+03 8.0187E-02
       125. 1.3683E+03 8.0380E-02
       125. 1.3686E+03 8.0133E-02
       125. 1.3689E+03 7.9886E-02
       125. 1.3692E+03 8.0178E-02
       125. 1.3695E+03 7.9196E-02
       125. 1.3700E+03 7.8703E-02
       125. 1.3703E+03 7.9632E-02
       125. 1.3706E+03 7.9238E-02
       125. 1.3710E+03 7.8990E-02
       125. 1.3713E+03 7.8792E-02
       125. 1.3716E+03 7.8839E-02
       125. 1.3719E+03 7.9131E-02
       125. 1.3720E+03 7.8395E-02
       125. 1.3723E+03 7.7560E-02
       125. 1.3726E+03 7.6725E-02
       125. 1.3730E+03 7.6673E-02
       125. 1.3733E+03 7.7308E-02
       125. 1.3737E+03 7.7698E-02
       125. 1.3739E+03 7.7353E-02
       125. 1.3742E+03 7.7989E-02
       125. 1.3746E+03 7.8476E-02
       125. 1.3750E+03 7.7689E-02
       125. 1.3753E+03 7.8178E-02
       125. 1.3755E+03 7.8813E-02
       125. 1.3759E+03 7.8419E-02
       125. 1.3763E+03 7.9495E-02
       125. 1.3766E+03 7.9395E-02
       125. 1.3770E+03 7.9882E-02
       125. 1.3772E+03 7.9489E-02
       125. 2.3822E+03    0.12282
       125. 2.3826E+03    0.12315
       125. 2.3830E+03    0.12349
       125. 2.3833E+03    0.12243
       125. 2.3838E+03    0.12322
       125. 2.3842E+03    0.12216
       125. 2.3846E+03    0.12215
       125. 2.3850E+03    0.12318
       125. 2.3853E+03    0.12131
       125. 2.3858E+03    0.12257
       125. 2.3861E+03    0.12209
       125. 2.3865E+03    0.12277
       125. 2.3869E+03    0.12159
       125. 2.3874E+03    0.12134
       125. 2.3878E+03    0.12075
       125. 2.3881E+03    0.11922
       125. 2.3886E+03    0.11816
       125. 2.3889E+03     0.1171
       125. 2.3894E+03    0.11627
       125. 2.3897E+03    0.11661
       125. 2.3902E+03    0.11961
       125. 2.3906E+03    0.12157
       125. 2.3910E+03    0.12376
       125. 2.3914E+03    0.12561
       125. 2.3919E+03    0.12652
       125. 2.3923E+03    0.12685
       125. 2.3926E+03    0.12626
       125. 2.3930E+03    0.12741
       125. 2.3934E+03    0.12786
       125. 2.3939E+03    0.12761
       125. 2.3943E+03     0.1291
       140. 1.0978E+03    0.31592
       140. 1.0980E+03    0.31547
       140. 1.0983E+03    0.31621
       140. 1.0987E+03    0.31282
       140. 1.0989E+03    0.31487
       140. 1.0992E+03    0.31428
       140. 1.0995E+03    0.31481
       140. 1.0997E+03    0.31471
       140. 1.1000E+03    0.31441
       140. 1.1004E+03    0.31328
       140. 1.1006E+03    0.31303
       140. 1.1009E+03    0.31307
       140. 1.1011E+03    0.31287
       140. 1.1015E+03    0.31184
       140. 1.1017E+03    0.31095
       140. 1.1020E+03    0.31006
       140. 1.1023E+03    0.30785
       140. 1.1026E+03    0.30525
       140. 1.1028E+03    0.30677
       140. 1.1031E+03    0.30661
       140. 1.1033E+03    0.30749
       140. 1.1033E+03    0.30911
       140. 1.1037E+03    0.30935
       140. 1.1039E+03     0.3114
       140. 1.1041E+03     0.3111
       140. 1.1045E+03    0.31095
       140. 1.1047E+03    0.31163
       140. 1.1049E+03    0.31217
       140. 1.1053E+03    0.31368
       140. 1.1055E+03     0.3148
       140. 1.1058E+03    0.31235
       140. 1.1060E+03    0.31293
       140. 1.1064E+03    0.31356
       140. 1.1067E+03    0.31258
       140. 1.1070E+03    0.31252
       140. 1.1072E+03    0.31227
       140. 1.1075E+03    0.31286
       140. 1.1078E+03     0.3131
       140. 1.1081E+03     0.3126
       140. 1.1083E+03    0.31157
       140. 1.1086E+03    0.31132
       140. 1.1263E+03    0.10592
       140. 1.1265E+03    0.10509
       140. 1.1269E+03    0.10514
       140. 1.1271E+03    0.10442
       140. 1.1274E+03    0.10413
       140. 1.1277E+03    0.10437
       140. 1.1280E+03    0.10451
       140. 1.1283E+03    0.10422
       140. 1.1286E+03    0.10349
       140. 1.1288E+03    0.10364
       140. 1.1291E+03    0.10325
       140. 1.1294E+03    0.10257
       140. 1.1296E+03    0.10161
       140. 1.1300E+03    0.10281
       140. 1.1302E+03    0.10209
       140. 1.1305E+03    0.10238
       140. 1.1308E+03     0.1018
       140. 1.1311E+03    0.10238
       140. 1.1313E+03    0.10281
       140. 1.1316E+03    0.10329
       140. 1.1319E+03    0.10353
       140. 1.1322E+03    0.10368
       140. 1.1325E+03    0.10271
       140. 1.1328E+03    0.10329
       140. 1.1330E+03    0.10382
       140. 1.1333E+03    0.10459
       140. 1.1336E+03    0.10416
       140. 1.1339E+03    0.10479
       140. 1.1342E+03    0.10483
       140. 1.1344E+03    0.10503
       140. 1.1347E+03    0.10464
       140. 1.1350E+03    0.10531
       140. 1.1353E+03    0.10517
       140. 1.1471E+03    0.14011
       140. 1.1474E+03     0.1392
       140. 1.1477E+03    0.13904
       140. 1.1480E+03    0.13874
       140. 1.1483E+03    0.13877
       140. 1.1486E+03    0.13766
       140. 1.1489E+03    0.13713
       140. 1.1491E+03    0.13782
       140. 1.1494E+03    0.13653
       140. 1.1497E+03    0.13661
       140. 1.1500E+03    0.13791
       140. 1.1503E+03    0.13592
       140. 1.1506E+03    0.13547
       140. 1.1509E+03    0.13494
       140. 1.1511E+03    0.13605
       140. 1.1515E+03    0.13523
       140. 1.1517E+03    0.13583
       140. 1.1519E+03    0.13572
       140. 1.1523E+03    0.13556
       140. 1.1525E+03    0.13517
       140. 1.1528E+03    0.13459
       140. 1.1532E+03    0.13429
       140. 1.1534E+03    0.13489
       140. 1.1537E+03     0.1351
       140. 1.1540E+03    0.13471
       140. 1.1543E+03     0.1346
       140. 1.1546E+03    0.13515
       140. 1.1548E+03     0.1356
       140. 1.1552E+03    0.13558
       140. 1.1555E+03    0.13609
       140. 1.1557E+03    0.13631
       140. 1.1560E+03    0.13681
       140. 1.1563E+03    0.13731
       140. 1.1565E+03    0.13654
       140. 1.1569E+03    0.13619
       140. 1.1571E+03    0.13736
       140. 1.1575E+03    0.13691
       140. 1.1577E+03    0.13761
       140. 1.1581E+03    0.13768
       140. 1.1583E+03    0.13648
       140. 1.1585E+03    0.13803
       140. 1.2326E+03 9.4508E-02
       140. 1.2329E+03 9.3613E-02
       140. 1.2332E+03 9.4289E-02
       140. 1.2335E+03 9.3627E-02
       140. 1.2338E+03 9.3659E-02
       140. 1.2342E+03 9.2204E-02
       140. 1.2344E+03 9.2562E-02
       140. 1.2348E+03 9.3053E-02
       140. 1.2351E+03 9.3177E-02
       140. 1.2354E+03 9.2791E-02
       140. 1.2357E+03 9.2359E-02
       140. 1.2360E+03 9.2344E-02
       140. 1.2363E+03 9.1726E-02
       140. 1.2366E+03 9.1664E-02
       140. 1.2369E+03 9.0214E-02
       140. 1.2372E+03 8.9642E-02
       140. 1.2375E+03 8.9302E-02
       140. 1.2378E+03 8.9426E-02
       140. 1.2381E+03 8.9872E-02
       140. 1.2384E+03 9.1062E-02
       140. 1.2387E+03 9.1324E-02
       140. 1.2390E+03 9.1123E-02
       140. 1.2394E+03 9.2585E-02
       140. 1.2396E+03 9.2528E-02
       140. 1.2399E+03 9.2651E-02
       140. 1.2403E+03 9.3465E-02
       140. 1.2406E+03 9.2617E-02
       140. 1.2408E+03 9.4085E-02
       140. 1.2412E+03 9.3929E-02
       140. 1.2415E+03 9.4239E-02
       140. 1.2417E+03 9.4224E-02
       140. 1.2421E+03 9.4391E-02
       140. 1.2424E+03 9.3913E-02
       140. 1.2427E+03 9.4268E-02
       140. 1.2430E+03 9.4158E-02
       140. 1.2433E+03 9.4929E-02
       140. 1.3004E+03 6.3108E-02
       140. 1.3008E+03 6.2254E-02
       140. 1.3011E+03 6.2629E-02
       140. 1.3015E+03 6.2624E-02
       140. 1.3017E+03 6.2056E-02
       140. 1.3021E+03 6.2193E-02
       140. 1.3023E+03 6.2474E-02
       140. 1.3027E+03 6.1763E-02
       140. 1.3030E+03 6.1665E-02
       140. 1.3033E+03 6.1992E-02
       140. 1.3035E+03 6.2036E-02
       140. 1.3038E+03 6.2033E-02
       140. 1.3042E+03 6.1085E-02
       140. 1.3044E+03 6.1461E-02
       140. 1.3048E+03 6.1787E-02
       140. 1.3051E+03 6.1076E-02
       140. 1.3053E+03 5.9847E-02
       140. 1.3056E+03 5.9419E-02
       140. 1.3059E+03 6.0218E-02
       140. 1.3062E+03 5.9884E-02
       140. 1.3066E+03 5.9739E-02
       140. 1.3069E+03 5.9500E-02
       140. 1.3071E+03 5.9498E-02
       140. 1.3074E+03 6.0107E-02
       140. 1.3077E+03 6.0623E-02
       140. 1.3080E+03 6.1327E-02
       140. 1.3083E+03 6.1749E-02
       140. 1.3086E+03 6.2264E-02
       140. 1.3089E+03 6.3016E-02
       140. 1.3092E+03 6.2965E-02
       140. 1.3096E+03 6.3197E-02
       140. 1.3099E+03 6.3430E-02
       140. 1.3101E+03 6.3946E-02
       140. 1.3105E+03 6.3707E-02
       140. 1.3108E+03 6.4175E-02
       140. 1.3111E+03 6.4361E-02
       140. 1.3114E+03 6.4357E-02
       140. 1.3116E+03 6.4496E-02
       140. 1.3120E+03 6.4492E-02
       140. 1.3122E+03 6.4490E-02
       140. 1.3125E+03 6.4534E-02
       140. 1.3679E+03 6.1925E-02
       140. 1.3683E+03 6.1923E-02
       140. 1.3685E+03 6.1342E-02
       140. 1.3689E+03 6.1340E-02
       140. 1.3692E+03 6.0759E-02
       140. 1.3696E+03 6.0757E-02
       140. 1.3699E+03 6.1141E-02
       140. 1.3703E+03 6.0850E-02
       140. 1.3706E+03 6.0945E-02
       140. 1.3709E+03 6.0170E-02
       140. 1.3713E+03 5.9926E-02
       140. 1.3715E+03 5.9635E-02
       140. 1.3719E+03 5.9682E-02
       140. 1.3723E+03 5.7989E-02
       140. 1.3726E+03 5.7746E-02
       140. 1.3729E+03 5.8420E-02
       140. 1.3733E+03 5.8322E-02
       140. 1.3737E+03 5.9431E-02
       140. 1.3739E+03 5.9091E-02
       140. 1.3743E+03 5.9766E-02
       140. 1.3747E+03 6.1116E-02
       140. 1.3749E+03 6.0004E-02
       140. 1.3753E+03 6.1161E-02
       140. 1.3756E+03 6.0724E-02
       140. 1.3759E+03 6.2221E-02
       140. 1.3762E+03 6.2798E-02
       140. 1.3766E+03 6.2748E-02
       140. 1.3770E+03 6.2746E-02
       140. 1.3773E+03 6.2551E-02
       140. 2.0825E+03 3.6377E-02
       140. 2.0830E+03 3.6577E-02
       140. 2.0834E+03 3.6896E-02
       140. 2.0838E+03 3.6412E-02
       140. 2.0841E+03 3.6163E-02
       140. 2.0844E+03 3.5682E-02
       140. 2.0849E+03 3.5540E-02
       140. 2.0853E+03 3.5632E-02
       140. 2.0857E+03 3.5032E-02
       140. 2.0860E+03 3.4321E-02
       140. 2.0864E+03 3.3949E-02
       140. 2.0868E+03 3.3354E-02
       140. 2.0872E+03 3.2752E-02
       140. 2.0876E+03 3.2499E-02
       140. 2.0880E+03 3.2016E-02
       140. 2.0883E+03 3.0731E-02
       140. 2.0887E+03 3.0478E-02
       140. 2.0891E+03 3.0566E-02
       140. 2.0894E+03 3.0085E-02
       140. 2.0899E+03 2.9715E-02
       140. 2.0902E+03 2.9926E-02
       140. 2.0907E+03 3.0928E-02
       140. 2.0910E+03 3.0335E-02
       140. 2.0914E+03 3.0654E-02
       140. 2.0917E+03 3.1671E-02
       140. 2.0921E+03 3.2218E-02
       140. 2.0925E+03 3.2653E-02
       140. 2.0929E+03 3.3319E-02
       140. 2.0932E+03 3.3879E-02
       140. 2.0937E+03 3.4651E-02
       140. 2.0940E+03 3.4975E-02
       140. 2.0944E+03 3.5988E-02
       140. 2.0947E+03 3.7113E-02
       140. 2.0953E+03 3.7194E-02
       140. 2.0956E+03 3.7633E-02
       140. 2.0959E+03 3.8650E-02
       140. 2.0963E+03 3.8395E-02
       140. 2.0968E+03 3.8940E-02
       140. 2.0970E+03 4.0074E-02
       140. 2.0975E+03 4.0276E-02
       140. 2.0978E+03 4.0485E-02
       140. 2.0982E+03 4.1036E-02
       140. 2.0986E+03 4.1241E-02
       140. 2.0990E+03 4.1218E-02
       140. 2.0994E+03 4.1307E-02
       140. 2.0998E+03 4.1739E-02
       140. 2.1002E+03 4.2524E-02
       140. 2.1005E+03 4.2386E-02
       140. 2.1009E+03 4.1904E-02
       140. 2.3821E+03 7.4701E-02
       140. 2.3825E+03 7.5578E-02
       140. 2.3829E+03 7.4781E-02
       140. 2.3833E+03 7.4959E-02
       140. 2.3838E+03 7.4906E-02
       140. 2.3841E+03 7.4947E-02
       140. 2.3844E+03 7.4941E-02
       140. 2.3848E+03 7.4516E-02
       140. 2.3853E+03 7.4881E-02
       140. 2.3857E+03 7.4548E-02
       140. 2.3860E+03 7.4123E-02
       140. 2.3864E+03 7.4303E-02
       140. 2.3869E+03 7.4017E-02
       140. 2.3873E+03 7.3220E-02
       140. 2.3877E+03 7.2748E-02
       140. 2.3882E+03 7.2088E-02
       140. 2.3885E+03 7.1757E-02
       140. 2.3889E+03 7.0449E-02
       140. 2.3893E+03 7.1837E-02
       140. 2.3897E+03 7.2342E-02
       140. 2.3901E+03 7.3916E-02
       140. 2.3904E+03 7.5352E-02
       140. 2.3910E+03 7.6693E-02
       140. 2.3913E+03 7.8129E-02
       140. 2.3917E+03 7.9377E-02
       140. 2.3921E+03 7.9371E-02
       140. 2.3926E+03 7.9038E-02
       140. 2.3929E+03 7.9543E-02
       140. 2.3933E+03 7.9212E-02
       140. 2.3937E+03 7.9530E-02
       140. 2.3941E+03 7.9198E-02
       140. 2.4713E+03    0.14009
       140. 2.4717E+03    0.14038
       140. 2.4721E+03    0.14047
       140. 2.4724E+03    0.14095
       140. 2.4729E+03      0.141
       140. 2.4735E+03    0.14046
       140. 2.4737E+03    0.14094
       140. 2.4742E+03    0.14041
       140. 2.4747E+03    0.13924
       140. 2.4751E+03     0.1385
       140. 2.4755E+03      0.137
       140. 2.4759E+03    0.13636
       140. 2.4763E+03    0.13578
       140. 2.4767E+03    0.13621
       140. 2.4770E+03    0.13621
       140. 2.4775E+03     0.1379
       140. 2.4780E+03    0.13877
       140. 2.4784E+03    0.13925
       140. 2.4788E+03    0.14027
       140. 2.4792E+03     0.1407
       140. 2.4797E+03    0.14046
       140. 2.4801E+03    0.14137
       140. 2.4804E+03    0.14229
       140. 2.4809E+03    0.14248
       140. 2.4813E+03    0.14263
       140. 2.4816E+03    0.14301
       140. 2.4821E+03    0.14291
       140. 2.4825E+03    0.14237
       140. 2.4829E+03    0.14164
       140. 2.4834E+03    0.14159
       140. 2.4838E+03    0.14129
       140. 2.4842E+03    0.14192
       140. 2.5439E+03 9.3424E-02
       140. 2.5449E+03 9.2865E-02
       140. 2.5456E+03 9.2532E-02
       140. 2.5465E+03 9.1858E-02
       140. 2.5475E+03 9.1071E-02
       140. 2.5482E+03 8.9593E-02
       140. 2.5492E+03 8.8578E-02
       140. 2.5500E+03 8.7674E-02
       140. 2.5509E+03 8.7000E-02
       140. 2.5516E+03 8.5752E-02
       140. 2.5524E+03 8.5420E-02
       140. 2.5532E+03 8.4630E-02
       140. 2.5543E+03 8.6358E-02
       140. 2.5549E+03 8.8308E-02
       140. 2.5560E+03 9.0836E-02
       140. 2.5569E+03 9.2448E-02
       140. 2.5576E+03 9.4628E-02
       140. 2.5585E+03 9.6011E-02
       140. 2.5592E+03 9.6934E-02
       140. 2.5603E+03 9.8091E-02
       140. 2.5610E+03 9.8329E-02
       140. 2.5619E+03 9.8798E-02
       140. 2.5629E+03 9.9496E-02
       140. 2.5637E+03 9.9392E-02
       140. 2.5644E+03 9.9172E-02
       140. 2.5653E+03 9.9070E-02
       140. 2.5662E+03 9.7824E-02
       140. 2.5672E+03 9.8065E-02
       140. 2.5678E+03 9.7159E-02
       140. 2.7246E+03 3.5982E-02
       140. 2.7253E+03 3.6345E-02
       140. 2.7264E+03 3.6599E-02
       140. 2.7271E+03 3.5915E-02
       140. 2.7279E+03 3.5582E-02
       140. 2.7289E+03 3.5602E-02
       140. 2.7296E+03 3.4569E-02
       140. 2.7305E+03 3.4237E-02
       140. 2.7315E+03 3.3559E-02
       140. 2.7323E+03 3.2995E-02
       140. 2.7332E+03 3.1732E-02
       140. 2.7340E+03 3.1283E-02
       140. 2.7350E+03 3.1768E-02
       140. 2.7360E+03 3.2369E-02
       140. 2.7368E+03 3.3082E-02
       140. 2.7374E+03 3.4258E-02
       140. 2.7384E+03 3.4743E-02
       140. 2.7391E+03 3.5689E-02
       140. 2.7399E+03 3.6867E-02
       140. 2.7408E+03 3.7117E-02
       140. 2.7419E+03 3.8768E-02
       140. 2.7425E+03 3.9478E-02
       140. 2.7433E+03 3.9610E-02
       140. 2.7441E+03 3.9627E-02
       140. 2.7451E+03 3.9645E-02
       140. 2.8497E+03 8.4516E-02
       140. 2.8502E+03 8.4125E-02
       140. 2.8505E+03 8.4847E-02
       140. 2.8512E+03 8.4261E-02
       140. 2.8515E+03 8.4595E-02
       140. 2.8521E+03 8.3769E-02
       140. 2.8524E+03 8.3089E-02
       140. 2.8529E+03 8.3326E-02
       140. 2.8534E+03 8.2983E-02
       140. 2.8538E+03 8.3076E-02
       140. 2.8542E+03 8.1719E-02
       140. 2.8548E+03 8.1906E-02
       140. 2.8552E+03 8.1613E-02
       140. 2.8556E+03 8.1415E-02
       140. 2.8561E+03 8.1991E-02
       140. 2.8565E+03 8.2083E-02
       140. 2.8569E+03 8.2127E-02
       140. 2.8574E+03 8.3040E-02
       140. 2.8580E+03 8.3276E-02
       140. 2.8584E+03 8.2596E-02
       140. 2.8589E+03 8.3413E-02
       140. 2.8593E+03 8.3843E-02
       140. 2.8598E+03 8.4080E-02
       140. 2.8602E+03 8.4752E-02
       140. 2.8607E+03 8.4603E-02
       140. 2.8611E+03 8.5081E-02
       140. 2.8615E+03 8.5077E-02
       140. 2.8619E+03 8.5508E-02
       140. 2.8625E+03 8.5986E-02
       140. 2.8628E+03 8.6030E-02
       140. 2.8633E+03 8.6268E-02
       140. 2.8638E+03 8.6262E-02
       140. 2.8642E+03 8.6452E-02
       140. 2.8647E+03 8.7316E-02
       140. 2.8651E+03 8.6588E-02
       140. 2.8655E+03 8.6632E-02
       140. 2.8660E+03 8.6337E-02
       140. 2.8665E+03 8.6623E-02
       140. 2.8669E+03 8.5991E-02
       140. 2.8673E+03 8.6180E-02
       140. 2.8679E+03 8.6271E-02
       149. 1.0978E+03    0.58255
       149. 1.0981E+03    0.58092
       149. 1.0983E+03    0.58292
       149. 1.0986E+03     0.5766
       149. 1.0989E+03    0.58252
       149. 1.0991E+03    0.58156
       149. 1.0995E+03    0.57945
       149. 1.0998E+03    0.57915
       149. 1.1000E+03    0.57981
       149. 1.1003E+03    0.57588
       149. 1.1005E+03    0.57444
       149. 1.1009E+03    0.57539
       149. 1.1011E+03    0.57816
       149. 1.1014E+03    0.57461
       149. 1.1016E+03    0.57317
       149. 1.1020E+03    0.56952
       149. 1.1022E+03    0.56473
       149. 1.1026E+03    0.56204
       149. 1.1028E+03    0.56414
       149. 1.1031E+03    0.56652
       149. 1.1033E+03    0.56738
       149. 1.1037E+03    0.57187
       149. 1.1039E+03    0.57234
       149. 1.1042E+03    0.57654
       149. 1.1045E+03     0.5772
       149. 1.1047E+03    0.57385
       149. 1.1050E+03    0.57623
       149. 1.1053E+03      0.579
       149. 1.1056E+03      0.581
       149. 1.1059E+03    0.58071
       149. 1.1061E+03    0.58271
       149. 1.1065E+03    0.58213
       149. 1.1067E+03    0.58145
       149. 1.1070E+03     0.5802
       149. 1.1072E+03    0.58077
       149. 1.1076E+03    0.57932
       149. 1.1077E+03    0.57779
       149. 1.1081E+03    0.57931
       149. 1.1083E+03    0.57854
       149. 1.1086E+03    0.57661
       149. 1.1262E+03    0.15654
       149. 1.1265E+03    0.15663
       149. 1.1267E+03    0.15559
       149. 1.1270E+03    0.15558
       149. 1.1272E+03    0.15482
       149. 1.1276E+03    0.15439
       149. 1.1278E+03    0.15566
       149. 1.1282E+03    0.15457
       149. 1.1284E+03    0.15349
       149. 1.1287E+03    0.15334
       149. 1.1290E+03    0.15272
       149. 1.1293E+03     0.1514
       149. 1.1296E+03     0.1512
       149. 1.1299E+03    0.15106
       149. 1.1301E+03    0.15068
       149. 1.1304E+03    0.15161
       149. 1.1307E+03    0.15194
       149. 1.1310E+03    0.15194
       149. 1.1312E+03    0.15193
       149. 1.1316E+03    0.15259
       149. 1.1318E+03    0.15461
       149. 1.1322E+03    0.15423
       149. 1.1324E+03    0.15366
       149. 1.1327E+03    0.15531
       149. 1.1329E+03    0.15558
       149. 1.1333E+03     0.1553
       149. 1.1335E+03    0.15506
       149. 1.1338E+03      0.156
       149. 1.1342E+03    0.15519
       149. 1.1345E+03    0.15698
       149. 1.1346E+03    0.15674
       149. 1.1350E+03     0.1565
       149. 1.1353E+03    0.15677
       149. 1.1472E+03    0.19537
       149. 1.1475E+03    0.19525
       149. 1.1478E+03    0.19457
       149. 1.1480E+03    0.19409
       149. 1.1484E+03    0.19378
       149. 1.1486E+03    0.19315
       149. 1.1489E+03    0.19309
       149. 1.1491E+03    0.19321
       149. 1.1495E+03    0.19196
       149. 1.1497E+03     0.1927
       149. 1.1500E+03    0.19268
       149. 1.1503E+03    0.19276
       149. 1.1506E+03    0.19146
       149. 1.1509E+03    0.19253
       149. 1.1511E+03    0.19284
       149. 1.1514E+03    0.18995
       149. 1.1517E+03    0.19002
       149. 1.1520E+03    0.19099
       149. 1.1523E+03    0.19003
       149. 1.1526E+03    0.18888
       149. 1.1529E+03    0.18787
       149. 1.1532E+03    0.18691
       149. 1.1534E+03    0.18892
       149. 1.1537E+03     0.1881
       149. 1.1540E+03    0.18874
       149. 1.1543E+03    0.18839
       149. 1.1546E+03    0.18903
       149. 1.1549E+03     0.1908
       149. 1.1551E+03    0.19045
       149. 1.1555E+03    0.19212
       149. 1.1557E+03     0.1923
       149. 1.1560E+03     0.1929
       149. 1.1563E+03    0.19287
       149. 1.1566E+03    0.19201
       149. 1.1568E+03     0.1918
       149. 1.1572E+03    0.19263
       149. 1.1575E+03    0.19435
       149. 1.1577E+03    0.19353
       149. 1.1580E+03    0.19384
       149. 1.1583E+03    0.19411
       149. 1.1585E+03     0.1947
       149. 1.2326E+03    0.14174
       149. 1.2329E+03    0.14046
       149. 1.2332E+03    0.14073
       149. 1.2336E+03    0.13911
       149. 1.2338E+03    0.13901
       149. 1.2341E+03    0.13857
       149. 1.2345E+03    0.13799
       149. 1.2347E+03    0.13821
       149. 1.2350E+03    0.13946
       149. 1.2352E+03    0.13907
       149. 1.2356E+03    0.13882
       149. 1.2359E+03    0.13688
       149. 1.2362E+03    0.13611
       149. 1.2365E+03    0.13652
       149. 1.2368E+03    0.13364
       149. 1.2371E+03    0.13316
       149. 1.2374E+03    0.13112
       149. 1.2377E+03    0.13204
       149. 1.2381E+03    0.13414
       149. 1.2384E+03    0.13558
       149. 1.2387E+03    0.13636
       149. 1.2390E+03     0.1371
       149. 1.2393E+03    0.13836
       149. 1.2396E+03    0.13862
       149. 1.2399E+03    0.13818
       149. 1.2402E+03    0.13972
       149. 1.2405E+03    0.14045
       149. 1.2408E+03    0.14185
       149. 1.2411E+03    0.14122
       149. 1.2414E+03    0.14163
       149. 1.2417E+03    0.14124
       149. 1.2420E+03    0.14189
       149. 1.2424E+03     0.1421
       149. 1.2427E+03    0.14321
       149. 1.2430E+03    0.14193
       149. 1.2433E+03    0.14112
       149. 1.3007E+03    0.11965
       149. 1.3009E+03    0.12013
       149. 1.3011E+03    0.11965
       149. 1.3015E+03    0.12003
       149. 1.3018E+03    0.11954
       149. 1.3021E+03    0.11896
       149. 1.3024E+03    0.11944
       149. 1.3027E+03    0.11919
       149. 1.3030E+03    0.11909
       149. 1.3033E+03     0.1189
       149. 1.3035E+03    0.11909
       149. 1.3039E+03    0.11831
       149. 1.3042E+03    0.11773
       149. 1.3045E+03    0.11787
       149. 1.3048E+03    0.11728
       149. 1.3051E+03    0.11622
       149. 1.3053E+03     0.1137
       149. 1.3057E+03    0.11283
       149. 1.3060E+03    0.11292
       149. 1.3063E+03    0.11485
       149. 1.3066E+03    0.11461
       149. 1.3070E+03    0.11417
       149. 1.3072E+03    0.11349
       149. 1.3075E+03    0.11392
       149. 1.3079E+03    0.11561
       149. 1.3081E+03    0.11667
       149. 1.3084E+03     0.1184
       149. 1.3087E+03    0.11825
       149. 1.3090E+03    0.12071
       149. 1.3093E+03    0.12167
       149. 1.3095E+03    0.12153
       149. 1.3098E+03    0.12191
       149. 1.3102E+03    0.12278
       149. 1.3105E+03    0.12383
       149. 1.3108E+03    0.12417
       149. 1.3110E+03    0.12455
       149. 1.3114E+03    0.12397
       149. 1.3117E+03    0.12401
       149. 1.3120E+03    0.12444
       149. 1.3123E+03     0.1241
       149. 1.3126E+03    0.12439
       149. 1.3680E+03 9.8775E-02
       149. 1.3683E+03 9.8627E-02
       149. 1.3686E+03 9.9401E-02
       149. 1.3690E+03 9.8524E-02
       149. 1.3693E+03 9.8376E-02
       149. 1.3696E+03 9.7985E-02
       149. 1.3699E+03 9.8128E-02
       149. 1.3703E+03 9.7155E-02
       149. 1.3706E+03 9.7735E-02
       149. 1.3710E+03 9.6469E-02
       149. 1.3713E+03 9.6661E-02
       149. 1.3716E+03 9.5347E-02
       149. 1.3719E+03 9.4520E-02
       149. 1.3723E+03 9.1750E-02
       149. 1.3726E+03 9.0631E-02
       149. 1.3730E+03 9.3104E-02
       149. 1.3732E+03 9.4898E-02
       149. 1.3736E+03 9.4749E-02
       149. 1.3740E+03 9.6445E-02
       149. 1.3743E+03 9.7317E-02
       149. 1.3746E+03 9.7994E-02
       149. 1.3749E+03 9.8622E-02
       149. 1.3753E+03 9.9978E-02
       149. 1.3756E+03    0.10027
       149. 1.3759E+03    0.10153
       149. 1.3763E+03    0.10181
       149. 1.3767E+03    0.10128
       149. 1.3770E+03    0.10171
       149. 1.3773E+03    0.10118
       149. 2.0825E+03 4.6445E-02
       149. 2.0829E+03 4.5946E-02
       149. 2.0832E+03 4.5576E-02
       149. 2.0837E+03 4.5550E-02
       149. 2.0840E+03 4.5411E-02
       149. 2.0844E+03 4.5621E-02
       149. 2.0848E+03 4.3720E-02
       149. 2.0852E+03 4.4165E-02
       149. 2.0856E+03 4.3669E-02
       149. 2.0860E+03 4.3412E-02
       149. 2.0863E+03 4.1870E-02
       149. 2.0867E+03 4.1495E-02
       149. 2.0871E+03 4.0181E-02
       149. 2.0875E+03 3.9453E-02
       149. 2.0878E+03 3.8500E-02
       149. 2.0883E+03 3.7885E-02
       149. 2.0886E+03 3.7863E-02
       149. 2.0890E+03 3.7023E-02
       149. 2.0894E+03 3.6527E-02
       149. 2.0898E+03 3.6503E-02
       149. 2.0902E+03 3.7180E-02
       149. 2.0905E+03 3.8328E-02
       149. 2.0909E+03 3.8066E-02
       149. 2.0913E+03 3.9330E-02
       149. 2.0916E+03 4.0477E-02
       149. 2.0920E+03 4.1269E-02
       149. 2.0924E+03 4.2648E-02
       149. 2.0928E+03 4.4142E-02
       149. 2.0932E+03 4.5057E-02
       149. 2.0936E+03 4.6198E-02
       149. 2.0940E+03 4.8397E-02
       149. 2.0943E+03 4.8958E-02
       149. 2.0948E+03 4.9984E-02
       149. 2.0951E+03 5.0198E-02
       149. 2.0955E+03 5.1105E-02
       149. 2.0959E+03 5.2484E-02
       149. 2.0963E+03 5.2576E-02
       149. 2.0966E+03 5.3254E-02
       149. 2.0971E+03 5.4860E-02
       149. 2.0975E+03 5.4604E-02
       149. 2.0978E+03 5.5520E-02
       149. 2.0983E+03 5.5957E-02
       149. 2.0986E+03 5.7457E-02
       149. 2.0989E+03 5.7321E-02
       149. 2.0994E+03 5.7407E-02
       149. 2.0998E+03 5.8082E-02
       149. 2.1001E+03 5.7824E-02
       149. 2.1005E+03 5.8385E-02
       149. 2.1009E+03 5.8127E-02
       149. 2.3820E+03 9.6721E-02
       149. 2.3823E+03 9.7499E-02
       149. 2.3828E+03 9.6809E-02
       149. 2.3832E+03 9.7471E-02
       149. 2.3836E+03 9.6672E-02
       149. 2.3839E+03 9.6661E-02
       149. 2.3843E+03 9.6199E-02
       149. 2.3848E+03 9.7982E-02
       149. 2.3852E+03 9.7071E-02
       149. 2.3856E+03 9.6834E-02
       149. 2.3860E+03 9.6145E-02
       149. 2.3864E+03 9.6020E-02
       149. 2.3869E+03 9.5331E-02
       149. 2.3872E+03 9.4648E-02
       149. 2.3877E+03 9.4293E-02
       149. 2.3880E+03 9.2487E-02
       149. 2.3884E+03 9.2474E-02
       149. 2.3889E+03 9.1784E-02
       149. 2.3893E+03 9.3344E-02
       149. 2.3897E+03 9.4903E-02
       149. 2.3900E+03 9.7479E-02
       149. 2.3904E+03 9.8926E-02
       149. 2.3908E+03    0.10004
       149. 2.3912E+03    0.10182
       149. 2.3916E+03    0.10271
       149. 2.3921E+03    0.10348
       149. 2.3924E+03    0.10291
       149. 2.3928E+03    0.10357
       149. 2.3933E+03    0.10254
       149. 2.3937E+03    0.10286
       149. 2.3940E+03    0.10387
       149. 2.4712E+03    0.17876
       149. 2.4717E+03    0.18045
       149. 2.4721E+03    0.18021
       149. 2.4726E+03    0.18001
       149. 2.4729E+03    0.17977
       149. 2.4733E+03    0.17991
       149. 2.4738E+03    0.17962
       149. 2.4742E+03    0.17888
       149. 2.4746E+03    0.17767
       149. 2.4750E+03    0.17723
       149. 2.4754E+03    0.17533
       149. 2.4758E+03    0.17286
       149. 2.4763E+03    0.17242
       149. 2.4766E+03    0.17387
       149. 2.4771E+03     0.1745
       149. 2.4775E+03    0.17746
       149. 2.4778E+03    0.17857
       149. 2.4783E+03    0.18041
       149. 2.4787E+03    0.18002
       149. 2.4792E+03    0.18167
       149. 2.4795E+03    0.18249
       149. 2.4801E+03    0.18283
       149. 2.4803E+03    0.18414
       149. 2.4808E+03    0.18447
       149. 2.4813E+03    0.18452
       149. 2.4816E+03    0.18486
       149. 2.4820E+03    0.18437
       149. 2.4825E+03    0.18471
       149. 2.4829E+03    0.18286
       149. 2.4833E+03    0.18257
       149. 2.4835E+03    0.18208
       149. 2.4841E+03    0.18198
       149. 2.5439E+03     0.1088
       149. 2.5448E+03     0.1096
       149. 2.5458E+03    0.10826
       149. 2.5464E+03    0.10748
       149. 2.5472E+03    0.10658
       149. 2.5482E+03    0.10457
       149. 2.5492E+03    0.10243
       149. 2.5499E+03    0.10097
       149. 2.5507E+03     0.1002
       149. 2.5518E+03 9.8742E-02
       149. 2.5526E+03 9.8755E-02
       149. 2.5535E+03 9.9219E-02
       149. 2.5544E+03    0.10285
       149. 2.5548E+03    0.10602
       149. 2.5558E+03    0.10965
       149. 2.5568E+03    0.11294
       149. 2.5577E+03      0.116
       149. 2.5585E+03     0.1176
       149. 2.5592E+03    0.11919
       149. 2.5601E+03    0.11943
       149. 2.5611E+03    0.12068
       149. 2.5620E+03    0.12025
       149. 2.5628E+03    0.12071
       149. 2.5635E+03    0.12095
       149. 2.5644E+03    0.11983
       149. 2.5653E+03    0.11883
       149. 2.5662E+03    0.11805
       149. 2.5670E+03    0.11727
       149. 2.5680E+03    0.11615
       149. 2.7244E+03 4.4583E-02
       149. 2.7254E+03 4.4136E-02
       149. 2.7262E+03 4.3803E-02
       149. 2.7270E+03 4.3352E-02
       149. 2.7278E+03 4.2201E-02
       149. 2.7287E+03 4.2569E-02
       149. 2.7298E+03 4.1308E-02
       149. 2.7307E+03 3.9809E-02
       149. 2.7316E+03 3.9011E-02
       149. 2.7323E+03 3.8324E-02
       149. 2.7332E+03 3.6943E-02
       149. 2.7339E+03 3.6141E-02
       149. 2.7348E+03 3.6973E-02
       149. 2.7357E+03 3.7923E-02
       149. 2.7367E+03 4.0389E-02
       149. 2.7374E+03 4.1568E-02
       149. 2.7381E+03 4.2632E-02
       149. 2.7391E+03 4.3467E-02
       149. 2.7400E+03 4.5464E-02
       149. 2.7409E+03 4.7464E-02
       149. 2.7416E+03 4.8526E-02
       149. 2.7426E+03 4.9593E-02
       149. 2.7435E+03 5.0193E-02
       149. 2.7442E+03 5.0674E-02
       149. 2.7451E+03 5.0807E-02
       149. 2.8498E+03 8.2876E-02
       149. 2.8501E+03 8.2534E-02
       149. 2.8507E+03 8.2093E-02
       149. 2.8511E+03 8.2332E-02
       149. 2.8515E+03 8.1747E-02
       149. 2.8520E+03 8.1501E-02
       149. 2.8525E+03 8.1497E-02
       149. 2.8529E+03 8.1300E-02
       149. 2.8534E+03 8.0811E-02
       149. 2.8539E+03 8.0419E-02
       149. 2.8543E+03 8.0125E-02
       149. 2.8549E+03 7.9976E-02
       149. 2.8552E+03 7.9633E-02
       149. 2.8557E+03 7.9679E-02
       149. 2.8561E+03 7.9287E-02
       149. 2.8565E+03 7.9916E-02
       149. 2.8571E+03 8.0300E-02
       149. 2.8575E+03 8.0539E-02
       149. 2.8580E+03 8.1070E-02
       149. 2.8583E+03 8.1699E-02
       149. 2.8587E+03 8.1793E-02
       149. 2.8592E+03 8.2032E-02
       149. 2.8597E+03 8.2902E-02
       149. 2.8602E+03 8.3967E-02
       149. 2.8606E+03 8.3770E-02
       149. 2.8611E+03 8.4155E-02
       149. 2.8615E+03 8.4152E-02
       149. 2.8620E+03 8.5557E-02
       149. 2.8624E+03 8.6184E-02
       149. 2.8628E+03 8.5744E-02
       149. 2.8632E+03 8.6276E-02
       149. 2.8638E+03 8.6902E-02
       149. 2.8642E+03 8.6220E-02
       149. 2.8646E+03 8.6217E-02
       149. 2.8651E+03 8.5680E-02
       149. 2.8656E+03 8.4899E-02
       149. 2.8661E+03 8.5673E-02
       149. 2.8666E+03 8.5912E-02
       149. 2.8670E+03 8.5375E-02
       149. 2.8674E+03 8.5955E-02
       149. 2.8679E+03 8.5611E-02
       155. 1.0978E+03    0.56427
       155. 1.0981E+03     0.5622
       155. 1.0983E+03    0.56454
       155. 1.0986E+03    0.56316
       155. 1.0989E+03    0.56257
       155. 1.0991E+03    0.56129
       155. 1.0994E+03    0.56069
       155. 1.0997E+03    0.56156
       155. 1.1000E+03    0.55861
       155. 1.1002E+03    0.55723
       155. 1.1006E+03    0.55713
       155. 1.1008E+03     0.5578
       155. 1.1011E+03    0.55486
       155. 1.1014E+03    0.55514
       155. 1.1016E+03    0.54955
       155. 1.1019E+03    0.54748
       155. 1.1019E+03    0.54621
       155. 1.1022E+03    0.54482
       155. 1.1025E+03    0.54413
       155. 1.1028E+03    0.54648
       155. 1.1030E+03    0.54863
       155. 1.1033E+03    0.55332
       155. 1.1036E+03     0.5538
       155. 1.1039E+03     0.5584
       155. 1.1041E+03    0.55898
       155. 1.1044E+03    0.55731
       155. 1.1047E+03    0.55838
       155. 1.1050E+03    0.56131
       155. 1.1052E+03    0.56238
       155. 1.1056E+03    0.56316
       155. 1.1058E+03    0.56433
       155. 1.1061E+03    0.56491
       155. 1.1064E+03    0.56235
       155. 1.1066E+03    0.56372
       155. 1.1069E+03    0.56371
       155. 1.1072E+03    0.56223
       155. 1.1074E+03    0.56046
       155. 1.1077E+03    0.56388
       155. 1.1080E+03    0.56387
       155. 1.1083E+03    0.56181
       155. 1.1086E+03     0.5616
       155. 1.1262E+03    0.10632
       155. 1.1264E+03    0.10602
       155. 1.1267E+03    0.10488
       155. 1.1270E+03    0.10394
       155. 1.1273E+03    0.10403
       155. 1.1275E+03    0.10433
       155. 1.1278E+03    0.10413
       155. 1.1281E+03    0.10393
       155. 1.1284E+03    0.10427
       155. 1.1286E+03    0.10402
       155. 1.1290E+03    0.10328
       155. 1.1293E+03    0.10105
       155. 1.1295E+03    0.10075
       155. 1.1298E+03    0.10173
       155. 1.1301E+03    0.10233
       155. 1.1304E+03    0.10217
       155. 1.1307E+03    0.10143
       155. 1.1310E+03    0.10232
       155. 1.1312E+03     0.1032
       155. 1.1316E+03     0.1029
       155. 1.1318E+03    0.10507
       155. 1.1321E+03    0.10374
       155. 1.1324E+03    0.10482
       155. 1.1327E+03    0.10492
       155. 1.1329E+03    0.10457
       155. 1.1332E+03    0.10432
       155. 1.1335E+03    0.10481
       155. 1.1338E+03     0.1058
       155. 1.1340E+03     0.1054
       155. 1.1344E+03    0.10604
       155. 1.1346E+03    0.10598
       155. 1.1349E+03    0.10588
       155. 1.1352E+03    0.10637
       155. 1.1472E+03    0.17109
       155. 1.1475E+03    0.17015
       155. 1.1477E+03     0.1681
       155. 1.1481E+03      0.169
       155. 1.1483E+03    0.16695
       155. 1.1486E+03    0.16818
       155. 1.1489E+03    0.16664
       155. 1.1491E+03    0.16686
       155. 1.1495E+03    0.16661
       155. 1.1497E+03    0.16751
       155. 1.1501E+03    0.16638
       155. 1.1503E+03    0.16563
       155. 1.1507E+03    0.16584
       155. 1.1510E+03    0.16628
       155. 1.1512E+03    0.16604
       155. 1.1514E+03    0.16514
       155. 1.1517E+03    0.16467
       155. 1.1520E+03    0.16358
       155. 1.1523E+03    0.16315
       155. 1.1526E+03    0.16299
       155. 1.1528E+03    0.16229
       155. 1.1532E+03    0.16226
       155. 1.1534E+03    0.16415
       155. 1.1538E+03    0.16403
       155. 1.1541E+03     0.1642
       155. 1.1543E+03    0.16428
       155. 1.1546E+03    0.16421
       155. 1.1549E+03    0.16586
       155. 1.1552E+03    0.16575
       155. 1.1555E+03    0.16596
       155. 1.1558E+03    0.16659
       155. 1.1560E+03    0.16787
       155. 1.1563E+03    0.16674
       155. 1.1566E+03    0.16737
       155. 1.1568E+03     0.1675
       155. 1.1572E+03    0.16756
       155. 1.1575E+03    0.16893
       155. 1.1578E+03    0.16808
       155. 1.1580E+03    0.16867
       155. 1.1584E+03    0.16911
       155. 1.1586E+03     0.1685
       155. 1.2326E+03    0.11525
       155. 1.2329E+03    0.11625
       155. 1.2332E+03    0.11503
       155. 1.2335E+03    0.11405
       155. 1.2338E+03    0.11306
       155. 1.2341E+03    0.11257
       155. 1.2345E+03    0.11256
       155. 1.2348E+03    0.11338
       155. 1.2350E+03     0.1141
       155. 1.2353E+03    0.11367
       155. 1.2356E+03    0.11403
       155. 1.2360E+03    0.11197
       155. 1.2363E+03    0.11061
       155. 1.2366E+03    0.11115
       155. 1.2369E+03    0.10872
       155. 1.2372E+03    0.10718
       155. 1.2375E+03    0.10716
       155. 1.2378E+03    0.10784
       155. 1.2382E+03    0.10995
       155. 1.2384E+03    0.11106
       155. 1.2388E+03    0.11196
       155. 1.2390E+03    0.11241
       155. 1.2393E+03    0.11346
       155. 1.2396E+03    0.11275
       155. 1.2399E+03    0.11362
       155. 1.2403E+03    0.11481
       155. 1.2405E+03    0.11651
       155. 1.2408E+03    0.11635
       155. 1.2412E+03    0.11717
       155. 1.2415E+03    0.11614
       155. 1.2418E+03    0.11714
       155. 1.2420E+03    0.11643
       155. 1.2424E+03     0.1166
       155. 1.2427E+03    0.11718
       155. 1.2430E+03    0.11615
       155. 1.2433E+03    0.11576
       155. 1.3006E+03    0.10181
       155. 1.3009E+03    0.10152
       155. 1.3012E+03     0.1018
       155. 1.3015E+03    0.10151
       155. 1.3018E+03    0.10136
       155. 1.3021E+03    0.10102
       155. 1.3024E+03    0.10106
       155. 1.3028E+03     0.1012
       155. 1.3030E+03    0.10101
       155. 1.3033E+03    0.10101
       155. 1.3036E+03    0.10033
       155. 1.3039E+03    0.10003
       155. 1.3043E+03 9.9303E-02
       155. 1.3045E+03 9.9493E-02
       155. 1.3048E+03 9.8137E-02
       155. 1.3051E+03 9.7699E-02
       155. 1.3055E+03 9.5521E-02
       155. 1.3057E+03 9.4552E-02
       155. 1.3060E+03 9.4500E-02
       155. 1.3064E+03 9.5848E-02
       155. 1.3066E+03 9.6135E-02
       155. 1.3069E+03 9.6276E-02
       155. 1.3072E+03 9.5790E-02
       155. 1.3075E+03 9.7428E-02
       155. 1.3078E+03 9.8149E-02
       155. 1.3081E+03 9.9546E-02
       155. 1.3084E+03    0.10114
       155. 1.3087E+03    0.10166
       155. 1.3090E+03    0.10354
       155. 1.3094E+03    0.10364
       155. 1.3097E+03    0.10455
       155. 1.3099E+03    0.10508
       155. 1.3103E+03    0.10478
       155. 1.3105E+03    0.10536
       155. 1.3109E+03    0.10637
       155. 1.3112E+03    0.10646
       155. 1.3114E+03    0.10588
       155. 1.3117E+03    0.10636
       155. 1.3120E+03     0.1065
       155. 1.3123E+03    0.10616
       155. 1.3126E+03    0.10645
       155. 1.3679E+03 9.5539E-02
       155. 1.3683E+03 9.4751E-02
       155. 1.3686E+03 9.4502E-02
       155. 1.3689E+03 9.4891E-02
       155. 1.3692E+03 9.3859E-02
       155. 1.3695E+03 9.3659E-02
       155. 1.3698E+03 9.4686E-02
       155. 1.3702E+03 9.2719E-02
       155. 1.3705E+03 9.4090E-02
       155. 1.3708E+03 9.2517E-02
       155. 1.3712E+03 9.2513E-02
       155. 1.3716E+03 9.0890E-02
       155. 1.3719E+03 8.9513E-02
       155. 1.3722E+03 8.8186E-02
       155. 1.3725E+03 8.6121E-02
       155. 1.3729E+03 8.9650E-02
       155. 1.3732E+03 9.0285E-02
       155. 1.3735E+03 9.1361E-02
       155. 1.3739E+03 9.3368E-02
       155. 1.3742E+03 9.3856E-02
       155. 1.3746E+03 9.5274E-02
       155. 1.3749E+03 9.4585E-02
       155. 1.3752E+03 9.6249E-02
       155. 1.3755E+03 9.6933E-02
       155. 1.3758E+03 9.7616E-02
       155. 1.3762E+03 9.7956E-02
       155. 1.3766E+03 9.8099E-02
       155. 1.3769E+03 9.9077E-02
       155. 1.3772E+03 9.8191E-02
       155. 2.0825E+03 4.3614E-02
       155. 2.0828E+03 4.3707E-02
       155. 2.0832E+03 4.3682E-02
       155. 2.0837E+03 4.2515E-02
       155. 2.0841E+03 4.2832E-02
       155. 2.0844E+03 4.3271E-02
       155. 2.0848E+03 4.1765E-02
       155. 2.0852E+03 4.1965E-02
       155. 2.0855E+03 4.1375E-02
       155. 2.0859E+03 4.1692E-02
       155. 2.0863E+03 3.9505E-02
       155. 2.0867E+03 3.8910E-02
       155. 2.0871E+03 3.7515E-02
       155. 2.0875E+03 3.6238E-02
       155. 2.0879E+03 3.5304E-02
       155. 2.0883E+03 3.4590E-02
       155. 2.0887E+03 3.5253E-02
       155. 2.0890E+03 3.4661E-02
       155. 2.0894E+03 3.4294E-02
       155. 2.0898E+03 3.4729E-02
       155. 2.0902E+03 3.4704E-02
       155. 2.0906E+03 3.6618E-02
       155. 2.0910E+03 3.6477E-02
       155. 2.0914E+03 3.8280E-02
       155. 2.0917E+03 3.9287E-02
       155. 2.0920E+03 4.0180E-02
       155. 2.0925E+03 4.2091E-02
       155. 2.0928E+03 4.3096E-02
       155. 2.0932E+03 4.4782E-02
       155. 2.0937E+03 4.5209E-02
       155. 2.0939E+03 4.7702E-02
       155. 2.0944E+03 4.7671E-02
       155. 2.0948E+03 4.9813E-02
       155. 2.0951E+03 5.0825E-02
       155. 2.0955E+03 5.2165E-02
       155. 2.0960E+03 5.1910E-02
       155. 2.0963E+03 5.2915E-02
       155. 2.0967E+03 5.4486E-02
       155. 2.0971E+03 5.5033E-02
       155. 2.0974E+03 5.5810E-02
       155. 2.0978E+03 5.6585E-02
       155. 2.0982E+03 5.5762E-02
       155. 2.0986E+03 5.7109E-02
       155. 2.0989E+03 5.6974E-02
       155. 2.0994E+03 5.7859E-02
       155. 2.0997E+03 5.7952E-02
       155. 2.1001E+03 5.7815E-02
       155. 2.1005E+03 5.7676E-02
       155. 2.1009E+03 5.8218E-02
       155. 2.3821E+03 8.4234E-02
       155. 2.3826E+03 8.3635E-02
       155. 2.3830E+03 8.3491E-02
       155. 2.3833E+03 8.4212E-02
       155. 2.3838E+03 8.2839E-02
       155. 2.3841E+03 8.3014E-02
       155. 2.3846E+03 8.3006E-02
       155. 2.3850E+03 8.3226E-02
       155. 2.3854E+03 8.3626E-02
       155. 2.3857E+03 8.3257E-02
       155. 2.3861E+03 8.2659E-02
       155. 2.3866E+03 8.2149E-02
       155. 2.3870E+03 8.2141E-02
       155. 2.3873E+03 8.1317E-02
       155. 2.3878E+03 8.1080E-02
       155. 2.3882E+03 7.9710E-02
       155. 2.3886E+03 7.9703E-02
       155. 2.3890E+03 7.8603E-02
       155. 2.3894E+03 8.0686E-02
       155. 2.3898E+03 8.1542E-02
       155. 2.3901E+03 8.4626E-02
       155. 2.3905E+03 8.5892E-02
       155. 2.3910E+03 8.8109E-02
       155. 2.3914E+03 8.8918E-02
       155. 2.3918E+03 8.9320E-02
       155. 2.3923E+03 8.9537E-02
       155. 2.3927E+03 8.9030E-02
       155. 2.3931E+03 8.9523E-02
       155. 2.3936E+03 8.8968E-02
       155. 2.3939E+03 9.0053E-02
       155. 2.3943E+03 8.8909E-02
       155. 2.4714E+03    0.17224
       155. 2.4718E+03    0.17228
       155. 2.4722E+03    0.17286
       155. 2.4726E+03    0.17194
       155. 2.4730E+03    0.17218
       155. 2.4734E+03    0.17213
       155. 2.4738E+03    0.17207
       155. 2.4743E+03    0.17106
       155. 2.4747E+03    0.16961
       155. 2.4751E+03    0.16841
       155. 2.4756E+03     0.1673
       155. 2.4760E+03     0.1657
       155. 2.4765E+03    0.16556
       155. 2.4768E+03    0.16594
       155. 2.4772E+03    0.16776
       155. 2.4775E+03    0.16973
       155. 2.4779E+03    0.17137
       155. 2.4783E+03    0.17285
       155. 2.4788E+03    0.17425
       155. 2.4792E+03    0.17516
       155. 2.4794E+03    0.17612
       155. 2.4800E+03    0.17611
       155. 2.4804E+03    0.17698
       155. 2.4808E+03    0.17846
       155. 2.4813E+03    0.17793
       155. 2.4817E+03    0.17913
       155. 2.4820E+03    0.17764
       155. 2.4825E+03    0.17667
       155. 2.4829E+03    0.17546
       155. 2.4834E+03    0.17531
       155. 2.4837E+03    0.17574
       155. 2.4842E+03    0.17531
       155. 2.5440E+03     0.1049
       155. 2.5448E+03    0.10538
       155. 2.5456E+03      0.104
       155. 2.5466E+03     0.1031
       155. 2.5474E+03     0.1016
       155. 2.5481E+03    0.10011
       155. 2.5491E+03 9.8967E-02
       155. 2.5498E+03 9.7241E-02
       155. 2.5508E+03 9.7143E-02
       155. 2.5515E+03 9.4723E-02
       155. 2.5524E+03 9.4854E-02
       155. 2.5534E+03 9.6378E-02
       155. 2.5543E+03    0.10149
       155. 2.5551E+03    0.10591
       155. 2.5560E+03    0.11079
       155. 2.5567E+03      0.113
       155. 2.5578E+03    0.11592
       155. 2.5585E+03    0.11871
       155. 2.5595E+03    0.11884
       155. 2.5602E+03    0.12024
       155. 2.5612E+03    0.11968
       155. 2.5619E+03    0.12004
       155. 2.5629E+03    0.11902
       155. 2.5636E+03    0.11995
       155. 2.5647E+03    0.11766
       155. 2.5654E+03    0.11698
       155. 2.5665E+03    0.11607
       155. 2.5672E+03    0.11492
       155. 2.5679E+03    0.11389
       155. 2.7245E+03 4.2926E-02
       155. 2.7253E+03 4.2245E-02
       155. 2.7263E+03 4.2148E-02
       155. 2.7270E+03 4.1930E-02
       155. 2.7280E+03 4.1020E-02
       155. 2.7288E+03 4.0339E-02
       155. 2.7297E+03 3.9077E-02
       155. 2.7308E+03 3.7936E-02
       155. 2.7314E+03 3.7134E-02
       155. 2.7324E+03 3.6108E-02
       155. 2.7332E+03 3.5193E-02
       155. 2.7340E+03 3.4394E-02
       155. 2.7350E+03 3.4299E-02
       155. 2.7358E+03 3.6410E-02
       155. 2.7366E+03 3.8523E-02
       155. 2.7375E+03 4.0055E-02
       155. 2.7384E+03 4.1237E-02
       155. 2.7393E+03 4.2653E-02
       155. 2.7402E+03 4.3952E-02
       155. 2.7408E+03 4.6293E-02
       155. 2.7417E+03 4.8058E-02
       155. 2.7427E+03 4.8778E-02
       155. 2.7436E+03 4.9494E-02
       155. 2.7445E+03 5.0328E-02
       155. 2.7453E+03 4.9646E-02
       155. 2.8496E+03    0.11564
       155. 2.8501E+03    0.11597
       155. 2.8506E+03    0.11591
       155. 2.8511E+03    0.11572
       155. 2.8514E+03    0.11533
       155. 2.8519E+03    0.11465
       155. 2.8523E+03    0.11355
       155. 2.8529E+03    0.11373
       155. 2.8533E+03    0.11291
       155. 2.8539E+03    0.11252
       155. 2.8543E+03    0.11156
       155. 2.8545E+03    0.11122
       155. 2.8551E+03    0.11069
       155. 2.8556E+03    0.11126
       155. 2.8560E+03    0.11125
       155. 2.8565E+03    0.11149
       155. 2.8569E+03    0.11264
       155. 2.8575E+03     0.1135
       155. 2.8578E+03    0.11397
       155. 2.8583E+03    0.11517
       155. 2.8587E+03     0.1155
       155. 2.8592E+03    0.11626
       155. 2.8595E+03    0.11712
       155. 2.8602E+03    0.11702
       155. 2.8605E+03    0.11817
       155. 2.8609E+03    0.11874
       155. 2.8613E+03     0.1196
       155. 2.8618E+03    0.12007
       155. 2.8622E+03    0.12069
       155. 2.8626E+03    0.12112
       155. 2.8633E+03    0.12068
       155. 2.8637E+03    0.12178
       155. 2.8642E+03    0.12163
       155. 2.8645E+03    0.12158
       155. 2.8650E+03    0.12158
       155. 2.8654E+03    0.12153
       155. 2.8659E+03    0.12123
       155. 2.8663E+03    0.12109
       155. 2.8668E+03    0.12161
       155. 2.8672E+03    0.12127
       155. 2.8676E+03     0.1216
       168. 1.0978E+03    0.35348
       168. 1.0981E+03    0.35143
       168. 1.0983E+03    0.35123
       168. 1.0986E+03    0.34874
       168. 1.0989E+03    0.35152
       168. 1.0992E+03    0.35137
       168. 1.0994E+03    0.35019
       168. 1.0997E+03    0.35209
       168. 1.1000E+03    0.35257
       168. 1.1003E+03     0.3492
       168. 1.1005E+03    0.35057
       168. 1.1007E+03    0.35022
       168. 1.1011E+03    0.35066
       168. 1.1014E+03    0.34587
       168. 1.1017E+03    0.34543
       168. 1.1020E+03    0.34391
       168. 1.1022E+03    0.34133
       168. 1.1026E+03    0.33952
       168. 1.1027E+03     0.3401
       168. 1.1030E+03    0.34136
       168. 1.1033E+03    0.34214
       168. 1.1036E+03    0.34736
       168. 1.1039E+03    0.34799
       168. 1.1041E+03    0.35052
       168. 1.1044E+03      0.351
       168. 1.1047E+03    0.34929
       168. 1.1053E+03    0.35372
       168. 1.1055E+03    0.35392
       168. 1.1058E+03    0.35533
       168. 1.1061E+03     0.3561
       168. 1.1064E+03    0.35439
       168. 1.1067E+03    0.35366
       168. 1.1069E+03    0.35565
       168. 1.1072E+03    0.35468
       168. 1.1075E+03    0.35394
       168. 1.1078E+03    0.35291
       168. 1.1080E+03    0.35252
       168. 1.1083E+03    0.35125
       168. 1.1086E+03    0.34871
       168. 1.1261E+03 9.6649E-02
       168. 1.1264E+03 9.6260E-02
       168. 1.1267E+03 9.6016E-02
       168. 1.1270E+03 9.5724E-02
       168. 1.1272E+03 9.4320E-02
       168. 1.1275E+03 9.4607E-02
       168. 1.1278E+03 9.3445E-02
       168. 1.1281E+03 9.4312E-02
       168. 1.1284E+03 9.4648E-02
       168. 1.1287E+03 9.4355E-02
       168. 1.1289E+03 9.4015E-02
       168. 1.1293E+03 9.1741E-02
       168. 1.1295E+03 9.1353E-02
       168. 1.1298E+03 9.1447E-02
       168. 1.1301E+03 9.2604E-02
       168. 1.1304E+03 9.2649E-02
       168. 1.1307E+03 9.2888E-02
       168. 1.1310E+03 9.3369E-02
       168. 1.1312E+03 9.4140E-02
       168. 1.1315E+03 9.4089E-02
       168. 1.1318E+03 9.4569E-02
       168. 1.1321E+03 9.5630E-02
       168. 1.1324E+03 9.4613E-02
       168. 1.1326E+03 9.5335E-02
       168. 1.1329E+03 9.5670E-02
       168. 1.1332E+03 9.5233E-02
       168. 1.1335E+03 9.5810E-02
       168. 1.1338E+03 9.6967E-02
       168. 1.1341E+03 9.5950E-02
       168. 1.1343E+03 9.6576E-02
       168. 1.1347E+03 9.6959E-02
       168. 1.1350E+03 9.7729E-02
       168. 1.1353E+03 9.7147E-02
       168. 1.1471E+03    0.11718
       168. 1.1474E+03    0.11824
       168. 1.1478E+03    0.11686
       168. 1.1480E+03    0.11675
       168. 1.1483E+03    0.11706
       168. 1.1486E+03    0.11582
       168. 1.1489E+03    0.11632
       168. 1.1492E+03    0.11615
       168. 1.1495E+03      0.116
       168. 1.1497E+03    0.11542
       168. 1.1500E+03    0.11624
       168. 1.1503E+03    0.11562
       168. 1.1505E+03     0.1156
       168. 1.1509E+03    0.11464
       168. 1.1511E+03    0.11477
       168. 1.1515E+03    0.11419
       168. 1.1517E+03    0.11436
       168. 1.1520E+03    0.11382
       168. 1.1523E+03    0.11366
       168. 1.1526E+03    0.11243
       168. 1.1529E+03    0.11199
       168. 1.1532E+03    0.11249
       168. 1.1535E+03    0.11303
       168. 1.1538E+03    0.11329
       168. 1.1540E+03    0.11421
       168. 1.1544E+03    0.11465
       168. 1.1546E+03    0.11412
       168. 1.1549E+03    0.11499
       168. 1.1551E+03    0.11605
       168. 1.1555E+03    0.11608
       168. 1.1558E+03    0.11676
       168. 1.1561E+03    0.11609
       168. 1.1564E+03    0.11701
       168. 1.1566E+03    0.11731
       168. 1.1570E+03    0.11678
       168. 1.1573E+03    0.11756
       168. 1.1575E+03    0.11642
       168. 1.1578E+03    0.11724
       168. 1.1580E+03    0.11746
       168. 1.1583E+03     0.1166
       168. 1.1586E+03      0.117
       168. 1.2326E+03    0.11344
       168. 1.2329E+03    0.11283
       168. 1.2332E+03    0.11267
       168. 1.2336E+03    0.11261
       168. 1.2338E+03    0.11134
       168. 1.2342E+03    0.11188
       168. 1.2344E+03    0.11075
       168. 1.2347E+03    0.11176
       168. 1.2350E+03    0.11082
       168. 1.2353E+03    0.11099
       168. 1.2357E+03    0.11041
       168. 1.2360E+03    0.10966
       168. 1.2363E+03    0.10797
       168. 1.2366E+03    0.10791
       168. 1.2369E+03    0.10576
       168. 1.2372E+03      0.105
       168. 1.2375E+03    0.10462
       168. 1.2379E+03    0.10501
       168. 1.2381E+03    0.10755
       168. 1.2384E+03    0.10953
       168. 1.2387E+03    0.11021
       168. 1.2390E+03    0.11061
       168. 1.2393E+03    0.11264
       168. 1.2397E+03    0.11197
       168. 1.2399E+03    0.11242
       168. 1.2403E+03    0.11435
       168. 1.2406E+03    0.11466
       168. 1.2409E+03    0.11552
       168. 1.2412E+03    0.11491
       168. 1.2415E+03    0.11531
       168. 1.2418E+03    0.11543
       168. 1.2421E+03    0.11542
       168. 1.2424E+03    0.11591
       168. 1.2427E+03    0.11566
       168. 1.2430E+03    0.11505
       168. 1.2433E+03    0.11452
       168. 1.3005E+03 9.1090E-02
       168. 1.3009E+03 9.1971E-02
       168. 1.3012E+03 9.2164E-02
       168. 1.3016E+03 9.1078E-02
       168. 1.3018E+03 9.1665E-02
       168. 1.3021E+03 9.1416E-02
       168. 1.3024E+03 9.1362E-02
       168. 1.3028E+03 9.1014E-02
       168. 1.3030E+03 9.0765E-02
       168. 1.3034E+03 9.0957E-02
       168. 1.3036E+03 9.0462E-02
       168. 1.3039E+03 9.0409E-02
       168. 1.3042E+03 9.0356E-02
       168. 1.3045E+03 8.9959E-02
       168. 1.3048E+03 8.9414E-02
       168. 1.3051E+03 8.8476E-02
       168. 1.3053E+03 8.5914E-02
       168. 1.3057E+03 8.5663E-02
       168. 1.3060E+03 8.6447E-02
       168. 1.3063E+03 8.7821E-02
       168. 1.3065E+03 8.8261E-02
       168. 1.3069E+03 8.8454E-02
       168. 1.3072E+03 8.7909E-02
       168. 1.3075E+03 8.9135E-02
       168. 1.3078E+03 9.0411E-02
       168. 1.3081E+03 9.2228E-02
       168. 1.3085E+03 9.4142E-02
       168. 1.3088E+03 9.5123E-02
       168. 1.3089E+03 9.5761E-02
       168. 1.3093E+03 9.5608E-02
       168. 1.3096E+03 9.7376E-02
       168. 1.3100E+03 9.8504E-02
       168. 1.3102E+03 9.9041E-02
       168. 1.3106E+03 9.9333E-02
       168. 1.3108E+03 9.9723E-02
       168. 1.3111E+03 9.9474E-02
       168. 1.3114E+03 9.9766E-02
       168. 1.3117E+03 9.9860E-02
       168. 1.3121E+03 9.9462E-02
       168. 1.3122E+03 9.9312E-02
       168. 1.3125E+03 9.9358E-02
       168. 1.3678E+03 8.3736E-02
       168. 1.3681E+03 8.2633E-02
       168. 1.3685E+03 8.2879E-02
       168. 1.3688E+03 8.2876E-02
       168. 1.3692E+03 8.2572E-02
       168. 1.3694E+03 8.1770E-02
       168. 1.3698E+03 8.1265E-02
       168. 1.3702E+03 8.1362E-02
       168. 1.3705E+03 8.1459E-02
       168. 1.3708E+03 8.0555E-02
       168. 1.3712E+03 7.9901E-02
       168. 1.3715E+03 7.8398E-02
       168. 1.3718E+03 7.7444E-02
       168. 1.3721E+03 7.4641E-02
       168. 1.3725E+03 7.4537E-02
       168. 1.3729E+03 7.8233E-02
       168. 1.3731E+03 8.0131E-02
       168. 1.3735E+03 8.1277E-02
       168. 1.3737E+03 8.2224E-02
       168. 1.3742E+03 8.2519E-02
       168. 1.3745E+03 8.4166E-02
       168. 1.3748E+03 8.3612E-02
       168. 1.3752E+03 8.4409E-02
       168. 1.3755E+03 8.5605E-02
       168. 1.3758E+03 8.6503E-02
       168. 1.3762E+03 8.6848E-02
       168. 1.3765E+03 8.6695E-02
       168. 1.3768E+03 8.6942E-02
       168. 1.3772E+03 8.7488E-02
       168. 2.0826E+03 4.1445E-02
       168. 2.0830E+03 4.1535E-02
       168. 2.0834E+03 4.1854E-02
       168. 2.0838E+03 4.1378E-02
       168. 2.0842E+03 4.1010E-02
       168. 2.0845E+03 4.0992E-02
       168. 2.0848E+03 4.0748E-02
       168. 2.0853E+03 4.0834E-02
       168. 2.0857E+03 4.0586E-02
       168. 2.0861E+03 3.9884E-02
       168. 2.0865E+03 3.9295E-02
       168. 2.0869E+03 3.8480E-02
       168. 2.0872E+03 3.7328E-02
       168. 2.0876E+03 3.5723E-02
       168. 2.0879E+03 3.4123E-02
       168. 2.0885E+03 3.3415E-02
       168. 2.0888E+03 3.3282E-02
       168. 2.0891E+03 3.3262E-02
       168. 2.0895E+03 3.3241E-02
       168. 2.0899E+03 3.3667E-02
       168. 2.0903E+03 3.3868E-02
       168. 2.0907E+03 3.4525E-02
       168. 2.0911E+03 3.6534E-02
       168. 2.0914E+03 3.9113E-02
       168. 2.0918E+03 4.0220E-02
       168. 2.0922E+03 4.0760E-02
       168. 2.0926E+03 4.4013E-02
       168. 2.0931E+03 4.3983E-02
       168. 2.0934E+03 4.6679E-02
       168. 2.0938E+03 4.7558E-02
       168. 2.0941E+03 4.7991E-02
       168. 2.0942E+03 5.0359E-02
       168. 2.0946E+03 4.9883E-02
       168. 2.0950E+03 5.2684E-02
       168. 2.0954E+03 5.3450E-02
       168. 2.0957E+03 5.3883E-02
       168. 2.0961E+03 5.5214E-02
       168. 2.0964E+03 5.5984E-02
       168. 2.0969E+03 5.7315E-02
       168. 2.0973E+03 5.7966E-02
       168. 2.0977E+03 5.8398E-02
       168. 2.0980E+03 5.9392E-02
       168. 2.0984E+03 5.9706E-02
       168. 2.0988E+03 6.0478E-02
       168. 2.0991E+03 6.0343E-02
       168. 2.0995E+03 6.0434E-02
       168. 2.0999E+03 6.1200E-02
       168. 2.1003E+03 6.0954E-02
       168. 2.1006E+03 6.1044E-02
       168. 2.1010E+03 6.1925E-02
       168. 2.3822E+03 8.7657E-02
       168. 2.3825E+03 8.7878E-02
       168. 2.3829E+03 8.7782E-02
       168. 2.3834E+03 8.7051E-02
       168. 2.3836E+03 8.7499E-02
       168. 2.3841E+03 8.6904E-02
       168. 2.3845E+03 8.6537E-02
       168. 2.3850E+03 8.7027E-02
       168. 2.3854E+03 8.7066E-02
       168. 2.3857E+03 8.7152E-02
       168. 2.3860E+03 8.6151E-02
       168. 2.3865E+03 8.6461E-02
       168. 2.3869E+03 8.5866E-02
       168. 2.3873E+03 8.4955E-02
       168. 2.3877E+03 8.4180E-02
       168. 2.3882E+03 8.3177E-02
       168. 2.3886E+03 8.2900E-02
       168. 2.3890E+03 8.3075E-02
       168. 2.3894E+03 8.4336E-02
       168. 2.3898E+03 8.6185E-02
       168. 2.3901E+03 8.9619E-02
       168. 2.3905E+03 9.0835E-02
       168. 2.3909E+03 9.3453E-02
       168. 2.3913E+03 9.4172E-02
       168. 2.3917E+03 9.4572E-02
       168. 2.3922E+03 9.4700E-02
       168. 2.3926E+03 9.4695E-02
       168. 2.3930E+03 9.4191E-02
       168. 2.3933E+03 9.3281E-02
       168. 2.3938E+03 9.3590E-02
       168. 2.3941E+03 9.3043E-02
       168. 2.4714E+03    0.15555
       168. 2.4718E+03    0.15497
       168. 2.4721E+03    0.15579
       168. 2.4726E+03    0.15569
       168. 2.4730E+03    0.15568
       168. 2.4735E+03    0.15524
       168. 2.4738E+03    0.15485
       168. 2.4742E+03    0.15417
       168. 2.4747E+03    0.15315
       168. 2.4751E+03    0.15149
       168. 2.4756E+03    0.14975
       168. 2.4759E+03    0.14843
       168. 2.4763E+03    0.14906
       168. 2.4768E+03    0.15061
       168. 2.4772E+03    0.15162
       168. 2.4776E+03    0.15442
       168. 2.4780E+03    0.15587
       168. 2.4783E+03    0.15766
       168. 2.4787E+03     0.1578
       168. 2.4792E+03    0.15988
       168. 2.4795E+03    0.16056
       168. 2.4799E+03    0.16118
       168. 2.4804E+03    0.16176
       168. 2.4808E+03    0.16268
       168. 2.4813E+03     0.1633
       168. 2.4816E+03    0.16306
       168. 2.4821E+03    0.16232
       168. 2.4825E+03    0.16125
       168. 2.4828E+03    0.16009
       168. 2.4833E+03     0.1595
       168. 2.4837E+03    0.15896
       168. 2.4842E+03    0.15872
       168. 2.5440E+03 9.7114E-02
       168. 2.5447E+03 9.6542E-02
       168. 2.5458E+03 9.5977E-02
       168. 2.5465E+03 9.4709E-02
       168. 2.5473E+03 9.4138E-02
       168. 2.5480E+03 9.2173E-02
       168. 2.5491E+03 9.2071E-02
       168. 2.5498E+03 8.9874E-02
       168. 2.5506E+03 8.9536E-02
       168. 2.5517E+03 8.8273E-02
       168. 2.5525E+03 8.8283E-02
       168. 2.5533E+03 9.1082E-02
       168. 2.5542E+03 9.7132E-02
       168. 2.5550E+03    0.10214
       168. 2.5560E+03    0.10761
       168. 2.5568E+03    0.11168
       168. 2.5576E+03     0.1139
       168. 2.5585E+03    0.11554
       168. 2.5593E+03    0.11671
       168. 2.5603E+03    0.11637
       168. 2.5612E+03    0.11581
       168. 2.5620E+03    0.11593
       168. 2.5628E+03    0.11525
       168. 2.5636E+03    0.11491
       168. 2.5647E+03    0.11295
       168. 2.5654E+03    0.11215
       168. 2.5664E+03    0.11042
       168. 2.5672E+03    0.10903
       168. 2.5681E+03    0.10753
       168. 2.7245E+03 3.9750E-02
       168. 2.7254E+03 3.9076E-02
       168. 2.7263E+03 3.8057E-02
       168. 2.7273E+03 3.8427E-02
       168. 2.7281E+03 3.7289E-02
       168. 2.7292E+03 3.6274E-02
       168. 2.7297E+03 3.4898E-02
       168. 2.7309E+03 3.4231E-02
       168. 2.7316E+03 3.2978E-02
       168. 2.7325E+03 3.2073E-02
       168. 2.7334E+03 3.1052E-02
       168. 2.7341E+03 3.0375E-02
       168. 2.7349E+03 3.1435E-02
       168. 2.7359E+03 3.3423E-02
       168. 2.7366E+03 3.5753E-02
       168. 2.7374E+03 3.7273E-02
       168. 2.7384E+03 3.8915E-02
       168. 2.7394E+03 4.0094E-02
       168. 2.7400E+03 4.2767E-02
       168. 2.7410E+03 4.4408E-02
       168. 2.7419E+03 4.5586E-02
       168. 2.7426E+03 4.7222E-02
       168. 2.7434E+03 4.7933E-02
       168. 2.7444E+03 4.8072E-02
       168. 2.7453E+03 4.7629E-02
       168. 2.8497E+03 8.3023E-02
       168. 2.8501E+03 8.2923E-02
       168. 2.8507E+03 8.3065E-02
       168. 2.8511E+03 8.3014E-02
       168. 2.8514E+03 8.3158E-02
       168. 2.8520E+03 8.2185E-02
       168. 2.8524E+03 8.1747E-02
       168. 2.8528E+03 8.1696E-02
       168. 2.8532E+03 8.0967E-02
       168. 2.8538E+03 8.0527E-02
       168. 2.8542E+03 8.0331E-02
       168. 2.8546E+03 7.8972E-02
       168. 2.8552E+03 7.9502E-02
       168. 2.8557E+03 7.9547E-02
       168. 2.8561E+03 7.9787E-02
       168. 2.8564E+03 7.9979E-02
       168. 2.8569E+03 8.0751E-02
       168. 2.8574E+03 8.1523E-02
       168. 2.8579E+03 8.2925E-02
       168. 2.8582E+03 8.2923E-02
       168. 2.8588E+03 8.4083E-02
       168. 2.8592E+03 8.4032E-02
       168. 2.8597E+03 8.4368E-02
       168. 2.8601E+03 8.5577E-02
       168. 2.8605E+03 8.5574E-02
       168. 2.8610E+03 8.6928E-02
       168. 2.8614E+03 8.6828E-02
       168. 2.8619E+03 8.7794E-02
       168. 2.8624E+03 8.7452E-02
       168. 2.8628E+03 8.8419E-02
       168. 2.8632E+03 8.8465E-02
       168. 2.8637E+03 8.9431E-02
       168. 2.8641E+03 8.8847E-02
       168. 2.8646E+03 8.9328E-02
       168. 2.8650E+03 8.9520E-02
       168. 2.8655E+03 8.8742E-02
       168. 2.8660E+03 8.8254E-02
       168. 2.8665E+03 8.8930E-02
       168. 2.8669E+03 8.8346E-02
       168. 2.8673E+03 8.8101E-02
       168. 2.8678E+03 8.8631E-02
ENDDATA           2321
ENDSUBENT         2341
SUBENT        F0954006   20110821   20111215   20111123       F042
BIB                  7         10
REACTION   (19-K-39(P,G)20-CA-40,PAR,MLT,,REL)
DETECTOR   (NAICR) The gamma rays were detected with 10 cm*10 cm
           cylindrical NaI detector placed outside the scattering
           chamber.
METHOD     (GSPEC)
EN-SEC     Gamma energy was 3.0-4.0 MeV
ERR-ANALYS (EN-ERR-DIG) Energy digitizing error
STATUS     (CURVE) Fig.8-10
HISTORY    (20110810A) SD: Units of energy changed (MEV -> KEV).
           SF5=PAR in REACTION code and E in COMMON added.
ENDBIB              10
COMMON               4          3
E-MIN      E-MAX      EN-ERR-DIG ERR-DIG
MEV        MEV        KEV        ARB-UNITS
 3.0         4.0        0.012      0.468
ENDCOMMON            3
DATA                 2        109
EN         DATA
KEV        ARB-UNITS
 1.0977E+03     737.38
 1.0981E+03      748.6
 1.0983E+03     718.34
 1.0989E+03     703.08
 1.0992E+03     716.83
 1.0994E+03     749.46
 1.0997E+03     705.36
 1.1000E+03     748.04
 1.1002E+03     725.33
 1.1005E+03     735.31
 1.1008E+03     770.44
 1.1010E+03     765.35
 1.1014E+03     726.25
 1.1017E+03     722.39
 1.1019E+03     781.44
 1.1022E+03     741.12
 1.1025E+03     841.64
 1.1027E+03     822.71
 1.1031E+03     821.36
 1.1033E+03     864.06
 1.1036E+03     835.05
 1.1039E+03     790.94
 1.1042E+03     758.13
 1.1044E+03     817.19
 1.1047E+03     749.19
 1.1050E+03     796.91
 1.1052E+03     799.35
 1.1055E+03     756.49
 1.1058E+03     775.27
 1.1061E+03     776.44
 1.1063E+03      763.8
 1.1066E+03     772.53
 1.1069E+03     777.47
 1.1071E+03     767.34
 1.1075E+03      777.3
 1.1077E+03     760.88
 1.1080E+03     806.09
 1.1083E+03     792.17
 1.1086E+03     726.66
 1.1472E+03 1.0389E+03
 1.1475E+03 1.1451E+03
 1.1477E+03 1.0730E+03
 1.1480E+03 1.1700E+03
 1.1483E+03 1.1573E+03
 1.1485E+03 1.1424E+03
 1.1488E+03 1.1275E+03
 1.1491E+03 1.0741E+03
 1.1494E+03 1.1495E+03
 1.1497E+03 1.1417E+03
 1.1500E+03 1.1124E+03
 1.1502E+03 1.1165E+03
 1.1506E+03 1.1631E+03
 1.1509E+03 1.1600E+03
 1.1511E+03 1.0975E+03
 1.1514E+03 1.1062E+03
 1.1517E+03 1.1435E+03
 1.1520E+03 1.1499E+03
 1.1523E+03 1.2085E+03
 1.1526E+03 1.1484E+03
 1.1529E+03 1.1571E+03
 1.1531E+03 1.2540E+03
 1.1535E+03 1.2269E+03
 1.1537E+03 1.2478E+03
 1.1539E+03 1.2637E+03
 1.1543E+03 1.2247E+03
 1.1546E+03 1.3026E+03
 1.1548E+03 1.2091E+03
 1.1551E+03 1.2178E+03
 1.1554E+03 1.2336E+03
 1.1557E+03 1.1971E+03
 1.1561E+03 1.2557E+03
 1.1562E+03 1.2029E+03
 1.1566E+03 1.1877E+03
 1.1569E+03 1.2060E+03
 1.1572E+03 1.2052E+03
 1.1574E+03 1.2355E+03
 1.1577E+03 1.2370E+03
 1.1579E+03 1.2174E+03
 1.1583E+03 1.2283E+03
 1.1585E+03 1.2087E+03
 1.3678E+03 1.1400E+03
 1.3681E+03 1.1550E+03
 1.3685E+03 1.1350E+03
 1.3689E+03 1.1050E+03
 1.3691E+03 1.1599E+03
 1.3695E+03 1.1574E+03
 1.3698E+03 1.1374E+03
 1.3701E+03 1.1499E+03
 1.3704E+03 1.0999E+03
 1.3708E+03 1.1049E+03
 1.3711E+03 1.1174E+03
 1.3714E+03 1.0974E+03
 1.3717E+03 1.1149E+03
 1.3720E+03 1.1099E+03
 1.3724E+03 1.1024E+03
 1.3728E+03 1.1399E+03
 1.3731E+03 1.2249E+03
 1.3734E+03 1.1474E+03
 1.3738E+03 1.1749E+03
 1.3741E+03 1.1498E+03
 1.3744E+03 1.2048E+03
 1.3747E+03 1.1623E+03
 1.3750E+03 1.1873E+03
 1.3754E+03 1.1748E+03
 1.3758E+03 1.2273E+03
 1.3760E+03 1.1398E+03
 1.3764E+03 1.1423E+03
 1.3768E+03 1.1273E+03
 1.3771E+03 1.1173E+03
ENDDATA            111
ENDSUBENT          130
SUBENT        F0954007   20110821   20111215   20111123       F042
BIB                  7         10
REACTION   (19-K-39(P,G)20-CA-40,PAR,MLT,,REL)
DETECTOR   (NAICR) The gamma rays were detected with 10 cm*10 cm
           cylindrical NaI detector placed outside the scattering
           chamber.
METHOD     (GSPEC)
EN-SEC     Gamma energy was  8.0-10.0 MeV
ERR-ANALYS (EN-ERR-DIG) Energy digitizing error
STATUS     (CURVE) Fig.8-10
HISTORY    (20110810A) SD: Units of energy changed (MEV -> KEV).
           SF5=PAR in REACTION code and E in COMMON added.
ENDBIB              10
COMMON               4          3
E-MIN      E-MAX      EN-ERR-DIG ERR-DIG
MEV        MEV        KEV        ARB-UNITS
 8.          10.        0.021      0.437
ENDCOMMON            3
DATA                 2        109
EN         DATA
KEV        ARB-UNITS
 1.1264E+03      111.5
 1.1267E+03     99.638
 1.1270E+03     106.53
 1.1273E+03     80.918
 1.1276E+03     86.554
 1.1279E+03     102.19
 1.1281E+03       89.7
 1.1284E+03     95.338
 1.1286E+03     99.722
 1.1289E+03      82.24
 1.1291E+03     113.49
 1.1295E+03     83.513
 1.1297E+03     127.89
 1.1299E+03      140.4
 1.1302E+03     150.41
 1.1304E+03     150.42
 1.1308E+03     140.43
 1.1311E+03     174.19
 1.1313E+03     146.08
 1.1316E+03     149.22
 1.1319E+03     138.61
 1.1321E+03     129.87
 1.1324E+03       143.
 1.1327E+03     128.65
 1.1330E+03     156.15
 1.1333E+03     143.67
 1.1336E+03     125.56
 1.1338E+03     109.95
 1.1341E+03     125.58
 1.1343E+03     108.09
 1.1346E+03     113.73
 1.1348E+03     116.86
 1.1352E+03     119.38
 1.2325E+03     111.42
 1.2329E+03     118.85
 1.2332E+03     101.58
 1.2335E+03     97.839
 1.2338E+03     103.56
 1.2341E+03     94.532
 1.2344E+03      107.3
 1.2346E+03     97.758
 1.2349E+03     93.416
 1.2352E+03     94.398
 1.2356E+03     97.124
 1.2359E+03     83.363
 1.2362E+03     94.334
 1.2365E+03      102.4
 1.2368E+03     104.56
 1.2371E+03     110.22
 1.2374E+03     108.86
 1.2377E+03     114.56
 1.2381E+03      110.8
 1.2384E+03     97.075
 1.2387E+03     116.89
 1.2389E+03     104.36
 1.2392E+03     112.41
 1.2395E+03     112.22
 1.2399E+03      106.7
 1.2403E+03     94.703
 1.2405E+03     93.939
 1.2408E+03     106.09
 1.2411E+03     95.315
 1.2414E+03     92.771
 1.2417E+03     114.37
 1.2420E+03     103.57
 1.2424E+03      105.7
 1.2426E+03     99.065
 1.2429E+03     101.84
 1.2432E+03     92.214
 1.3006E+03     38.033
 1.3009E+03     33.612
 1.3012E+03     41.069
 1.3014E+03     31.027
 1.3018E+03     30.976
 1.3020E+03     38.442
 1.3024E+03     37.766
 1.3027E+03      37.09
 1.3030E+03     38.919
 1.3033E+03     33.881
 1.3036E+03     32.589
 1.3038E+03     32.546
 1.3041E+03     31.254
 1.3044E+03     36.216
 1.3048E+03     35.536
 1.3050E+03     34.873
 1.3053E+03     33.576
 1.3058E+03     40.374
 1.3062E+03     42.827
 1.3065E+03     37.152
 1.3068E+03     37.101
 1.3071E+03     63.307
 1.3075E+03     95.124
 1.3077E+03     85.091
 1.3080E+03     100.68
 1.3083E+03     90.006
 1.3086E+03      82.46
 1.3089E+03     81.793
 1.3093E+03      63.61
 1.3096E+03     67.946
 1.3099E+03     62.275
 1.3102E+03     43.485
 1.3105E+03      38.43
 1.3108E+03     34.013
 1.3111E+03     36.466
 1.3114E+03      36.42
 1.3117E+03     36.377
 1.3120E+03     35.081
 1.3124E+03     35.659
 1.3126E+03     33.121
ENDDATA            111
ENDSUBENT          130
ENDENTRY             7
