ENTRY            F0955   20131217   20140228   20140206       F052
SUBENT        F0955001   20131217   20140228   20140206       F052
BIB                 10         19
TITLE      Elastic proton scattering by Mg-25 and Mg-26.
AUTHOR     (A.I.Popov,P.V.Sorokin,V.E.Storizhko,A.Ya.Taranov)
INSTITUTE  (4UKRUFT)
REFERENCE  (J,IZV,26,1074,1962)
           (J,BAS,26,1081,1963)
FACILITY   (VDG,4UKRUFT)
DETECTOR   (MAGSP,CSICR) Particles getting through the
           spectrometer were detected by thin (~0.2 mm) CsJ
           crystal and photomultiplier.
SAMPLE     25Mg and 26Mg targets was manufactured by implantation
           of magnesium ions into refined beryllium foils (100-
           250 mu-m thickness).
METHOD     (BCINT)
ERR-ANALYS (EN-ERR-DIG) Energy digitizing error
           (ERR-DIG)    Data digitizing error
HISTORY    (20080617C)
           (20131217A) Data in sub 002 for the angles 125 and 141
           degr. were corrected. Data presentation in sub 002, 003
           was changed.
ENDBIB              19
NOCOMMON             0          0
ENDSUBENT           22
SUBENT        F0955002   20131217   20140228   20140206       F052
BIB                  2          2
REACTION   (12-MG-25(P,EL)12-MG-25,,DA)
STATUS     (CURVE) Fig.2
ENDBIB               2
COMMON               2          3
EN-ERR-DIG ERR-DIG
MEV        MB/SR
 0.001      0.01
ENDCOMMON            3
DATA                 3        737
ANG-CM     EN         DATA-CM
ADEG       MEV        MB/SR
        90.      1.536     263.97
        90.      1.546     273.91
        90.      1.558     251.55
        90.      1.569     246.58
        90.      1.579     280.12
        90.      1.586     268.94
        90.      1.599     230.43
        90.      1.608     256.51
        90.      1.619     206.82
        90.      1.625     282.60
        90.      1.628     295.02
        90.      1.638     283.84
        90.      1.648     311.17
        90.      1.660     318.62
        90.      1.670     261.48
        90.      1.680     271.42
        90.      1.691     261.48
        90.      1.700     283.84
        90.      1.711     268.93
        90.      1.721     293.77
        90.      1.732     268.93
        90.      1.742     224.21
        90.      1.752     297.50
        90.      1.763     281.35
        90.      1.772     282.59
        90.      1.782     285.07
        90.      1.792     292.53
        90.      1.802     246.56
        90.      1.812     280.10
        90.      1.823     209.30
        90.      1.834     234.14
        90.      1.844     241.59
        90.      1.853     260.23
        90.      1.864     226.69
        90.      1.874     229.17
        90.      1.884     263.95
        90.      1.894     297.49
        90.      1.903     255.25
        90.      1.916     239.11
        90.      1.924     190.66
        90.      1.934     152.15
        90.      1.945     226.68
        90.      1.956     290.03
        90.      1.965     311.15
        90.      1.975     295.00
        90.      1.986     275.13
        90.      1.997     256.49
        90.      2.006     276.37
        90.      2.016     281.34
        90.      2.027     270.15
        90.      2.038     271.40
        90.      2.049     209.28
        90.      2.059     176.99
        90.      2.068     149.66
        90.      2.078     222.95
        90.      2.087     275.12
        90.      2.098     237.85
        90.      2.110     204.31
        90.      2.119     147.17
        90.      2.129     183.19
        90.      2.140     217.97
        90.      2.151     245.30
        90.      2.159     286.30
        90.      2.171     263.94
        90.      2.180     281.33
        90.      2.190     291.26
        90.      2.198     302.44
        90.      2.209     280.08
        90.      2.220     280.08
        90.      2.230     268.90
        90.      2.240     251.51
        90.      2.253     242.81
        90.      2.261     311.14
        90.      2.271     267.66
        90.      2.282     245.30
        90.      2.293     258.96
        90.      2.302     258.96
        90.      2.312     231.63
        90.      2.322     252.75
        90.      2.333     244.05
        90.      2.343     241.57
        90.      2.354     237.84
        90.      2.364     249.02
        90.      2.371     222.93
        90.      2.382     219.20
        90.      2.392     212.99
        90.      2.401     240.32
        90.      2.413     209.26
        90.      2.424     216.72
        90.      2.432     229.14
        90.      2.443     206.78
        90.      2.454     175.72
        90.      2.463     173.24
        90.      2.475     168.27
        90.      2.483     157.09
        90.      2.493     119.82
        90.      2.504     127.27
        90.      2.513     181.93
        90.      2.523     180.69
        90.      2.534     181.93
        90.      2.543     158.33
        90.      2.554     175.72
        90.      2.564     188.14
        90.      2.575     163.29
        90.      2.585     175.71
        90.      2.594     181.92
        90.      2.604     190.62
        90.      2.616     191.86
        90.      2.623     209.25
        90.      2.635     179.44
        90.      2.644     216.70
        90.      2.654     190.62
        90.      2.664     206.77
        90.      2.676     183.16
        90.      2.685     173.22
        90.      2.694     171.98
        90.      2.706     163.29
        90.      2.715     152.10
        90.      2.725     119.81
        90.      2.735     144.65
        90.      2.745     153.34
        90.      2.754     117.32
        90.      2.763     160.80
        90.      2.775     159.55
        90.      2.785     174.46
        90.      2.795     170.73
        90.      2.806     128.50
        90.      2.815     134.71
        90.      2.826     154.58
        90.      2.835     178.18
        90.      2.846     148.37
        90.      2.857     169.49
        90.      2.866     168.25
        90.      2.875     159.55
        90.      2.888     130.98
        90.      2.897     129.73
        90.      2.906     122.28
        90.      2.916     118.55
        90.      2.927     122.28
        90.      2.938     122.28
        90.      2.948     109.86
        90.      2.958      86.25
        90.      2.967     111.10
        90.      2.976      98.67
        90.      2.987     104.88
        90.      2.998     118.55
        90.      3.008     106.13
        90.      3.017      99.91
        90.      3.028      83.76
        90.      3.058      57.68
        90.      3.068      50.22
        90.      3.078      40.28
        90.      3.082      56.43
        90.      3.087      83.76
        90.      3.091     118.54
        90.      3.097      93.70
        90.      3.108     109.85
        90.      3.115     116.06
        90.      3.129     109.85
        90.      3.137     102.39
        90.      3.148     112.33
        90.      3.161     109.84
        90.      3.168     104.87
        90.      3.177     102.39
        90.      3.188     106.12
        90.      3.197     102.39
        90.      3.207     107.36
        90.      3.216     102.39
        90.      3.228      92.45
        90.      3.238     103.63
        90.      3.246      96.17
        90.      3.256      81.27
        90.      3.267      50.21
        90.      3.277      81.27
        90.      3.288     101.14
        90.      3.296      81.27
        90.      3.306      86.23
        90.      3.317      87.48
        90.      3.326      83.75
        90.      3.336      65.11
        90.      3.344      70.08
        90.      3.355      78.78
        90.      3.365      72.57
        90.      3.376      88.71
        90.      3.386      93.68
        90.      3.397      81.26
        90.      3.407      76.29
        90.      3.418      88.71
        90.      3.428      73.80
        90.      3.437      84.98
        90.      3.447      82.50
        90.      3.457      73.80
        90.      3.468      71.32
        90.      3.478      72.56
        90.      3.490      73.80
        90.      3.497      63.86
        90.      3.507      62.62
        90.      3.518      57.65
        90.      3.537      72.56
        90.      3.558      51.44
        90.      3.579      60.13
        90.      3.589      57.65
        90.      3.599      55.16
        90.      3.607      51.43
        90.      3.618      47.71
        90.      3.639      50.19
       125.      1.491     208.53
       125.      1.501     204.88
       125.      1.511     198.78
       125.      1.522     209.75
       125.      1.533     208.53
       125.      1.543     204.87
       125.      1.554     204.87
       125.      1.564     196.34
       125.      1.575     206.09
       125.      1.584     191.46
       125.      1.595     179.26
       125.      1.606     136.58
       125.      1.614     269.50
       125.      1.618     296.33
       125.      1.626     275.60
       125.      1.635     248.77
       125.      1.645     218.28
       125.      1.655     208.53
       125.      1.667     199.99
       125.      1.676     179.26
       125.      1.682     173.16
       125.      1.688     178.04
       125.      1.689     239.01
       125.      1.697     204.86
       125.      1.707     186.57
       125.      1.720     158.52
       125.      1.725     148.77
       125.      1.729     137.79
       125.      1.740     280.47
       125.      1.749     251.20
       125.      1.759     220.71
       125.      1.770     214.62
       125.      1.781     203.64
       125.      1.791     189.01
       125.      1.799     176.81
       125.      1.812     157.30
       125.      1.817     123.15
       125.      1.822     145.10
       125.      1.825     252.42
       125.      1.828     226.81
       125.      1.843     203.64
       125.      1.853     184.12
       125.      1.862     158.51
       125.      1.871     132.90
       125.      1.877     229.24
       125.      1.882     307.29
       125.      1.888     235.34
       125.      1.892     186.56
       125.      1.898     158.51
       125.      1.903     168.27
       125.      1.913     142.66
       125.      1.923     112.17
       125.      1.931     107.29
       125.      1.933     147.53
       125.      1.942     301.19
       125.      1.953     321.92
       125.      1.965     258.51
       125.      1.976     239.00
       125.      1.986     224.36
       125.      1.996     199.97
       125.      2.008     185.34
       125.      2.017     169.48
       125.      2.027     162.16
       125.      2.037     148.75
       125.      2.048     123.14
       125.      2.057     142.65
       125.      2.066     214.60
       125.      2.076     312.16
       125.      2.087     262.16
       125.      2.098     176.79
       125.      2.106     119.48
       125.      2.117     168.26
       125.      2.127     271.91
       125.      2.138     298.74
       125.      2.147     276.79
       125.      2.157     298.74
       125.      2.169     282.89
       125.      2.179     276.79
       125.      2.190     276.79
       125.      2.199     258.50
       125.      2.208     232.89
       125.      2.219     226.79
       125.      2.229     248.74
       125.      2.238     237.76
       125.      2.249     218.25
       125.      2.258     193.86
       125.      2.270     234.10
       125.      2.275     212.15
       125.      2.280     221.91
       125.      2.290     234.10
       125.      2.301     226.78
       125.      2.310     192.64
       125.      2.321     209.71
       125.      2.331     209.71
       125.      2.340     198.73
       125.      2.352     193.85
       125.      2.361     201.17
       125.      2.372     198.73
       125.      2.381     195.07
       125.      2.387     206.05
       125.      2.390     196.29
       125.      2.401     192.63
       125.      2.411     191.41
       125.      2.422     178.00
       125.      2.432     171.90
       125.      2.442     170.68
       125.      2.452     173.12
       125.      2.462     165.80
       125.      2.474     151.16
       125.      2.484     121.89
       125.      2.493      99.94
       125.      2.498     167.02
       125.      2.503     195.06
       125.      2.507     204.82
       125.      2.515     203.60
       125.      2.518     247.50
       125.      2.523     238.97
       125.      2.526     219.45
       125.      2.531     210.92
       125.      2.539     215.79
       125.      2.542     206.04
       125.      2.548     208.48
       125.      2.554     202.38
       125.      2.563     196.28
       125.      2.568     217.01
       125.      2.572     199.94
       125.      2.583     182.86
       125.      2.594     182.86
       125.      2.603     175.55
       125.      2.614     171.89
       125.      2.624     165.79
       125.      2.635      87.74
       125.      2.643     130.42
       125.      2.654     147.50
       125.      2.665     156.03
       125.      2.672     138.96
       125.      2.679     115.79
       125.      2.682     134.08
       125.      2.687     140.18
       125.      2.693     148.71
       125.      2.699     157.25
       125.      2.703     170.66
       125.      2.709     170.66
       125.      2.714     174.32
       125.      2.720     167.00
       125.      2.724     181.64
       125.      2.735     140.17
       125.      2.740     127.98
       125.      2.744     109.69
       125.      2.749     146.27
       125.      2.753     209.68
       125.      2.757     195.05
       125.      2.763     179.20
       125.      2.775     152.37
       125.      2.779     142.61
       125.      2.786     152.37
       125.      2.795     169.44
       125.      2.804     164.56
       125.      2.813     157.24
       125.      2.824     126.75
       125.      2.836     141.39
       125.      2.845     148.70
       125.      2.854     119.44
       125.      2.865     134.07
       125.      2.875     138.95
       125.      2.886     124.31
       125.      2.895     143.82
       125.      2.905     156.02
       125.      2.916     143.82
       125.      2.927     142.60
       125.      2.935     131.63
       125.      2.945     135.28
       125.      2.955     145.04
       125.      2.966     135.28
       125.      2.977     125.53
       125.      2.985     118.21
       125.      2.994     110.89
       125.      3.005      96.26
       125.      3.026      74.30
       125.      3.037      66.99
       125.      3.046      54.79
       125.      3.056      34.06
       125.      3.067      40.16
       125.      3.076     147.47
       125.      3.082     162.11
       125.      3.086     323.08
       125.      3.097     129.18
       125.      3.105     121.86
       125.      3.115     118.20
       125.      3.126     140.15
       125.      3.136     106.01
       125.      3.147     101.13
       125.      3.156     110.88
       125.      3.166     123.08
       125.      3.177     136.49
       125.      3.186     132.83
       125.      3.196     121.86
       125.      3.208     124.29
       125.      3.216     112.10
       125.      3.226     131.61
       125.      3.234     125.51
       125.      3.248     108.44
       125.      3.255     119.41
       125.      3.266     120.63
       125.      3.276     146.24
       125.      3.285     179.17
       125.      3.295     152.34
       125.      3.306     130.39
       125.      3.316     126.73
       125.      3.325     120.63
       125.      3.334     115.75
       125.      3.346      90.14
       125.      3.358      88.92
       125.      3.366     107.21
       125.      3.372     108.43
       125.      3.377      97.46
       125.      3.384      97.46
       125.      3.389     102.33
       125.      3.396     112.09
       125.      3.403     113.31
       125.      3.407     116.97
       125.      3.411     108.43
       125.      3.418     104.77
       125.      3.425     109.65
       125.      3.436     116.96
       125.      3.447     109.65
       125.      3.457     105.99
       125.      3.467     118.18
       125.      3.479     132.82
       125.      3.489     116.96
       125.      3.499      95.01
       125.      3.508      96.23
       125.      3.517     112.08
       125.      3.529     110.86
       125.      3.537     115.74
       125.      3.550     118.18
       125.      3.558     114.52
       125.      3.565     116.96
       125.      3.568     109.64
       125.      3.575     116.96
       125.      3.578      95.01
       125.      3.584      85.25
       125.      3.589      77.93
       125.      3.598     104.76
       125.      3.604     112.08
       125.      3.616     110.86
       125.      3.618     102.32
       125.      3.623      92.56
       125.      3.629      79.15
       125.      3.633      91.34
       125.      3.638     104.76
       141.      1.536     193.93
       141.      1.547     185.39
       141.      1.558     187.84
       141.      1.569     186.62
       141.      1.579     180.52
       141.      1.588     161.01
       141.      1.598     146.38
       141.      1.608     172.00
       141.      1.618     192.73
       141.      1.629     231.76
       141.      1.639     219.57
       141.      1.650     193.96
       141.      1.659     175.67
       141.      1.671     165.92
       141.      1.682     158.60
       141.      1.691     250.07
       141.      1.697     193.97
       141.      1.701     178.12
       141.      1.712     147.64
       141.      1.722     133.00
       141.      1.733     129.35
       141.      1.742     241.55
       141.      1.747     250.08
       141.      1.753     225.70
       141.      1.756     204.97
       141.      1.764     211.07
       141.      1.773     193.99
       141.      1.783     175.70
       141.      1.795     154.98
       141.      1.803     135.47
       141.      1.813     117.18
       141.      1.823     274.50
       141.      1.829     239.13
       141.      1.832     217.18
       141.      1.838     191.57
       141.      1.844     176.94
       141.      1.854     154.99
       141.      1.864     139.14
       141.      1.874     126.95
       141.      1.885     311.10
       141.      1.891     196.47
       141.      1.894     129.39
       141.      1.906     129.40
       141.      1.916     114.77
       141.      1.920     100.13
       141.      1.927      94.04
       141.      1.936     202.58
       141.      1.940     303.80
       141.      1.945     342.82
       141.      1.956     295.27
       141.      1.966     244.05
       141.      1.971     250.15
       141.      1.981     220.88
       141.      1.992     194.06
       141.      2.003     175.77
       141.      2.013     142.84
       141.      2.023     157.48
       141.      2.027     141.63
       141.      2.039     145.29
       141.      2.048     137.98
       141.      2.059     172.13
       141.      2.064     208.71
       141.      2.068     266.03
       141.      2.072     335.54
       141.      2.076     378.23
       141.      2.088     264.82
       141.      2.099     187.99
       141.      2.108     119.70
       141.      2.118     184.34
       141.      2.123     247.75
       141.      2.128     278.24
       141.      2.139     342.88
       141.      2.150     320.93
       141.      2.161     324.59
       141.      2.166     309.96
       141.      2.171     274.60
       141.      2.178     256.31
       141.      2.186     255.09
       141.      2.193     259.97
       141.      2.197     240.46
       141.      2.201     219.73
       141.      2.207     222.17
       141.      2.210     201.44
       141.      2.215     216.07
       141.      2.220     249.00
       141.      2.226     258.76
       141.      2.231     251.44
       141.      2.238     255.10
       141.      2.240     239.25
       141.      2.249     239.25
       141.      2.252     231.94
       141.      2.262     207.55
       141.      2.271     231.94
       141.      2.276     205.12
       141.      2.282     227.07
       141.      2.287     238.05
       141.      2.295     238.05
       141.      2.302     219.76
       141.      2.306     200.25
       141.      2.312     172.20
       141.      2.317     189.27
       141.      2.323     225.86
       141.      2.327     210.01
       141.      2.335     208.79
       141.      2.338     194.16
       141.      2.345     199.04
       141.      2.352     170.99
       141.      2.361     179.53
       141.      2.368     185.63
       141.      2.374     186.85
       141.      2.383     190.51
       141.      2.393     158.81
       141.      2.399     183.20
       141.      2.402     173.44
       141.      2.408     164.91
       141.      2.415     163.69
       141.      2.422     151.50
       141.      2.433     140.53
       141.      2.442     171.02
       141.      2.453     181.99
       141.      2.464     160.05
       141.      2.474     142.98
       141.      2.483      82.00
       141.      2.494      86.89
       141.      2.503     202.74
       141.      2.508     218.60
       141.      2.515     189.33
       141.      2.519     256.40
       141.      2.522     225.92
       141.      2.530     219.82
       141.      2.532     206.41
       141.      2.540     203.97
       141.      2.547     202.75
       141.      2.553     167.39
       141.      2.558     190.56
       141.      2.563     183.25
       141.      2.568     201.54
       141.      2.574     182.03
       141.      2.584     158.86
       141.      2.595     155.21
       141.      2.605     144.23
       141.      2.614     130.82
       141.      2.624     121.07
       141.      2.635     125.95
       141.      2.645     113.76
       141.      2.655     125.96
       141.      2.665     127.18
       141.      2.676     123.52
       141.      2.685     110.11
       141.      2.694     190.60
       141.      2.700     196.70
       141.      2.707     195.48
       141.      2.712     189.39
       141.      2.715     179.63
       141.      2.720     206.46
       141.      2.726     211.34
       141.      2.729     233.29
       141.      2.735     149.15
       141.      2.741     133.30
       141.      2.745     115.01
       141.      2.749      82.08
       141.      2.754     205.25
       141.      2.759     191.84
       141.      2.764     161.35
       141.      2.769     145.50
       141.      2.776     136.97
       141.      2.781     111.36
       141.      2.786     133.31
       141.      2.789     150.38
       141.      2.795     167.46
       141.      2.800     177.22
       141.      2.806     167.46
       141.      2.812     173.56
       141.      2.817     174.78
       141.      2.821     132.10
       141.      2.825     121.13
       141.      2.831     127.23
       141.      2.835     140.64
       141.      2.840     150.40
       141.      2.846     141.86
       141.      2.851     122.35
       141.      2.856     104.06
       141.      2.862     121.14
       141.      2.865     134.55
       141.      2.871     150.41
       141.      2.877     155.29
       141.      2.883     155.29
       141.      2.886     139.44
       141.      2.892     132.12
       141.      2.897     141.88
       141.      2.902     163.83
       141.      2.909     165.05
       141.      2.915     161.40
       141.      2.917     151.64
       141.      2.922     139.45
       141.      2.928     145.55
       141.      2.934     138.23
       141.      2.938     141.89
       141.      2.949     135.80
       141.      2.958     138.24
       141.      2.969     133.36
       141.      2.977      99.22
       141.      2.982     110.20
       141.      2.989     104.10
       141.      2.995     107.76
       141.      2.999      98.01
       141.      3.007      88.25
       141.      3.017      84.60
       141.      3.027      78.50
       141.      3.037      68.75
       141.      3.048      55.34
       141.      3.058      33.39
       141.      3.068      30.95
       141.      3.077     128.52
       141.      3.082     171.20
       141.      3.087     226.08
       141.      3.090     402.91
       141.      3.098     179.74
       141.      3.102     122.43
       141.      3.107     133.40
       141.      3.112     100.48
       141.      3.119      93.16
       141.      3.128     105.36
       141.      3.136      90.73
       141.      3.147      71.22
       141.      3.157      89.52
       141.      3.167     102.93
       141.      3.176     163.91
       141.      3.182     150.50
       141.      3.187     130.99
       141.      3.198     115.14
       141.      3.207     115.14
       141.      3.216     122.46
       141.      3.226     154.17
       141.      3.236     137.10
       141.      3.247     116.37
       141.      3.257     131.01
       141.      3.266     128.57
       141.      3.276     160.28
       141.      3.284     195.65
       141.      3.295     178.58
       141.      3.306     149.31
       141.      3.315     133.46
       141.      3.326     140.78
       141.      3.336     155.42
       141.      3.347      90.79
       141.      3.357      60.30
       141.      3.367     120.06
       141.      3.377      79.82
       141.      3.387      72.51
       141.      3.397      98.12
       141.      3.401     109.10
       141.      3.408      98.12
       141.      3.416      99.35
       141.      3.426      82.28
       141.      3.437      88.38
       141.      3.447      83.50
       141.      3.457      93.26
       141.      3.468      74.97
       141.      3.477     154.24
       141.      3.486     118.88
       141.      3.498     101.81
       141.      3.507     121.32
       141.      3.518     131.08
       141.      3.529     128.65
       141.      3.538     134.75
       141.      3.548     134.75
       141.      3.558     137.19
       141.      3.566     120.12
       141.      3.577     116.46
       141.      3.587      84.76
       141.      3.592     111.59
       141.      3.597     125.01
       141.      3.605     126.23
       141.      3.612     172.57
       141.      3.619     104.28
       141.      3.623     116.48
       141.      3.631     117.70
       141.      3.638     116.48
       141.      3.639     128.68
ENDDATA            739
ENDSUBENT          750
SUBENT        F0955003   20131217   20140228   20140206       F052
BIB                  2          2
REACTION   (12-MG-26(P,EL)12-MG-26,,DA)
STATUS     (CURVE) Fig.3
ENDBIB               2
COMMON               2          3
EN-ERR-DIG ERR-DIG
MEV        MB/SR
 0.004      0.01
ENDCOMMON            3
DATA                 3        780
ANG-CM     EN         DATA-CM
ADEG       MEV        MB/SR
        90.      1.538     244.58
        90.      1.549     260.24
        90.      1.560     266.27
        90.      1.569     255.42
        90.      1.579     245.78
        90.      1.589     239.76
        90.      1.599     239.76
        90.      1.608     263.86
        90.      1.619     272.29
        90.      1.629     262.65
        90.      1.640     250.60
        90.      1.650     248.19
        90.      1.661     245.78
        90.      1.670     245.78
        90.      1.679     233.73
        90.      1.690     255.42
        90.      1.700     250.60
        90.      1.711     254.22
        90.      1.720     236.14
        90.      1.730     243.37
        90.      1.741     243.37
        90.      1.750     242.17
        90.      1.760     233.73
        90.      1.770     237.35
        90.      1.779     227.71
        90.      1.791     233.73
        90.      1.800     221.69
        90.      1.810     226.51
        90.      1.820     227.71
        90.      1.830     226.51
        90.      1.840     214.46
        90.      1.851     215.66
        90.      1.860     210.84
        90.      1.867     213.25
        90.      1.870     227.71
        90.      1.873     268.67
        90.      1.880     212.05
        90.      1.888     206.02
        90.      1.894     214.46
        90.      1.900     218.07
        90.      1.903     208.43
        90.      1.911     190.36
        90.      1.923     197.59
        90.      1.931     189.16
        90.      1.941     181.93
        90.      1.947     173.49
        90.      1.954     171.08
        90.      1.962     174.70
        90.      1.971     162.65
        90.      1.982     148.19
        90.      1.992     161.45
        90.      2.003     172.29
        90.      2.014     153.01
        90.      2.023     134.94
        90.      2.036     130.12
        90.      2.044     180.72
        90.      2.054     208.43
        90.      2.066     218.07
        90.      2.073     238.55
        90.      2.084     228.92
        90.      2.096     253.01
        90.      2.104     263.86
        90.      2.110     243.37
        90.      2.117     251.81
        90.      2.121     242.17
        90.      2.126     256.63
        90.      2.131     291.57
        90.      2.136     232.53
        90.      2.141     260.24
        90.      2.147     243.37
        90.      2.152     230.12
        90.      2.158     191.57
        90.      2.161     242.17
        90.      2.166     226.51
        90.      2.173     198.80
        90.      2.177     250.60
        90.      2.183     246.99
        90.      2.186     238.55
        90.      2.192     243.37
        90.      2.199     246.99
        90.      2.207     230.12
        90.      2.217     236.14
        90.      2.228     232.53
        90.      2.239     239.76
        90.      2.249     200.00
        90.      2.258     218.07
        90.      2.269     224.10
        90.      2.280     263.86
        90.      2.289     227.71
        90.      2.300     221.69
        90.      2.310     224.10
        90.      2.320     232.53
        90.      2.330     254.22
        90.      2.334     248.19
        90.      2.339     259.04
        90.      2.346     253.01
        90.      2.349     269.88
        90.      2.356     287.95
        90.      2.362     283.13
        90.      2.363     238.55
        90.      2.370     248.19
        90.      2.376     236.14
        90.      2.380     208.43
        90.      2.388     195.18
        90.      2.392     221.69
        90.      2.397     204.82
        90.      2.401     144.58
        90.      2.408     216.87
        90.      2.412     191.57
        90.      2.418     225.30
        90.      2.423     239.76
        90.      2.428     262.65
        90.      2.434     263.86
        90.      2.438     242.17
        90.      2.442     228.92
        90.      2.449     191.57
        90.      2.452     206.02
        90.      2.463     197.59
        90.      2.470     215.66
        90.      2.473     224.10
        90.      2.480     204.82
        90.      2.486     207.23
        90.      2.497     200.00
        90.      2.506     190.36
        90.      2.516     207.23
        90.      2.526     185.54
        90.      2.536     202.41
        90.      2.547     200.00
        90.      2.558     196.39
        90.      2.563     250.60
        90.      2.569     218.07
        90.      2.578     195.18
        90.      2.589     197.59
        90.      2.598     180.72
        90.      2.602     192.77
        90.      2.609     202.41
        90.      2.619     179.52
        90.      2.630     172.29
        90.      2.639     202.41
        90.      2.650     178.31
        90.      2.660     195.18
        90.      2.671     222.89
        90.      2.682     187.95
        90.      2.692     186.75
        90.      2.701     202.41
        90.      2.712     173.49
        90.      2.722     180.72
        90.      2.733     169.88
        90.      2.742     177.11
        90.      2.752     173.49
        90.      2.759     177.11
        90.      2.763     153.01
        90.      2.769     173.49
        90.      2.772     184.34
        90.      2.780     189.16
        90.      2.783     172.29
        90.      2.794     167.47
        90.      2.803     180.72
        90.      2.813     168.67
        90.      2.824     174.70
        90.      2.836     171.08
        90.      2.844     173.49
        90.      2.856     174.70
        90.      2.866     167.47
        90.      2.876     175.90
        90.      2.886     154.22
        90.      2.894     168.67
        90.      2.898     163.86
        90.      2.906     161.45
        90.      2.916     156.63
        90.      2.922     149.40
        90.      2.926     163.86
        90.      2.928     139.76
        90.      2.936     137.35
        90.      2.940     122.89
        90.      2.944     180.72
        90.      2.951     226.51
        90.      2.956     183.13
        90.      2.960     174.70
        90.      2.966     181.93
        90.      2.974     151.81
        90.      2.986     146.99
        90.      2.996     144.58
        90.      3.006     145.78
        90.      3.017     112.05
        90.      3.026      95.18
        90.      3.030      69.88
        90.      3.036      46.99
        90.      3.041      69.88
        90.      3.046     185.54
        90.      3.052     191.57
        90.      3.057     166.27
        90.      3.068     195.18
        90.      3.078     172.29
        90.      3.087     195.18
        90.      3.096     183.13
        90.      3.108     177.11
        90.      3.117     187.95
        90.      3.128     162.65
        90.      3.138     174.70
        90.      3.148     206.02
        90.      3.158     144.58
        90.      3.167     131.33
        90.      3.173     168.67
        90.      3.182     153.01
        90.      3.188     163.86
        90.      3.197     178.31
        90.      3.208     179.52
        90.      3.220     193.98
        90.      3.228     204.82
        90.      3.238     177.11
        90.      3.248     177.11
        90.      3.257     163.86
        90.      3.268     143.37
        90.      3.276      91.57
        90.      3.287     165.06
        90.      3.299     190.36
        90.      3.308     201.20
        90.      3.319     191.57
        90.      3.326     185.54
        90.      3.329     203.61
        90.      3.336     192.77
        90.      3.339     166.27
        90.      3.349     162.65
        90.      3.359     159.04
        90.      3.369     166.27
        90.      3.378     161.45
        90.      3.388     159.04
        90.      3.398     149.40
        90.      3.407     167.47
        90.      3.417     165.06
        90.      3.428     145.78
        90.      3.437     169.88
        90.      3.444     169.88
        90.      3.459     144.58
        90.      3.467     127.71
        90.      3.478     130.12
        90.      3.490     130.12
        90.      3.497     118.07
        90.      3.508     119.28
        90.      3.517     106.02
        90.      3.522     113.25
        90.      3.528     104.82
        90.      3.534      85.54
        90.      3.537      46.99
        90.      3.544      63.86
        90.      3.547     126.51
        90.      3.558     153.01
        90.      3.568     139.76
        90.      3.579     108.43
        90.      3.590     125.30
        90.      3.599     126.51
        90.      3.609     126.51
        90.      3.619     153.01
        90.      3.626     127.71
        90.      3.638     128.92
        90.      3.648     122.89
        90.      3.653     114.46
        90.      3.658     100.00
        90.      3.669     108.43
        90.      3.680      95.18
        90.      3.683      81.93
        90.      3.689      45.78
        90.      3.700      45.78
        90.      3.710      89.16
        90.      3.720     106.02
        90.      3.731     131.33
       125.      1.539     173.96
       125.      1.550     170.33
       125.      1.560     172.76
       125.      1.570     165.49
       125.      1.580     163.07
       125.      1.590     165.49
       125.      1.600     165.49
       125.      1.610     158.22
       125.      1.620     149.74
       125.      1.631     177.62
       125.      1.641     163.08
       125.      1.652     157.02
       125.      1.660     160.66
       125.      1.670     159.45
       125.      1.680     158.24
       125.      1.689     157.03
       125.      1.700     143.70
       125.      1.711     144.92
       125.      1.719     159.46
       125.      1.729     146.13
       125.      1.739     148.56
       125.      1.750     143.71
       125.      1.759     146.14
       125.      1.769     134.02
       125.      1.780     136.45
       125.      1.790     136.45
       125.      1.799     134.03
       125.      1.809     131.61
       125.      1.820     127.98
       125.      1.830     124.34
       125.      1.840     124.34
       125.      1.850     125.56
       125.      1.861     118.29
       125.      1.870     119.50
       125.      1.877     121.93
       125.      1.881     142.54
       125.      1.884     212.84
       125.      1.891     119.51
       125.      1.897     108.60
       125.      1.905     103.75
       125.      1.913     102.54
       125.      1.920      97.70
       125.      1.930      88.00
       125.      1.941      79.52
       125.      1.952      75.89
       125.      1.961      69.83
       125.      1.971      67.41
       125.      1.981      67.41
       125.      1.991      85.59
       125.      2.002     146.20
       125.      2.012     252.87
       125.      2.020     349.84
       125.      2.028     400.76
       125.      2.039     410.45
       125.      2.052     374.09
       125.      2.061     330.46
       125.      2.071     321.98
       125.      2.080     300.16
       125.      2.092     261.38
       125.      2.102     245.62
       125.      2.113     232.29
       125.      2.123     204.42
       125.      2.134     214.12
       125.      2.143     243.21
       125.      2.154     233.51
       125.      2.164     225.03
       125.      2.172     252.91
       125.      2.182     212.92
       125.      2.192     208.07
       125.      2.203     203.22
       125.      2.214     186.26
       125.      2.224     192.32
       125.      2.235     188.69
       125.      2.245     185.05
       125.      2.254     189.90
       125.      2.265     176.57
       125.      2.275     185.06
       125.      2.286     108.70
       125.      2.294     152.34
       125.      2.306     158.40
       125.      2.317     153.56
       125.      2.327     155.98
       125.      2.337     142.65
       125.      2.345     135.38
       125.      2.356     132.96
       125.      2.367     111.14
       125.      2.377     156.00
       125.      2.387     157.21
       125.      2.397     205.70
       125.      2.408     197.22
       125.      2.418     146.31
       125.      2.429     139.04
       125.      2.438     120.86
       125.      2.450     189.95
       125.      2.459     164.50
       125.      2.468     152.38
       125.      2.480     148.75
       125.      2.490     146.33
       125.      2.499     136.63
       125.      2.511     142.70
       125.      2.521     139.06
       125.      2.532     152.40
       125.      2.540     139.07
       125.      2.550     129.37
       125.      2.562     126.95
       125.      2.572     126.95
       125.      2.583     133.02
       125.      2.593     133.02
       125.      2.603     124.54
       125.      2.614     126.97
       125.      2.624      99.09
       125.      2.634     141.52
       125.      2.644     129.40
       125.      2.654     146.37
       125.      2.666     113.65
       125.      2.675     130.62
       125.      2.686     126.98
       125.      2.697     124.56
       125.      2.707     118.50
       125.      2.717     117.29
       125.      2.728     118.51
       125.      2.736     118.51
       125.      2.746     122.15
       125.      2.756     123.37
       125.      2.764     117.31
       125.      2.767     106.40
       125.      2.774     102.76
       125.      2.779     101.55
       125.      2.783     113.68
       125.      2.788     107.62
       125.      2.793      99.13
       125.      2.799     102.77
       125.      2.807     102.77
       125.      2.813     110.05
       125.      2.818     101.56
       125.      2.828      99.14
       125.      2.837      94.30
       125.      2.848      95.51
       125.      2.858      97.94
       125.      2.877      96.73
       125.      2.887      89.46
       125.      2.893      96.73
       125.      2.903      77.34
       125.      2.906      88.25
       125.      2.913      83.41
       125.      2.918      84.62
       125.      2.922      89.47
       125.      2.927      95.53
       125.      2.932     168.26
       125.      2.935     114.93
       125.      2.937      67.65
       125.      2.943      66.44
       125.      2.948      74.93
       125.      2.951      82.20
       125.      2.958      83.42
       125.      2.962      73.72
       125.      2.969      76.15
       125.      2.976      68.88
       125.      2.987      67.67
       125.      2.996      57.97
       125.      3.007      41.01
       125.      3.018      17.98
       125.      3.023      30.10
       125.      3.028      91.92
       125.      3.034     231.31
       125.      3.038     162.23
       125.      3.044     136.77
       125.      3.049     128.29
       125.      3.058     117.38
       125.      3.068      95.57
       125.      3.078     104.05
       125.      3.088      91.94
       125.      3.099     102.85
       125.      3.109      98.00
       125.      3.119      90.73
       125.      3.130      89.52
       125.      3.138      73.77
       125.      3.148     112.56
       125.      3.153      98.01
       125.      3.160      95.59
       125.      3.168      76.20
       125.      3.178      73.78
       125.      3.188      84.69
       125.      3.198      87.11
       125.      3.208      64.09
       125.      3.219      68.94
       125.      3.228      65.30
       125.      3.237      71.37
       125.      3.246      61.67
       125.      3.257      62.89
       125.      3.267     133.19
       125.      3.274     146.53
       125.      3.279     139.26
       125.      3.288     107.74
       125.      3.298      96.84
       125.      3.307      91.99
       125.      3.317      88.36
       125.      3.327      83.51
       125.      3.338      85.94
       125.      3.346      81.09
       125.      3.358      79.88
       125.      3.367      76.25
       125.      3.378      77.46
       125.      3.388      73.83
       125.      3.398      76.26
       125.      3.407      67.77
       125.      3.416      75.05
       125.      3.427      66.57
       125.      3.436      36.27
       125.      3.447      48.39
       125.      3.456      55.67
       125.      3.468      54.46
       125.      3.478      55.67
       125.      3.487      55.67
       125.      3.498      53.25
       125.      3.507      48.41
       125.      3.516      24.17
       125.      3.523      15.68
       125.      3.528      33.87
       125.      3.533     104.17
       125.      3.538     111.44
       125.      3.541      92.05
       125.      3.547      85.99
       125.      3.551      75.08
       125.      3.558      70.24
       125.      3.568      65.39
       125.      3.577      58.12
       125.      3.587      50.85
       125.      3.597      27.82
       125.      3.604      30.25
       125.      3.605      41.16
       125.      3.613      42.37
       125.      3.619      43.59
       125.      3.621      66.62
       125.      3.627      53.28
       125.      3.635      49.65
       125.      3.636      42.38
       125.      3.649      44.81
       125.      3.659      38.75
       125.      3.669      53.30
       125.      3.676      58.15
       125.      3.679      42.39
       125.      3.684      67.84
       125.      3.688     104.21
       125.      3.692     117.54
       125.      3.697     107.85
       125.      3.699     124.82
       125.      3.701     101.79
       125.      3.709      95.73
       125.      3.715     101.79
       125.      3.720      93.31
       141.      1.539     169.16
       141.      1.550     159.44
       141.      1.559     155.79
       141.      1.570     157.00
       141.      1.580     152.13
       141.      1.589     132.69
       141.      1.599     148.47
       141.      1.610     124.17
       141.      1.620     142.39
       141.      1.630     169.10
       141.      1.641     148.44
       141.      1.652     147.22
       141.      1.661     144.78
       141.      1.671     135.06
       141.      1.680     132.63
       141.      1.691     137.48
       141.      1.701     121.68
       141.      1.711     142.32
       141.      1.720     156.89
       141.      1.731     145.95
       141.      1.740     137.44
       141.      1.750     139.86
       141.      1.761     131.35
       141.      1.771     138.63
       141.      1.780     119.19
       141.      1.790     107.04
       141.      1.802     120.39
       141.      1.812     117.96
       141.      1.821     109.45
       141.      1.832     107.01
       141.      1.842     104.58
       141.      1.850     102.14
       141.      1.860     102.13
       141.      1.871     100.91
       141.      1.878     176.21
       141.      1.881     206.57
       141.      1.886     219.93
       141.      1.889     104.54
       141.      1.902      80.24
       141.      1.913      77.80
       141.      1.923      72.94
       141.      1.933      68.07
       141.      1.941      64.42
       141.      1.951      54.70
       141.      1.961      49.83
       141.      1.972      51.04
       141.      1.983      59.54
       141.      1.992      97.18
       141.      1.998     145.76
       141.      2.002     211.34
       141.      2.006     325.51
       141.      2.010     410.53
       141.      2.015     529.55
       141.      2.019     597.56
       141.      2.029     677.72
       141.      2.040     681.35
       141.      2.050     559.89
       141.      2.063     495.51
       141.      2.072     387.40
       141.      2.082     398.33
       141.      2.092     318.16
       141.      2.104     295.07
       141.      2.112     267.13
       141.      2.124     239.19
       141.      2.135     178.45
       141.      2.139     275.62
       141.      2.144     358.20
       141.      2.148     310.83
       141.      2.154     282.89
       141.      2.159     252.53
       141.      2.173     282.88
       141.      2.178     263.44
       141.      2.182     216.07
       141.      2.189     203.92
       141.      2.193     211.21
       141.      2.200     209.99
       141.      2.207     209.98
       141.      2.214     209.98
       141.      2.224     192.97
       141.      2.235     185.67
       141.      2.244     184.45
       141.      2.255     174.72
       141.      2.266     182.00
       141.      2.275     174.71
       141.      2.284     169.85
       141.      2.295     178.34
       141.      2.304     151.61
       141.      2.311     161.32
       141.      2.314     143.10
       141.      2.324     132.17
       141.      2.335     123.66
       141.      2.346     109.07
       141.      2.357      79.92
       141.      2.366      71.41
       141.      2.375     127.27
       141.      2.385     181.92
       141.      2.396     220.78
       141.      2.402     303.36
       141.      2.406     155.18
       141.      2.417     117.52
       141.      2.428      75.01
       141.      2.438     133.30
       141.      2.443     141.80
       141.      2.448     101.71
       141.      2.458     177.01
       141.      2.463     168.50
       141.      2.469     161.21
       141.      2.473     145.42
       141.      2.480     141.77
       141.      2.487     150.27
       141.      2.499     141.76
       141.      2.509     151.47
       141.      2.520     130.81
       141.      2.530     140.52
       141.      2.540     127.15
       141.      2.551     127.14
       141.      2.561     118.64
       141.      2.572     134.42
       141.      2.583     124.69
       141.      2.592     133.19
       141.      2.602     118.61
       141.      2.612     110.10
       141.      2.622     113.73
       141.      2.632     151.38
       141.      2.638     138.01
       141.      2.642     116.15
       141.      2.652     108.85
       141.      2.663     142.85
       141.      2.670     136.78
       141.      2.675     144.06
       141.      2.680     135.55
       141.      2.684     120.98
       141.      2.695     117.33
       141.      2.707     120.96
       141.      2.716     113.67
       141.      2.727     116.09
       141.      2.737     105.15
       141.      2.747      75.99
       141.      2.750     127.00
       141.      2.758     112.42
       141.      2.762     134.28
       141.      2.765     263.02
       141.      2.769     141.56
       141.      2.771      92.98
       141.      2.778      92.97
       141.      2.787     100.26
       141.      2.796     102.68
       141.      2.806     101.46
       141.      2.817      90.52
       141.      2.827      89.30
       141.      2.837      95.36
       141.      2.848      92.93
       141.      2.859      91.70
       141.      2.869      90.48
       141.      2.878      89.26
       141.      2.888      90.47
       141.      2.898      88.03
       141.      2.908      95.31
       141.      2.918     109.88
       141.      2.923      89.23
       141.      2.928      77.08
       141.      2.933      86.79
       141.      2.938     124.44
       141.      2.943     188.81
       141.      2.948      91.64
       141.      2.953      77.06
       141.      2.960      72.20
       141.      2.967      68.55
       141.      2.977      67.33
       141.      2.986      58.82
       141.      2.998      53.95
       141.      3.008      45.44
       141.      3.018      27.22
       141.      3.027      12.64
       141.      3.040     136.51
       141.      3.044     166.87
       141.      3.049     148.65
       141.      3.054     140.14
       141.      3.059     130.43
       141.      3.065     115.85
       141.      3.070     107.34
       141.      3.079      92.76
       141.      3.090      78.18
       141.      3.099      90.32
       141.      3.108      74.52
       141.      3.119      69.65
       141.      3.129      59.93
       141.      3.139      48.99
       141.      3.149      44.13
       141.      3.161     124.28
       141.      3.167      73.26
       141.      3.174      74.47
       141.      3.178      69.61
       141.      3.188      63.53
       141.      3.199      59.88
       141.      3.209      62.30
       141.      3.218      39.22
       141.      3.228      34.35
       141.      3.239      33.13
       141.      3.247      37.98
       141.      3.258      40.40
       141.      3.268      68.33
       141.      3.272     189.79
       141.      3.282     210.43
       141.      3.284     181.28
       141.      3.287     152.12
       141.      3.293     130.26
       141.      3.297     110.82
       141.      3.305     110.82
       141.      3.310     104.74
       141.      3.319      92.59
       141.      3.330      92.58
       141.      3.340      87.71
       141.      3.350      84.06
       141.      3.358      88.92
       141.      3.369      68.26
       141.      3.379      64.61
       141.      3.389      62.17
       141.      3.398      56.09
       141.      3.409      54.87
       141.      3.419      37.86
       141.      3.430      65.79
       141.      3.439      30.56
       141.      3.447      46.34
       141.      3.458      93.70
       141.      3.466      87.62
       141.      3.470      77.90
       141.      3.480      60.89
       141.      3.490      56.03
       141.      3.501      53.59
       141.      3.511      43.87
       141.      3.521      37.79
       141.      3.530      18.35
       141.      3.539      19.56
       141.      3.542     122.79
       141.      3.547     134.93
       141.      3.552     108.21
       141.      3.559     103.35
       141.      3.562      82.70
       141.      3.567      70.55
       141.      3.573      52.33
       141.      3.580      48.68
       141.      3.581      68.11
       141.      3.588      58.39
       141.      3.593      52.31
       141.      3.602      25.58
       141.      3.605       4.93
       141.      3.613       3.71
       141.      3.622      43.79
       141.      3.628      80.22
       141.      3.634      70.50
       141.      3.644      51.06
       141.      3.654      42.55
       141.      3.667      31.61
       141.      3.677      20.67
       141.      3.687      92.32
       141.      3.693      82.60
       141.      3.699      91.10
       141.      3.707     151.82
       141.      3.714     155.46
       141.      3.719     165.18
       141.      3.726     111.73
ENDDATA            782
ENDSUBENT          793
ENDENTRY             3
