ENTRY            F0964   20090226   20090508   20090508       F035
SUBENT        F0964001   20090226   20090508   20090508       F035
BIB                  9         17
TITLE      Fluctuation analysis of the excitation functions for
           the (p,p') and (p,a) reactions on 23Na for proton
           energies in the 6.5 MeV region.
AUTHOR     (S.S.Vasilyev,T.N.Mikhaleva,D.L.Chuprunov)
INSTITUTE  (4RUSMOS)
REFERENCE  (J,IZV,32,587,1968)
           (J,BAS,32,539,1969)
           (J,IZV,32,594,1968)
           (J,BAS,32,545,1969)
FACILITY   (CYCLO)
DETECTOR   (SCIN) Scintillation spectrometer
SAMPLE     The Na targets were of 0.2-0.8 mg/cm2 thickness. Metal
           sodium was evaporated onto a thin organic or gold
           backing.
ERR-ANALYS (EN-ERR-DIG) Energy digitizing error
           (ERR-DIG)    Data digitizing error
HISTORY    (20090226C)
ENDBIB              17
NOCOMMON             0          0
ENDSUBENT           20
SUBENT        F0964002   20090226   20090508   20090508       F035
BIB                  2          2
REACTION   (11-NA-23(P,A)10-NE-20,PAR,DA,,REL)
STATUS     (CURVE) Fig.1
ENDBIB               2
COMMON               2          3
EN-ERR-DIG ERR-DIG
MEV        ARB-UNITS
 0.001      0.104
ENDCOMMON            3
DATA                 4        192
E-LVL      ANG        EN         DATA
KEV        ADEG       MEV        ARB-UNITS
         0.       120.     6.2417     600.31
         0.       120.     6.2534     596.32
         0.       120.     6.2651     576.42
         0.       120.     6.2729     540.59
         0.       120.     6.2837     549.54
         0.       120.     6.2954      577.4
         0.       120.     6.3051     590.33
         0.       120.     6.3149     631.12
         0.       120.     6.3257     664.95
         0.       120.     6.3335      672.9
         0.       120.     6.3452     667.92
         0.       120.     6.3559     657.97
         0.       120.     6.3657     647.02
         0.       120.     6.3764     642.04
         0.       120.     6.3852       649.
         0.       120.     6.3959     652.98
         0.       120.     6.4047     669.89
         0.       120.     6.4145     693.76
         0.       120.     6.4271     632.07
         0.       120.     6.4359     583.31
         0.       120.     6.4456     557.43
         0.       120.     6.4573     574.34
         0.       120.     6.4661     548.47
         0.       120.     6.4759     547.47
         0.       120.     6.4866      539.5
         0.       120.     6.4973     535.52
         0.       120.     6.5071     563.37
         0.       120.     6.5168     542.47
         0.       120.     6.5256     574.31
         0.       120.     6.5364     585.25
         0.       120.     6.5471     569.33
         0.       120.     6.5559     561.36
         0.       120.     6.5666     555.39
         0.       120.     6.5764     576.28
         0.       120.     6.5881     586.22
         0.       120.     6.5959      590.2
         0.       120.     6.6066     610.09
         0.       120.     6.6164     624.02
         0.       120.     6.6251     602.13
         0.       120.     6.6378      546.4
         0.       120.     6.6485     566.29
         0.       120.     6.6573     527.49
         0.       120.      6.668     489.67
         0.       120.     6.6778     472.75
         0.       120.     6.6895      460.8
         0.       120.     6.7002     456.82
         0.       120.       6.71     457.81
         0.       120.     6.7197     434.92
         0.       140.     6.2496     723.36
         0.       140.     6.2592     715.46
         0.       140.     6.2698     707.57
         0.       140.     6.2794     728.29
         0.       140.     6.2899     750.99
         0.       140.     6.3005     765.79
         0.       140.     6.3101     798.36
         0.       140.     6.3187     855.59
         0.       140.     6.3283     864.47
         0.       140.     6.3388     855.59
         0.       140.     6.3484     876.32
         0.       140.      6.359     869.41
         0.       140.     6.3667     849.67
         0.       140.     6.3782     854.61
         0.       140.     6.3868     859.54
         0.       140.     6.3983     866.45
         0.       140.     6.4079     838.82
         0.       140.     6.4165     784.54
         0.       140.     6.4271     785.53
         0.       140.     6.4367     744.08
         0.       140.     6.4463     686.84
         0.       140.     6.4568     644.41
         0.       140.     6.4664     648.36
         0.       140.     6.4751     605.92
         0.       140.     6.4847     596.05
         0.       140.     6.4952     612.83
         0.       140.     6.5058     635.53
         0.       140.     6.5153     683.88
         0.       140.      6.524     722.37
         0.       140.     6.5355     722.37
         0.       140.     6.5451     692.77
         0.       140.     6.5537     703.62
         0.       140.     6.5652      735.2
         0.       140.     6.5739     743.09
         0.       140.     6.5844      832.9
         0.       140.      6.593     893.09
         0.       140.     6.6045     901.98
         0.       140.     6.6132     897.04
         0.       140.     6.6237     893.09
         0.       140.     6.6324     828.95
         0.       140.     6.6429     866.45
         0.       140.     6.6516     778.62
         0.       140.     6.6621     689.81
         0.       140.     6.6727     669.08
         0.       140.     6.6822     652.31
         0.       140.     6.6938     644.41
         0.       140.     6.7034     650.33
         0.       140.     6.7129     666.12
  1.630E+03       120.     6.2445 1.0338E+03
  1.630E+03       120.     6.2532 1.0338E+03
  1.630E+03       120.      6.262     996.17
  1.630E+03       120.     6.2737     994.19
  1.630E+03       120.     6.2835     982.31
  1.630E+03       120.     6.2932     994.19
  1.630E+03       120.      6.304 1.1051E+03
  1.630E+03       120.     6.3147 1.1605E+03
  1.630E+03       120.     6.3264 1.2001E+03
  1.630E+03       120.     6.3352 1.2298E+03
  1.630E+03       120.      6.345 1.2952E+03
  1.630E+03       120.     6.3547 1.3645E+03
  1.630E+03       120.     6.3655 1.4358E+03
  1.630E+03       120.     6.3742 1.4754E+03
  1.630E+03       120.      6.385 1.4932E+03
  1.630E+03       120.     6.3967 1.4199E+03
  1.630E+03       120.     6.4045 1.4377E+03
  1.630E+03       120.     6.4152 1.4694E+03
  1.630E+03       120.     6.4259 1.3427E+03
  1.630E+03       120.     6.4367 1.2813E+03
  1.630E+03       120.     6.4455 1.2436E+03
  1.630E+03       120.     6.4562 1.1922E+03
  1.630E+03       120.      6.465 1.1644E+03
  1.630E+03       120.     6.4747 1.1783E+03
  1.630E+03       120.     6.4854 1.1387E+03
  1.630E+03       120.     6.4962 1.1763E+03
  1.630E+03       120.     6.5069 1.2179E+03
  1.630E+03       120.     6.5167 1.1585E+03
  1.630E+03       120.     6.5254 1.1941E+03
  1.630E+03       120.     6.5362 1.2159E+03
  1.630E+03       120.     6.5469 1.2397E+03
  1.630E+03       120.     6.5557 1.2733E+03
  1.630E+03       120.     6.5674 1.2001E+03
  1.630E+03       120.     6.5762 1.2614E+03
  1.630E+03       120.     6.5889 1.2594E+03
  1.630E+03       120.     6.5976 1.2951E+03
  1.630E+03       120.     6.6055 1.3208E+03
  1.630E+03       120.     6.6152 1.3585E+03
  1.630E+03       120.     6.6269 1.3386E+03
  1.630E+03       120.     6.6347 1.3545E+03
  1.630E+03       120.     6.6464 1.4713E+03
  1.630E+03       120.     6.6562 1.3703E+03
  1.630E+03       120.     6.6659 1.3881E+03
  1.630E+03       120.     6.6747 1.4060E+03
  1.630E+03       120.     6.6855 1.3921E+03
  1.630E+03       120.     6.6972 1.3980E+03
  1.630E+03       120.     6.7069 1.3802E+03
  1.630E+03       120.     6.7167 1.3762E+03
  1.630E+03       140.     6.2458     932.74
  1.630E+03       140.     6.2573     908.98
  1.630E+03       140.     6.2669     932.74
  1.630E+03       140.     6.2785      936.7
  1.630E+03       140.      6.288     942.64
  1.630E+03       140.     6.2967     948.58
  1.630E+03       140.     6.3053     962.44
  1.630E+03       140.     6.3159 1.0595E+03
  1.630E+03       140.     6.3283 1.0951E+03
  1.630E+03       140.     6.3379 1.1070E+03
  1.630E+03       140.     6.3475 1.1050E+03
  1.630E+03       140.     6.3562 1.1129E+03
  1.630E+03       140.     6.3657 1.1268E+03
  1.630E+03       140.     6.3782 1.1783E+03
  1.630E+03       140.     6.3869 1.2139E+03
  1.630E+03       140.     6.3984 1.2456E+03
  1.630E+03       140.      6.407 1.2080E+03
  1.630E+03       140.     6.4166 1.1624E+03
  1.630E+03       140.     6.4271 1.1268E+03
  1.630E+03       140.     6.4367 1.0852E+03
  1.630E+03       140.     6.4454 1.0594E+03
  1.630E+03       140.     6.4569 1.0832E+03
  1.630E+03       140.     6.4665 1.0891E+03
  1.630E+03       140.     6.4761 1.0614E+03
  1.630E+03       140.     6.4856 1.0832E+03
  1.630E+03       140.     6.4943 1.1208E+03
  1.630E+03       140.     6.5048 1.1347E+03
  1.630E+03       140.     6.5154 1.2139E+03
  1.630E+03       140.      6.525 1.1565E+03
  1.630E+03       140.     6.5355 1.1525E+03
  1.630E+03       140.     6.5442 1.1802E+03
  1.630E+03       140.     6.5528 1.2178E+03
  1.630E+03       140.     6.5653 1.2614E+03
  1.630E+03       140.     6.5739 1.2198E+03
  1.630E+03       140.     6.5825 1.1565E+03
  1.630E+03       140.     6.5931 1.3763E+03
  1.630E+03       140.     6.6027 1.3822E+03
  1.630E+03       140.     6.6123 1.4891E+03
  1.630E+03       140.     6.6228 1.4515E+03
  1.630E+03       140.     6.6343 1.4000E+03
  1.630E+03       140.      6.642 1.4970E+03
  1.630E+03       140.     6.6535 1.5149E+03
  1.630E+03       140.     6.6631 1.5109E+03
  1.630E+03       140.     6.6717 1.4871E+03
  1.630E+03       140.     6.6813 1.4495E+03
  1.630E+03       140.     6.6919 1.3881E+03
  1.630E+03       140.     6.7015 1.4158E+03
  1.630E+03       140.     6.7111 1.4832E+03
ENDDATA            194
ENDSUBENT          205
SUBENT        F0964003   20090226   20090508   20090508       F035
BIB                  2          2
REACTION   (11-NA-23(P,INL)11-NA-23,PAR,DA,,REL)
STATUS     (CURVE) Fig.1
ENDBIB               2
COMMON               2          3
EN-ERR-DIG ERR-DIG
MEV        ARB-UNITS
 0.001      0.082
ENDCOMMON            3
DATA                 4        291
E-LVL      ANG        EN         DATA
KEV        ADEG       MEV        ARB-UNITS
  2.080E+03       120.     6.2453 1.7470E+03
  2.080E+03       120.      6.255 1.6764E+03
  2.080E+03       120.     6.2628 1.6293E+03
  2.080E+03       120.     6.2746 1.6528E+03
  2.080E+03       120.     6.2843 1.6254E+03
  2.080E+03       120.      6.295 1.5548E+03
  2.080E+03       120.     6.3058 1.5764E+03
  2.080E+03       120.     6.3146 1.5764E+03
  2.080E+03       120.     6.3243 1.5960E+03
  2.080E+03       120.     6.3341 1.6411E+03
  2.080E+03       120.     6.3409 1.6803E+03
  2.080E+03       120.     6.3536 1.6823E+03
  2.080E+03       120.     6.3653 1.6568E+03
  2.080E+03       120.      6.376 1.6450E+03
  2.080E+03       120.     6.3868 1.6274E+03
  2.080E+03       120.     6.3955 1.5568E+03
  2.080E+03       120.     6.4053 1.4862E+03
  2.080E+03       120.     6.4151 1.4411E+03
  2.080E+03       120.     6.4248 1.4843E+03
  2.080E+03       120.     6.4336 1.6137E+03
  2.080E+03       120.     6.4453 1.7313E+03
  2.080E+03       120.      6.456 1.5646E+03
  2.080E+03       120.     6.4668 1.5490E+03
  2.080E+03       120.     6.4765 1.5431E+03
  2.080E+03       120.     6.4863 1.4901E+03
  2.080E+03       120.      6.496 1.5607E+03
  2.080E+03       120.     6.5067 1.6725E+03
  2.080E+03       120.     6.5146 1.6078E+03
  2.080E+03       120.     6.5272 1.6000E+03
  2.080E+03       120.      6.538 1.5921E+03
  2.080E+03       120.     6.5468 1.5804E+03
  2.080E+03       120.     6.5546 1.5372E+03
  2.080E+03       120.     6.5633 1.5078E+03
  2.080E+03       120.      6.576 1.5294E+03
  2.080E+03       120.     6.5868 1.5215E+03
  2.080E+03       120.     6.5965 1.5706E+03
  2.080E+03       120.     6.6043 1.5353E+03
  2.080E+03       120.     6.6151 1.4823E+03
  2.080E+03       120.     6.6268 1.5510E+03
  2.080E+03       120.     6.6365 1.4941E+03
  2.080E+03       120.     6.6472 1.4961E+03
  2.080E+03       120.      6.658 1.5392E+03
  2.080E+03       120.     6.6668 1.5314E+03
  2.080E+03       120.     6.6775 1.5529E+03
  2.080E+03       120.     6.6863 1.5921E+03
  2.080E+03       120.      6.696 1.6196E+03
  2.080E+03       120.     6.7077 1.5941E+03
  2.080E+03       120.     6.7194 1.6020E+03
  2.080E+03       140.     6.2454 1.1831E+03
  2.080E+03       140.     6.2569 1.1494E+03
  2.080E+03       140.     6.2674 1.1553E+03
  2.080E+03       140.     6.2789 1.1632E+03
  2.080E+03       140.     6.2885 1.0820E+03
  2.080E+03       140.     6.2971 1.0345E+03
  2.080E+03       140.     6.3106 1.0919E+03
  2.080E+03       140.     6.3173 1.1137E+03
  2.080E+03       140.     6.3259 1.1493E+03
  2.080E+03       140.     6.3384 1.2047E+03
  2.080E+03       140.     6.3471 1.2205E+03
  2.080E+03       140.     6.3586 1.2205E+03
  2.080E+03       140.     6.3691 1.1849E+03
  2.080E+03       140.     6.3777 1.1551E+03
  2.080E+03       140.     6.3873 1.1116E+03
  2.080E+03       140.     6.3969 1.0363E+03
  2.080E+03       140.     6.4064     996.67
  2.080E+03       140.     6.4151     961.02
  2.080E+03       140.     6.4275     964.95
  2.080E+03       140.     6.4391     992.65
  2.080E+03       140.     6.4439 1.0204E+03
  2.080E+03       140.     6.4563 1.0283E+03
  2.080E+03       140.     6.4669     980.72
  2.080E+03       140.     6.4765 1.0005E+03
  2.080E+03       140.     6.4851 1.0441E+03
  2.080E+03       140.     6.4976 1.0935E+03
  2.080E+03       140.     6.5082 1.0797E+03
  2.080E+03       140.     6.5149 1.0361E+03
  2.080E+03       140.     6.5254 1.0064E+03
  2.080E+03       140.     6.5331     986.54
  2.080E+03       140.     6.5446     986.52
  2.080E+03       140.     6.5551 1.0004E+03
  2.080E+03       140.     6.5638 1.0162E+03
  2.080E+03       140.     6.5772 1.0300E+03
  2.080E+03       140.      6.583 1.0973E+03
  2.080E+03       140.     6.5926 1.0439E+03
  2.080E+03       140.     6.6022 1.1389E+03
  2.080E+03       140.     6.6147 1.1884E+03
  2.080E+03       140.     6.6233 1.0636E+03
  2.080E+03       140.     6.6338 1.0596E+03
  2.080E+03       140.     6.6444 1.0952E+03
  2.080E+03       140.      6.654 1.0734E+03
  2.080E+03       140.     6.6636 1.0833E+03
  2.080E+03       140.     6.6751 1.1427E+03
  2.080E+03       140.     6.6837 1.1843E+03
  2.080E+03       140.     6.6914 1.2358E+03
  2.080E+03       140.      6.703 1.2615E+03
  2.080E+03       140.      6.707 1.2773E+03
  2.080E+03       140.     6.7136 1.3882E+03
  2.391E+03       120.     6.2414     200.02
  2.391E+03       120.     6.2541     214.87
  2.391E+03       120.     6.2658     214.88
  2.391E+03       120.     6.2756     161.42
  2.391E+03       120.     6.2873     160.43
  2.391E+03       120.     6.2941     211.92
  2.391E+03       120.     6.3087     295.09
  2.391E+03       120.     6.3175     247.57
  2.391E+03       120.     6.3253     231.73
  2.391E+03       120.      6.335     242.62
  2.391E+03       120.     6.3487     229.76
  2.391E+03       120.     6.3546     206.99
  2.391E+03       120.     6.3673     179.27
  2.391E+03       120.      6.376     157.49
  2.391E+03       120.     6.3868     140.66
  2.391E+03       120.     6.3956     130.76
  2.391E+03       120.     6.4063     120.87
  2.391E+03       120.      6.418      117.9
  2.391E+03       120.     6.4268     154.54
  2.391E+03       120.     6.4365     198.11
  2.391E+03       120.     6.4472     217.91
  2.391E+03       120.      6.456     156.53
  2.391E+03       120.     6.4677     211.98
  2.391E+03       120.     6.4746     213.96
  2.391E+03       120.     6.4902     224.86
  2.391E+03       120.      6.498     259.51
  2.391E+03       120.     6.5058     275.36
  2.391E+03       120.     6.5165     157.54
  2.391E+03       120.     6.5273     152.59
  2.391E+03       120.      6.537     155.57
  2.391E+03       120.     6.5478     143.69
  2.391E+03       120.     6.5565     151.61
  2.391E+03       120.     6.5682     140.73
  2.391E+03       120.      6.577     127.86
  2.391E+03       120.     6.5858     113.01
  2.391E+03       120.     6.5985     97.174
  2.391E+03       120.     6.6063     122.92
  2.391E+03       120.      6.618     225.89
  2.391E+03       120.     6.6297     152.63
  2.391E+03       120.     6.6356     130.85
  2.391E+03       120.     6.6473     124.91
  2.391E+03       120.      6.656     138.78
  2.391E+03       120.     6.6678     140.76
  2.391E+03       120.     6.6775     184.33
  2.391E+03       120.     6.6863     225.92
  2.391E+03       120.     6.6999     146.71
  2.391E+03       120.     6.7097     170.48
  2.391E+03       120.     6.7185     184.35
  2.391E+03       140.     6.2457      279.7
  2.391E+03       140.     6.2553     320.67
  2.391E+03       140.     6.2678     258.24
  2.391E+03       140.     6.2783     277.76
  2.391E+03       140.     6.2889     299.23
  2.391E+03       140.     6.2965     308.01
  2.391E+03       140.      6.309     330.45
  2.391E+03       140.     6.3195      324.6
  2.391E+03       140.     6.3291     314.85
  2.391E+03       140.     6.3378      305.1
  2.391E+03       140.     6.3493      253.4
  2.391E+03       140.     6.3579     240.72
  2.391E+03       140.     6.3647     247.55
  2.391E+03       140.     6.3742     235.85
  2.391E+03       140.     6.3752     224.14
  2.391E+03       140.     6.3867     188.05
  2.391E+03       140.     6.4002     205.61
  2.391E+03       140.     6.4097      210.5
  2.391E+03       140.     6.4174     213.43
  2.391E+03       140.     6.4289     186.11
  2.391E+03       140.     6.4376     209.53
  2.391E+03       140.     6.4481      238.8
  2.391E+03       140.     6.4567     233.93
  2.391E+03       140.     6.4673     191.01
  2.391E+03       140.     6.4798     204.67
  2.391E+03       140.     6.4884     238.82
  2.391E+03       140.     6.4903     249.55
  2.391E+03       140.      6.497     257.36
  2.391E+03       140.     6.5057     264.19
  2.391E+03       140.     6.5152     290.54
  2.391E+03       140.     6.5277     280.79
  2.391E+03       140.     6.5363     250.55
  2.391E+03       140.     6.5469     206.65
  2.391E+03       140.     6.5536     184.21
  2.391E+03       140.      6.568     197.88
  2.391E+03       140.     6.5757     193.98
  2.391E+03       140.     6.5863     155.94
  2.391E+03       140.     6.5968     180.33
  2.391E+03       140.     6.6074     137.41
  2.391E+03       140.     6.6179     140.34
  2.391E+03       140.     6.6256     121.81
  2.391E+03       140.     6.6371     135.47
  2.391E+03       140.     6.6448     92.545
  2.391E+03       140.     6.6544     140.35
  2.391E+03       140.     6.6678     177.43
  2.391E+03       140.     6.6774     176.46
  2.391E+03       140.     6.6851     164.76
  2.391E+03       140.     6.6937     173.54
  2.391E+03       140.     6.7042     174.52
  2.391E+03       140.     6.7148     235.99
  2.984E+03       120.     6.2443     351.49
  2.984E+03       120.     6.2551     326.74
  2.984E+03       120.     6.2648     288.13
  2.984E+03       120.     6.2756       301.
  2.984E+03       120.     6.2882     296.05
  2.984E+03       120.      6.297     303.98
  2.984E+03       120.     6.3048     374.27
  2.984E+03       120.     6.3146      321.8
  2.984E+03       120.     6.3253     274.28
  2.984E+03       120.      6.337     253.49
  2.984E+03       120.     6.3497     249.53
  2.984E+03       120.     6.3556     276.26
  2.984E+03       120.     6.3653     336.66
  2.984E+03       120.      6.377     330.72
  2.984E+03       120.     6.3878     326.76
  2.984E+03       120.     6.3956     342.61
  2.984E+03       120.     6.4053     317.86
  2.984E+03       120.     6.4161     255.48
  2.984E+03       120.     6.4248     328.75
  2.984E+03       120.     6.4346     387.17
  2.984E+03       120.     6.4463     407.96
  2.984E+03       120.     6.4541     359.45
  2.984E+03       120.     6.4658     331.73
  2.984E+03       120.     6.4775      334.7
  2.984E+03       120.     6.4863     349.55
  2.984E+03       120.      6.496     367.37
  2.984E+03       120.     6.5068     346.58
  2.984E+03       120.     6.5175     281.24
  2.984E+03       120.     6.5282     288.17
  2.984E+03       120.      6.538     308.97
  2.984E+03       120.     6.5458     334.71
  2.984E+03       120.     6.5565     316.89
  2.984E+03       120.     6.5663     305.01
  2.984E+03       120.      6.577     274.32
  2.984E+03       120.     6.5887     293.13
  2.984E+03       120.     6.5975     308.97
  2.984E+03       120.     6.6063     325.81
  2.984E+03       120.      6.616       407.
  2.984E+03       120.     6.6278      297.1
  2.984E+03       120.     6.6375     335.71
  2.984E+03       120.     6.6473     348.59
  2.984E+03       120.      6.657     375.32
  2.984E+03       120.     6.6687     320.87
  2.984E+03       120.     6.6785     339.68
  2.984E+03       120.     6.6873     356.51
  2.984E+03       120.     6.6999     352.56
  2.984E+03       120.     6.7068      317.9
  2.984E+03       120.     6.7195     362.46
  2.984E+03       140.     6.2486     234.82
  2.984E+03       140.     6.2592     210.43
  2.984E+03       140.     6.2697     244.58
  2.984E+03       140.     6.2783      231.9
  2.984E+03       140.      6.287     253.37
  2.984E+03       140.     6.2994     287.52
  2.984E+03       140.      6.309      244.6
  2.984E+03       140.     6.3205     267.04
  2.984E+03       140.     6.3292     259.24
  2.984E+03       140.     6.3388      225.1
  2.984E+03       140.     6.3493     178.28
  2.984E+03       140.     6.3589     184.13
  2.984E+03       140.     6.3675     233.89
  2.984E+03       140.       6.38     234.87
  2.984E+03       140.     6.3896     210.49
  2.984E+03       140.     6.3992     286.59
  2.984E+03       140.     6.4087     313.91
  2.984E+03       140.     6.4203      290.5
  2.984E+03       140.     6.4279     271.97
  2.984E+03       140.     6.4385     268.07
  2.984E+03       140.     6.4481     276.85
  2.984E+03       140.     6.4567     325.64
  2.984E+03       140.     6.4663     313.93
  2.984E+03       140.     6.4788     312.96
  2.984E+03       140.     6.4874     307.11
  2.984E+03       140.      6.497     339.31
  2.984E+03       140.     6.5047     351.02
  2.984E+03       140.     6.5172     271.03
  2.984E+03       140.     6.5258     245.67
  2.984E+03       140.     6.5364     232.99
  2.984E+03       140.     6.5479     241.77
  2.984E+03       140.     6.5584     249.58
  2.984E+03       140.      6.568       233.
  2.984E+03       140.     6.5786       233.
  2.984E+03       140.     6.5881     263.25
  2.984E+03       140.     6.5958      293.5
  2.984E+03       140.     6.6063     334.48
  2.984E+03       140.     6.6159     326.68
  2.984E+03       140.     6.6265     359.85
  2.984E+03       140.     6.6351      346.2
  2.984E+03       140.     6.6438     325.71
  2.984E+03       140.     6.6553     272.06
  2.984E+03       140.     6.6649     324.75
  2.984E+03       140.     6.6754     311.09
  2.984E+03       140.      6.685     276.95
  2.984E+03       140.     6.6956     290.61
  2.984E+03       140.     6.7052      299.4
  2.984E+03       140.     6.7138     313.06
ENDDATA            293
ENDSUBENT          304
SUBENT        F0964004   20090226   20090508   20090508       F035
BIB                  2          2
REACTION   (11-NA-23(P,INL)11-NA-23,PAR,DA,,REL)
STATUS     (CURVE) Fig.1
ENDBIB               2
COMMON               5          3
ANG        E-LVL      E-LVL      EN-ERR-DIG ERR-DIG
ADEG       KEV        KEV        MEV        ARB-UNITS
 120.       2640.      2705.     0.001      0.096
ENDCOMMON            3
DATA                 2         48
EN         DATA
MEV        ARB-UNITS
     6.2416 1.1330E+03
     6.2524 1.0887E+03
     6.2611 1.1046E+03
     6.2738 1.0144E+03
     6.2816     962.25
     6.2923     952.76
      6.305     960.66
     6.3138     982.79
     6.3235     919.55
     6.3343     865.79
      6.345     880.01
     6.3538     870.52
     6.3655     826.25
     6.3733     804.11
      6.385     791.46
     6.3947     797.78
     6.4065     796.19
     6.4172     802.51
     6.4269     774.05
     6.4347     756.65
     6.4455     723.45
     6.4572     710.79
      6.466     723.44
     6.4757     710.79
     6.4874     726.59
     6.4981     743.98
      6.504     764.53
     6.5157     789.82
     6.5255     785.07
     6.5343     769.26
      6.546     777.16
     6.5567     853.04
     6.5665     887.82
     6.5762      914.7
      6.587      930.5
     6.5957      955.8
     6.6065     977.93
     6.6153     963.69
      6.627     955.78
     6.6377     949.45
     6.6465     954.19
     6.6543     935.22
      6.667     924.14
     6.6796     924.14
     6.6894     897.26
     6.6991     867.21
      6.706     927.29
     6.7196     927.28
ENDDATA             50
ENDSUBENT           61
ENDENTRY             4
