ENTRY            F0970   20100519   20110216   20110112       F039
SUBENT        F0970001   20100519   20110216   20110112       F039
BIB                  8         16
TITLE      Observation of the second T=2 state of Ne-20 as a
           compound resonance in the F-19+p reactions.
AUTHOR     (H.M.Kuan,G.L.Latshaw,W.J.O'Connell,D.W.Heikkinen,
           E.G.Adelberger,A.V.Nero,S.S.Hanna)
INSTITUTE  (1USASTF)
REFERENCE  (J,NP/A,193,497,1972)
           #doi:10.1016/0375-9474(72)90336-3
FACILITY   (VDGT,1USASTF) The FN tandem Van de Graaff accelerator.
SAMPLE     The target thickness was kept between 2 to 4 keV for
           5.8 MeV protons. Target thicknesses were determined by
           observing known narrow resonances and by measuring the
           yield of the 6LI(p,p) reaction for which the cross
           section is known.
ERR-ANALYS (EN-ERR-DIG) Energy digitizing error
           (ERR-DIG)    Data digitizing error
HISTORY    (20100519C)
ENDBIB              16
NOCOMMON             0          0
ENDSUBENT           19
SUBENT        F0970002   20100519   20110216   20110112       F039
BIB                  5          7
REACTION   (9-F-19(P,EL)9-F-19,,DA)
DETECTOR   (SOLST) A 60 cm scattering chamber equipped with solid
           state detectors and standard modular electronics.
SAMPLE     Thin targets of 6LiF deposited on thin carbon foils
           were used.
ERR-ANALYS (ERR-SYS)    Absolute cross section error
STATUS     (CURVE) Fig.2
ENDBIB               7
COMMON               3          3
ERR-SYS    EN-ERR-DIG ERR-DIG
PER-CENT   MEV        MB/SR
  30.        0.0004     0.0169
ENDCOMMON            3
DATA                 3        592
ANG-CM     EN         DATA-CM
ADEG       MEV        MB/SR
        90.     5.6496     40.051
        90.      5.654     39.595
        90.     5.6579     39.544
        90.     5.6622     39.696
        90.     5.6656     39.291
        90.       5.67     39.088
        90.     5.6734     37.822
        90.     5.6773     37.468
        90.     5.6821     37.519
        90.     5.6855     37.924
        90.     5.6894     37.772
        90.     5.6938     38.379
        90.     5.6977     37.974
        90.     5.7011     38.734
        90.     5.7055     39.341
        90.     5.7108     39.949
        90.     5.7176     39.797
        90.     5.7215     40.455
        90.     5.7264     40.556
        90.     5.7332     40.505
        90.     5.7375     40.353
        90.     5.7404     40.201
        90.     5.7424     40.505
        90.     5.7434     41.214
        90.     5.7453     41.012
        90.     5.7482     41.315
        90.     5.7502     41.467
        90.     5.7531     41.872
        90.     5.7579     41.518
        90.     5.7618     41.821
        90.     5.7657     41.669
        90.     5.7691     42.226
        90.     5.7735      42.48
        90.     5.7769     41.872
        90.     5.7822     42.074
        90.     5.7851     42.834
        90.     5.7905     42.835
        90.     5.7978      42.53
        90.     5.8012     42.732
        90.      5.805     43.036
        90.     5.8104     43.036
        90.     5.8133      42.58
        90.     5.8177     42.783
        90.     5.8211     42.985
        90.     5.8245     42.935
        90.     5.8279     42.631
        90.     5.8342      42.58
        90.     5.8376     42.428
        90.      5.842     42.783
        90.     5.8463      42.58
        90.     5.8493     42.783
        90.     5.8536     42.631
        90.      5.858      41.82
        90.     5.8619     41.517
        90.     5.8658     41.517
        90.     5.8692     40.808
        90.     5.8711     40.352
        90.     5.8735     39.744
        90.     5.8755     38.428
        90.     5.8774      37.82
        90.     5.8799      37.77
        90.     5.8808     39.137
        90.     5.8828     39.694
        90.     5.8847     41.061
        90.     5.8867     41.514
        90.     5.8896     41.516
        90.      5.893     41.617
        90.     5.8973     40.706
        90.     5.9012     40.453
        90.     5.9046     40.301
        90.     5.9095     39.946
        90.     5.9129     39.643
        90.     5.9168      39.44
        90.     5.9211     38.529
        90.     5.9255     38.377
        90.     5.9284     37.668
        90.     5.9323     37.566
        90.     5.9362     36.655
        90.     5.9401      36.25
        90.     5.9445     36.047
        90.     5.9488     35.794
        90.     5.9522     35.338
        90.     5.9561     35.288
        90.      5.961     34.579
        90.     5.9644     34.123
        90.     5.9683     33.769
        90.     5.9726     33.515
        90.     5.9765     33.718
        90.     5.9814     33.667
        90.     5.9848     33.313
        90.     5.9887     33.566
        90.      5.993     34.072
        90.     5.9964      33.11
        90.     6.0008     33.211
        90.     6.0047     33.616
        90.     6.0091     33.819
        90.     6.0134     34.224
        90.     6.0193     33.869
        90.     6.0251     33.869
        90.     6.0295     33.768
        90.     6.0334     34.375
        90.     6.0372     35.034
        90.     6.0411     34.021
        90.     6.0455     34.628
        90.     6.0489     35.236
        90.     6.0533     34.882
        90.     6.0576     35.287
        90.     6.0635     34.881
        90.     6.0693     34.831
        90.     6.0737     35.438
        90.     6.0771     35.236
        90.      6.081     35.691
        90.     6.0853     35.894
        90.     6.0892     35.286
        90.     6.0936     35.286
        90.     6.0975     36.046
        90.     6.1048     36.197
        90.     6.1135     36.602
        90.     6.1169     36.552
        90.     6.1213     36.197
        90.     6.1252     35.944
        90.     6.1295     35.691
        90.     6.1334     35.286
        90.     6.1378     35.488
        90.     6.1417      35.64
        90.     6.1456     35.235
        90.     6.1495     35.286
        90.     6.1533     36.298
        90.     6.1577     37.108
        90.     6.1616     36.653
        90.     6.1645     37.159
        90.     6.1689     37.412
        90.     6.1733     37.209
        90.     6.1776     37.311
        90.     6.1825     37.108
        90.     6.1859     37.462
        90.     6.1898     37.665
        90.     6.1937     37.209
        90.     6.1975     37.513
        90.     6.2014     37.158
        90.     6.2058     36.855
       112.     5.8391     28.975
       112.      5.842     28.514
       112.     5.8474     28.565
       112.     5.8513     28.257
       112.     5.8552     27.847
       112.     5.8591     27.642
       112.      5.863     27.283
       112.     5.8678     26.872
       112.     5.8703     26.411
       112.     5.8742        26.
       112.     5.8781     26.718
       112.     5.8805     27.641
       112.     5.8835     27.949
       112.     5.8874     27.744
       112.     5.8913     27.128
      125.5     5.6495     23.013
      125.5     5.6529     22.853
      125.5     5.6573     22.693
      125.5     5.6612     22.907
      125.5     5.6661     22.907
      125.5     5.6695      23.12
      125.5     5.6733     23.387
      125.5     5.6772     23.654
      125.5     5.6816      23.92
      125.5     5.6855     23.974
      125.5     5.6889     24.825
      125.5     5.6937     24.667
      125.5     5.6976     24.827
      125.5     5.7015     24.987
      125.5     5.7054     25.094
      125.5     5.7088     25.307
      125.5     5.7132     25.308
      125.5     5.7175     25.574
      125.5     5.7205     25.307
      125.5     5.7243      24.88
      125.5     5.7331       24.4
      125.5     5.7365      23.92
      125.5     5.7389     23.547
      125.5     5.7409     23.227
      125.5     5.7418     22.854
      125.5     5.7443     22.801
      125.5     5.7472     22.481
      125.5     5.7491     22.321
      125.5      5.753     21.521
      125.5     5.7574     21.307
      125.5     5.7618     21.201
      125.5     5.7647     21.361
      125.5     5.7661     21.467
      125.5     5.7695     21.574
      125.5     5.7739     21.734
      125.5     5.7778     21.147
      125.5     5.7812     21.467
      125.5     5.7846     21.094
      125.5      5.789     20.987
      125.5     5.7928     20.827
      125.5     5.7967     20.507
      125.5     5.8011     20.241
      125.5      5.805     20.027
      125.5     5.8094     19.974
      125.5     5.8128     19.921
      125.5     5.8171     19.814
      125.5     5.8215     19.708
      125.5     5.8244     19.601
      125.5     5.8288     19.334
      125.5     5.8327     19.121
      125.5      5.837     18.854
      125.5     5.8409     18.641
      125.5     5.8448     18.748
      125.5     5.8482     18.108
      125.5     5.8526     18.001
      125.5      5.857     17.574
      125.5     5.8608     17.574
      125.5     5.8643     17.201
      125.5     5.8691     17.094
      125.5     5.8706     16.721
      125.5     5.8745     17.361
      125.5     5.8774     17.948
      125.5     5.8783     18.535
      125.5     5.8808     19.175
      125.5     5.8832     18.908
      125.5     5.8847     18.588
      125.5     5.8871     18.001
      125.5      5.889     17.308
      125.5     5.8924     17.308
      125.5     5.8963     16.935
      125.5     5.9007     16.775
      125.5     5.9041     16.935
      125.5     5.9085     16.295
      125.5     5.9123     16.081
      125.5     5.9167     16.348
      125.5     5.9206     16.508
      125.5     5.9245     16.348
      125.5     5.9284     16.135
      125.5     5.9323     16.081
      125.5     5.9357     16.401
      125.5       5.94     16.401
      125.5     5.9449     16.508
      125.5     5.9478     16.828
      125.5     5.9517     16.615
      125.5     5.9565     16.828
      125.5     5.9604     17.308
      125.5     5.9653     17.575
      125.5     5.9687     17.895
      125.5     5.9731     18.268
      125.5      5.977     18.215
      125.5     5.9808     18.482
      125.5     5.9847     19.068
      125.5     5.9891     19.122
      125.5     5.9925     19.602
      125.5     5.9969     19.602
      125.5     6.0012     19.548
      125.5     6.0042     20.188
      125.5     6.0061     20.348
      125.5      6.008     20.508
      125.5     6.0124     20.775
      125.5     6.0168     21.202
      125.5     6.0207     21.575
      125.5     6.0241     21.949
      125.5     6.0294     22.002
      125.5     6.0328     22.269
      125.5     6.0367     22.429
      125.5     6.0411     22.482
      125.5     6.0445     23.069
      125.5     6.0493     23.015
      125.5     6.0527     23.389
      125.5     6.0566     23.069
      125.5     6.0605     22.589
      125.5     6.0649     22.962
      125.5     6.0692     23.069
      125.5     6.0731     23.389
      125.5     6.0775     23.336
      125.5     6.0809     23.335
      125.5     6.0848     22.749
      125.5     6.0892     22.802
      125.5     6.0926     22.749
      125.5     6.0969     23.229
      125.5     6.1008     23.016
      125.5     6.1047     22.589
      125.5     6.1086     22.482
      125.5      6.113     23.122
      125.5     6.1164     22.162
      125.5     6.1212     22.269
      125.5     6.1246     21.576
      125.5     6.1285     21.629
      125.5     6.1334     21.149
      125.5     6.1377     21.149
      125.5     6.1411     21.202
      125.5     6.1455     20.882
      125.5     6.1494     21.043
      125.5     6.1543     21.041
      125.5     6.1577     21.096
      125.5     6.1611     20.989
      125.5     6.1654     20.883
      125.5     6.1688     20.936
      125.5     6.1732     20.403
      125.5     6.1776     20.563
      125.5     6.1805     20.296
      125.5     6.1858     20.243
      125.5     6.1892     20.029
      125.5     6.1931     20.296
      125.5      6.197     19.656
      125.5     6.2009     19.603
      125.5     6.2053     19.336
      149.4     5.6491     10.378
      149.4      5.653     10.973
      149.4     5.6568     10.757
      149.4     5.6607     10.594
      149.4     5.6646     10.757
      149.4      5.669     10.757
      149.4     5.6729     10.432
      149.4     5.6768     10.811
      149.4     5.6807     11.027
      149.4     5.6845     11.243
      149.4     5.6889     11.459
      149.4     5.6938     11.621
      149.4     5.6972     11.621
      149.4     5.7006     11.513
      149.4     5.7045     11.675
      149.4     5.7088     11.729
      149.4     5.7127     11.621
      149.4     5.7161     11.351
      149.4     5.7205     11.459
      149.4     5.7249     11.837
      149.4     5.7341     12.378
      149.4     5.7365     12.756
      149.4     5.7394     12.702
      149.4     5.7409     12.378
      149.4     5.7433     12.107
      149.4     5.7448     11.837
      149.4     5.7477     11.945
      149.4     5.7487     11.621
      149.4     5.7521     10.918
      149.4     5.7564     10.594
      149.4     5.7608     10.377
      149.4     5.7652     10.269
      149.4     5.7691     9.7288
      149.4     5.7725     9.1882
      149.4     5.7763     8.7017
      149.4     5.7802     8.8098
      149.4     5.7851     8.7016
      149.4     5.7885     8.5395
      149.4     5.7924     8.3232
      149.4     5.7968      8.107
      149.4     5.8001     7.9448
      149.4     5.8045     7.8366
      149.4     5.8084     7.6204
      149.4     5.8128     7.6744
      149.4     5.8172     7.6744
      149.4     5.8206     7.5663
      149.4     5.8254     7.4581
      149.4     5.8288     7.5662
      149.4     5.8327      7.404
      149.4     5.8366      7.404
      149.4     5.8405      7.458
      149.4     5.8448      7.458
      149.4     5.8482     7.6201
      149.4     5.8521     7.6741
      149.4      5.857     7.4579
      149.4     5.8604     7.6741
      149.4     5.8648     7.8362
      149.4     5.8691     7.8902
      149.4      5.873     8.1064
      149.4     5.8745     8.4307
      149.4     5.8769      8.755
      149.4     5.8784     9.0253
      149.4     5.8803     9.1334
      149.4     5.8832     8.9712
      149.4     5.8847      8.755
      149.4     5.8871     8.4306
      149.4      5.889     8.2144
      149.4     5.8924     8.2144
      149.4     5.8968     8.4306
      149.4     5.9002     8.6468
      149.4     5.9046     8.9711
      149.4     5.9085      8.971
      149.4     5.9124     9.1332
      149.4     5.9163     9.4034
      149.4     5.9201     9.8899
      149.4      5.924     9.9439
      149.4     5.9279     10.052
      149.4     5.9318     10.322
      149.4     5.9357     10.755
      149.4     5.9405     11.025
      149.4     5.9444     11.079
      149.4     5.9488     11.349
      149.4     5.9517     11.673
      149.4     5.9566     12.214
      149.4     5.9605     12.646
      149.4     5.9643      12.43
      149.4     5.9682     12.646
      149.4     5.9721     12.808
      149.4     5.9765     13.133
      149.4     5.9809     13.349
      149.4     5.9843     13.511
      149.4     5.9891     13.727
      149.4     5.9925     13.943
      149.4     5.9974     14.051
      149.4     6.0008     14.214
      149.4     6.0037     13.673
      149.4     6.0081     13.997
      149.4     6.0129     14.268
      149.4     6.0168     14.322
      149.4     6.0207     13.511
      149.4     6.0246     13.943
      149.4     6.0285     13.565
      149.4     6.0328     14.051
      149.4     6.0367     13.835
      149.4     6.0406     14.213
      149.4      6.044     13.727
      149.4     6.0484     13.619
      149.4     6.0523     14.321
      149.4     6.0562     14.375
      149.4     6.0605     13.619
      149.4     6.0649      13.24
      149.4     6.0683     13.564
      149.4     6.0732     13.564
      149.4     6.0785      12.97
      149.4     6.0848     12.916
      149.4     6.0882     12.483
      149.4     6.0926     12.429
      149.4      6.096     12.699
      149.4     6.1004     11.997
      149.4     6.1047     11.943
      149.4     6.1091     11.672
      149.4      6.113     11.943
      149.4     6.1169      11.78
      149.4     6.1203      11.51
      149.4     6.1246     11.132
      149.4      6.129     11.402
      149.4     6.1324     10.915
      149.4     6.1373     10.969
      149.4     6.1407     11.348
      149.4     6.1451     10.969
      149.4     6.1489     10.861
      149.4     6.1523     11.294
      149.4     6.1567      11.24
      149.4      6.163     10.969
      149.4     6.1693     9.9962
      149.4     6.1732     9.5637
      149.4     6.1766     9.9421
      149.4     6.1805      9.942
      149.4     6.1844     9.7258
      149.4     6.1883     9.7798
      149.4     6.1941     9.5095
      149.4     6.1961     9.7257
      149.4     6.2029     9.2392
      168.6     5.6486     2.9536
      168.6     5.6525     2.8304
      168.6     5.6564     2.8303
      168.6     5.6602     2.7071
      168.6     5.6646     2.6455
      168.6     5.6685     2.6454
      168.6     5.6729     2.5837
      168.6     5.6772      2.399
      168.6     5.6806      2.522
      168.6     5.6845     2.3988
      168.6     5.6889     2.3987
      168.6     5.6923     2.5217
      168.6     5.6967     2.5831
      168.6     5.7006      2.583
      168.6      5.704     2.7675
      168.6     5.7078     2.8289
      168.6     5.7122     2.8288
      168.6     5.7161     2.9518
      168.6       5.72     3.2594
      168.6     5.7239     3.3208
      168.6     5.7312     3.4437
      168.6     5.7351     3.3821
      168.6      5.738     3.1974
      168.6     5.7423     3.0126
      168.6     5.7457     2.7049
      168.6     5.7487     2.6432
      168.6      5.753     2.5816
      168.6     5.7564     2.2738
      168.6     5.7608     2.3352
      168.6     5.7647      2.212
      168.6     5.7686     2.2119
      168.6      5.772     2.2734
      168.6     5.7763     2.2733
      168.6     5.7797     2.4578
      168.6     5.7841     2.2731
      168.6     5.7885      2.273
      168.6     5.7924     2.4575
      168.6     5.7963     2.7035
      168.6     5.8001     2.5188
      168.6     5.8035     2.7649
      168.6     5.8079     2.9494
      168.6     5.8118     3.1954
      168.6     5.8162     3.1953
      168.6     5.8201     3.5644
      168.6     5.8235      3.749
      168.6     5.8283     4.0565
      168.6     5.8317      4.241
      168.6     5.8366     4.3025
      168.6     5.8395     4.7331
      168.6     5.8444     5.2869
      168.6     5.8482     5.4714
      168.6     5.8526     6.0251
      168.6      5.856     6.2096
      168.6     5.8604     6.6403
      168.6     5.8643     6.9479
      168.6     5.8677     7.5632
      168.6     5.8701     7.6862
      168.6     5.8716     7.5631
      168.6     5.8745     7.6861
      168.6     5.8764     7.3783
      168.6     5.8779      6.886
      168.6     5.8803     6.4551
      168.6     5.8822     6.3936
      168.6     5.8842     6.7012
      168.6     5.8861     6.9473
      168.6     5.8881      7.378
      168.6     5.8924     7.8702
      168.6     5.8959      8.424
      168.6     5.8997     8.9162
      168.6     5.9036     9.5315
      168.6      5.908      9.839
      168.6     5.9124     10.393
      168.6     5.9158     10.885
      168.6     5.9197     11.562
      168.6      5.924     11.623
      168.6     5.9289     11.931
      168.6     5.9318     12.177
      168.6     5.9362     12.669
      168.6     5.9401     12.915
      168.6      5.944     13.161
      168.6     5.9478     13.161
      168.6     5.9517     13.715
      168.6     5.9566     13.899
      168.6       5.96     14.268
      168.6     5.9648      14.33
      168.6     5.9687     14.207
      168.6     5.9726     14.268
      168.6      5.977     14.145
      168.6     5.9804      13.96
      168.6     5.9852     14.206
      168.6     5.9886      13.96
      168.6     5.9925     13.775
      168.6     5.9959     13.098
      168.6     6.0008     13.098
      168.6     6.0042      12.36
      168.6     6.0086     12.544
      168.6     6.0124      12.79
      168.6     6.0158     11.867
      168.6     6.0197     12.236
      168.6     6.0241      11.99
      168.6     6.0285     11.005
      168.6     6.0324     10.759
      168.6     6.0362     10.757
      168.6     6.0396     10.759
      168.6      6.044     10.574
      168.6     6.0484     10.205
      168.6     6.0523     10.266
      168.6     6.0562      9.712
      168.6       6.06     9.0965
      168.6     6.0644     8.7887
      168.6     6.0683     8.4194
      168.6     6.0727      8.727
      168.6     6.0766       8.05
      168.6     6.0804     7.9883
      168.6     6.0843     7.7421
      168.6     6.0882     7.4958
      168.6     6.0921     7.6188
      168.6     6.0965     7.6187
      168.6     6.0999     7.4955
      168.6     6.1042     7.3723
      168.6     6.1081     6.9414
      168.6      6.113     7.1875
      168.6     6.1164     6.9412
      168.6     6.1203     6.9411
      168.6     6.1246     6.5102
      168.6     6.1285     6.6947
      168.6     6.1319     6.3254
      168.6     6.1368     6.3868
      168.6     6.1407     6.3252
      168.6      6.145     5.7097
      168.6     6.1489     5.4019
      168.6     6.1533     5.2787
      168.6     6.1562     4.9094
      168.6     6.1601     4.7862
      168.6     6.1645      4.663
      168.6     6.1679     4.6629
      168.6     6.1722     4.5397
      168.6     6.1761     4.2319
      168.6     6.1805     4.1087
      168.6     6.1844     4.1086
      168.6     6.1883     3.9855
      168.6     6.1926     3.9853
      168.6     6.1965     3.9852
      168.6     6.2009     4.0467
      168.6     6.2048     3.7389
ENDDATA            594
ENDSUBENT          610
SUBENT        F0970003   20100519   20110216   20110112       F039
BIB                  5          7
REACTION   (9-F-19(P,A)8-O-16,PAR,DA)
DETECTOR   (SOLST) A 60 cm scattering chamber equipped with solid
           state detectors and standard modular electronics.
SAMPLE     Thin targets of 6LiF deposited on thin carbon foils
           were used.
ERR-ANALYS (ERR-SYS)   Absolute cross section error
STATUS     (CURVE) Fig.3
ENDBIB               7
COMMON               4          3
E-LVL      ERR-SYS    EN-ERR-DIG ERR-DIG
MEV        PER-CENT   MEV        MB/SR
  0.         30.        0.0005     0.0041
ENDCOMMON            3
DATA                 3        633
ANG        EN         DATA
ADEG       MEV        MB/SR
        54.     5.8302     1.3769
        54.     5.8342      1.377
        54.     5.8382     1.3386
        54.     5.8418     1.2328
        54.     5.8466     1.2329
        54.     5.8506     1.1656
        54.     5.8538     1.1368
        54.     5.8578     1.1176
        54.     5.8622     1.2234
        54.     5.8653     1.2331
        54.      5.868     1.2523
        54.     5.8702     1.3196
        54.     5.8742     1.6178
        54.     5.8786     1.6947
        54.     5.8804     1.4159
        54.     5.8822     1.3486
        54.     5.8853     1.0506
        54.     5.8898    0.93522
        54.     5.8942    0.87757
        54.     5.8991    0.87762
        87.     5.6527    0.68275
        87.     5.6567    0.74046
        87.     5.6611    0.70202
        87.     5.6646     0.7405
        87.     5.6686    0.70206
        87.     5.6726     0.7117
        87.      5.677    0.66365
        87.     5.6814    0.67329
        87.     5.6849    0.61561
        87.     5.6889    0.61563
        87.     5.6924    0.66373
        87.     5.6968    0.65414
        87.     5.7003    0.56762
        87.     5.7043    0.61572
        87.     5.7078    0.60612
        87.     5.7122    0.56768
        87.     5.7166    0.55809
        87.     5.7197    0.51003
        87.     5.7237    0.55813
        87.     5.7277    0.55815
        87.     5.7316    0.52933
        87.      5.736    0.52935
        87.     5.7396    0.52937
        87.     5.7422    0.57746
        87.     5.7444     0.5294
        87.     5.7462    0.51979
        87.     5.7479    0.51018
        87.     5.7497    0.52942
        87.     5.7523    0.52944
        87.     5.7559    0.54869
        87.     5.7594    0.52948
        87.     5.7638    0.53912
        87.     5.7673     0.5199
        87.     5.7713    0.52954
        87.     5.7753    0.47187
        87.     5.7788    0.54881
        87.     5.7828     0.5296
        87.     5.7872    0.52963
        87.     5.7907    0.52965
        87.     5.7946    0.52967
        87.     5.7991    0.52008
        87.      5.803     0.5201
        87.     5.8065    0.50089
        87.     5.8105    0.52014
        87.     5.8149    0.50093
        87.     5.8189    0.51057
        87.     5.8224    0.50097
        87.     5.8259    0.53945
        87.     5.8308    0.52025
        87.     5.8348    0.50104
        87.     5.8418    0.50108
        87.     5.8462    0.52033
        87.     5.8506    0.52036
        87.     5.8541    0.53961
        87.     5.8577    0.49155
        87.     5.8621    0.53003
        87.      5.866    0.51082
        87.     5.8696    0.47238
        87.     5.8727    0.43394
        87.     5.8749    0.44356
        87.     5.8766    0.44357
        87.     5.8788     0.4532
        87.     5.8801    0.53013
        87.     5.8823    0.57822
        87.     5.8837    0.56861
        87.     5.8854    0.60708
        87.     5.8881    0.56864
        87.     5.8903    0.58788
        87.      5.892    0.56866
        87.     5.8934    0.53982
        87.     5.8982      0.511
        87.     5.9013    0.48217
        87.     5.9057    0.43411
        87.     5.9101    0.43414
        87.     5.9141    0.47262
        87.     5.9176    0.40533
        87.     5.9216    0.42459
        87.      5.926    0.38615
        87.     5.9291    0.36693
        87.     5.9335    0.40542
        87.      5.937    0.39582
        87.     5.9414    0.42469
        87.     5.9449    0.42471
        87.     5.9493    0.42474
        87.     5.9537    0.40553
        87.     5.9573    0.40555
        87.     5.9612     0.4248
        87.     5.9652    0.42482
        87.     5.9696    0.43446
        87.     5.9731    0.43448
        87.     5.9775    0.44412
        87.     5.9811    0.47298
        87.      5.985    0.45377
        87.     5.9886    0.46341
        87.     5.9925    0.43458
        87.     5.9965    0.48268
        87.     6.0009    0.52117
        87.      6.004    0.55965
        87.     6.0079    0.48275
        87.     6.0124    0.44431
        87.     6.0159    0.44433
        87.     6.0198    0.47319
        87.     6.0247    0.49245
        87.     6.0278    0.42516
        87.     6.0317    0.47326
        87.     6.0357    0.51174
        87.     6.0401    0.48292
        87.     6.0441    0.48294
        87.      6.048    0.48296
        87.      6.052    0.48298
        87.     6.0564    0.47339
        87.     6.0595    0.51187
        87.      6.063    0.48304
        87.     6.0674    0.49268
        87.     6.0718    0.54078
        87.     6.0758     0.4735
        87.     6.0798     0.4639
        87.     6.0837    0.47354
        87.     6.0882    0.48318
        87.     6.0917    0.51204
        87.     6.0952     0.4736
        87.     6.0996    0.51209
        87.     6.1031    0.50249
        87.     6.1067    0.42559
        87.     6.1106    0.50253
        87.     6.1146    0.51217
        87.      6.119    0.47373
        87.      6.123    0.48337
        87.     6.1274    0.48339
        87.     6.1309    0.48341
        87.     6.1357    0.54113
        87.     6.1388    0.47384
        87.     6.1428    0.50271
        87.     6.1472    0.52196
        87.     6.1512    0.50275
        87.     6.1547      0.522
        87.     6.1595    0.53164
        87.     6.1631    0.56051
        87.      6.167    0.57976
        87.      6.171    0.59901
        87.      6.175    0.58942
        87.     6.1789    0.59906
        87.     6.1829    0.60869
        87.     6.1869    0.57987
        87.     6.1908     0.5895
        87.     6.1944    0.66645
        87.     6.1988    0.65686
        87.     6.2027    0.65688
      109.5     5.8293    0.57696
      109.5     5.8342    0.57707
      109.5     5.8378    0.58686
      109.5     5.8418    0.62578
      109.5     5.8457    0.63557
      109.5     5.8498    0.60653
      109.5     5.8542    0.67459
      109.5     5.8577    0.63584
      109.5     5.8622    0.69418
      109.5     5.8653     0.7428
      109.5      5.868    0.74285
      109.5     5.8711    0.74292
      109.5     5.8751    0.70417
      109.5     5.8786    0.55862
      109.5     5.8795    0.46155
      109.5     5.8818     0.4616
      109.5     5.8831     0.4325
      109.5     5.8862    0.40345
      109.5     5.8898    0.47148
      109.5     5.8942    0.50071
      109.5     5.8986    0.53964
       123.     5.6483     1.1189
       123.     5.6518     1.1982
       123.     5.6563     1.1586
       123.     5.6603     1.2379
       123.     5.6643      1.327
       123.     5.6679      1.327
       123.     5.6719      1.238
       123.     5.6764     1.2776
       123.     5.6808     1.3371
       123.     5.6844     1.3272
       123.     5.6879     1.4263
       123.     5.6924     1.2976
       123.     5.6955     1.2382
       123.     5.7004     1.2779
       123.     5.7031     1.3373
       123.      5.708     1.2483
       123.      5.712     1.2384
       123.     5.7165     1.2484
       123.       5.72     1.2484
       123.     5.7231      1.189
       123.     5.7281     1.1594
       123.     5.7321     1.1099
       123.     5.7361     1.1099
       123.     5.7379     1.1298
       123.     5.7405     1.1496
       123.     5.7428       1.11
       123.     5.7445     1.0803
       123.      5.749     1.0903
       123.     5.7521      1.021
       123.     5.7561    0.98144
       123.     5.7601    0.96168
       123.     5.7641     1.0013
       123.     5.7673    0.96176
       123.     5.7717      0.942
       123.     5.7762    0.93215
       123.     5.7797    0.89258
       123.     5.7833    0.85302
       123.     5.7882    0.86297
       123.     5.7922    0.88281
       123.     5.7949    0.78383
       123.     5.8003    0.82349
       123.     5.8029    0.79382
       123.     5.8074    0.86317
       123.     5.8114    0.83351
       123.     5.8154    0.80385
       123.     5.8194    0.79399
       123.     5.8234    0.87324
       123.     5.8274    0.78417
       123.     5.8314    0.79412
       123.     5.8355    0.84367
       123.     5.8399    0.82391
       123.     5.8435    0.90316
       123.     5.8479     0.8933
       123.     5.8515    0.88344
       123.      5.856    0.91319
       123.     5.8595     1.0023
       123.      5.864    0.97268
       123.      5.868     1.1212
       123.     5.8689     1.0519
       123.     5.8715     1.2005
       123.     5.8742      1.151
       123.      5.876     1.0817
       123.     5.8778     1.0025
       123.     5.8796    0.71542
       123.     5.8809    0.61642
       123.     5.8831    0.55704
       123.     5.8854    0.55706
       123.      5.888     0.5967
       123.     5.8916    0.65614
       123.     5.8961    0.69579
       123.     5.8996    0.79484
       123.     5.9023    0.73546
       123.     5.9076    0.79492
       123.     5.9112    0.77516
       123.     5.9161    0.76531
       123.     5.9188    0.74553
       123.     5.9232    0.79509
       123.     5.9277    0.80503
       123.     5.9313    0.77537
       123.     5.9348     0.7259
       123.     5.9397    0.75566
       123.     5.9437     0.7359
       123.     5.9478    0.75574
       123.     5.9522    0.70628
       123.     5.9558    0.68652
       123.     5.9598    0.66676
       123.     5.9634    0.60739
       123.     5.9678    0.59754
       123.     5.9718    0.59758
       123.     5.9754    0.56791
       123.     5.9798    0.54816
       123.     5.9843    0.57791
       123.     5.9874    0.48883
       123.      5.991    0.44927
       123.     5.9959    0.42952
       123.     5.9995    0.40975
       123.     6.0039     0.4692
       123.     6.0075    0.41974
       123.     6.0115    0.37027
       123.     6.0155    0.34061
       123.       6.02    0.38026
       123.     6.0235     0.3506
       123.      6.028    0.30114
       123.     6.0324    0.30119
       123.     6.0356    0.28142
       123.     6.0396    0.30126
       123.      6.044    0.29141
       123.     6.0476    0.25184
       123.     6.0516    0.29149
       123.     6.0561    0.27173
       123.     6.0605    0.28168
       123.     6.0641    0.30152
       123.     6.0676    0.25205
       123.     6.0721     0.2719
       123.     6.0761    0.28185
       123.     6.0797    0.26208
       123.     6.0837    0.31163
       123.     6.0881    0.28197
       123.     6.0922    0.30182
       123.     6.0962    0.32166
       123.     6.0997     0.3514
       123.     6.1037    0.31184
       123.     6.1082    0.34159
       123.     6.1118    0.33173
       123.     6.1162    0.34168
       123.     6.1202    0.36152
       123.     6.1238    0.36156
       123.     6.1278     0.3616
       123.     6.1318    0.39134
       123.     6.1354    0.35178
       123.     6.1394    0.40133
       123.     6.1434    0.39147
       123.     6.1474    0.38161
       123.     6.1519    0.41136
       123.     6.1559     0.4312
       123.     6.1603    0.44115
       123.     6.1643    0.43129
       123.     6.1688    0.48084
       123.     6.1728    0.46108
       123.     6.1755    0.46111
       123.     6.1804    0.48097
       123.     6.1844    0.46121
       123.     6.1884    0.48105
       123.     6.1915    0.50089
       123.      6.196    0.47123
       123.     6.2004    0.54058
       123.     6.2044    0.50102
      147.8     5.6481    0.57284
      147.8     5.6526    0.58256
      147.8     5.6566    0.57286
      147.8     5.6602    0.63112
      147.8     5.6642    0.63113
      147.8     5.6686    0.67968
      147.8     5.6722     0.6991
      147.8     5.6762    0.66028
      147.8     5.6798       0.67
      147.8     5.6838    0.62146
      147.8     5.6878     0.6603
      147.8     5.6922    0.68944
      147.8     5.6954    0.73799
      147.8     5.7003    0.72829
      147.8     5.7034    0.71859
      147.8     5.7078    0.77685
      147.8     5.7118    0.74774
      147.8     5.7154    0.76716
      147.8     5.7194    0.73804
      147.8     5.7234    0.74776
      147.8     5.7274    0.74777
      147.8     5.7319    0.74778
      147.8     5.7359    0.81575
      147.8     5.7377    0.78663
      147.8     5.7395    0.78663
      147.8     5.7412    0.76722
      147.8     5.7435     0.7381
      147.8     5.7457    0.79636
      147.8     5.7484    0.82549
      147.8     5.7524    0.87404
      147.8     5.7559    0.91288
      147.8     5.7595     0.9226
      147.8     5.7635     0.9129
      147.8     5.7675    0.96145
      147.8     5.7715     1.0488
      147.8     5.7756    0.98089
      147.8       5.78     1.0197
      147.8     5.7836      1.078
      147.8     5.7876     1.1848
      147.8     5.7916     1.1363
      147.8     5.7956     1.2431
      147.8     5.8001     1.2625
      147.8     5.8041     1.3013
      147.8     5.8081     1.3305
      147.8     5.8121     1.3984
      147.8     5.8157     1.4761
      147.8     5.8197     1.5053
      147.8     5.8237     1.4664
      147.8     5.8272     1.4761
      147.8     5.8317     1.4179
      147.8     5.8357     1.5247
      147.8     5.8397     1.4762
      147.8     5.8442     1.4761
      147.8     5.8486     1.4764
      147.8     5.8517     1.5247
      147.8     5.8562     1.4471
      147.8     5.8598     1.4665
      147.8     5.8642     1.4568
      147.8     5.8678     1.4859
      147.8     5.8696     1.4564
      147.8     5.8718      1.486
      147.8     5.8736     1.4957
      147.8     5.8758     1.5054
      147.8     5.8776     1.6996
      147.8     5.8794      1.651
      147.8      5.882     1.6413
      147.8     5.8847     1.5248
      147.8     5.8852     1.5734
      147.8     5.8878     1.4374
      147.8     5.8918     1.4472
      147.8     5.8963     1.4278
      147.8     5.8994     1.3986
      147.8     5.9039     1.4084
      147.8     5.9083     1.3889
      147.8     5.9119     1.2822
      147.8     5.9164     1.3404
      147.8     5.9199     1.3404
      147.8     5.9239     1.2531
      147.8     5.9279     1.3016
      147.8     5.9319     1.3307
      147.8      5.936     1.2045
      147.8       5.94     1.2143
      147.8     5.9435      1.224
      147.8      5.948     1.1852
      147.8     5.9516     1.1172
      147.8     5.9556     1.2434
      147.8     5.9596     1.2046
      147.8      5.964     1.1949
      147.8      5.968     1.2532
      147.8     5.9721     1.1949
      147.8     5.9738     1.2435
      147.8     5.9761     1.2435
      147.8     5.9805     1.2338
      147.8     5.9841     1.1658
      147.8     5.9881     1.2532
      147.8     5.9917     1.2047
      147.8     5.9957     1.2435
      147.8     6.0001      1.127
      147.8     6.0041     1.2144
      147.8     6.0081     1.1756
      147.8     6.0122     1.1659
      147.8     6.0162     1.1756
      147.8     6.0202     1.2339
      147.8     6.0237     1.1659
      147.8     6.0277      1.098
      147.8     6.0318     1.1853
      147.8     6.0362     1.1174
      147.8     6.0398     1.0591
      147.8     6.0433      1.098
      147.8     6.0482     1.0786
      147.8     6.0523     1.1174
      147.8     6.0563     1.1369
      147.8     6.0603     1.1174
      147.8     6.0643     1.0398
      147.8     6.0678     1.0786
      147.8     6.0723     1.1078
      147.8     6.0759     1.1079
      147.8     6.0799     1.0787
      147.8     6.0839      1.001
      147.8     6.0879      1.069
      147.8     6.0919     1.0398
      147.8     6.0964     1.1175
      147.8     6.1013     1.0399
      147.8     6.1035    0.99133
      147.8     6.1084      1.069
      147.8      6.112     1.0011
      147.8      6.116     1.1079
      147.8     6.1204     1.1273
      147.8     6.1235     1.0885
      147.8     6.1276     1.0788
      147.8     6.1316     1.0982
      147.8      6.136     1.0302
      147.8       6.14     1.1856
      147.8      6.144     1.1079
      147.8     6.1485     1.1856
      147.8     6.1525     1.1856
      147.8     6.1565     1.1856
      147.8     6.1605     1.2342
      147.8     6.1636     1.0983
      147.8     6.1677     1.1759
      147.8      6.173     1.1468
      147.8     6.1761     1.1857
      147.8     6.1815     1.2245
      147.8     6.1837     1.2439
      147.8     6.1877     1.2536
      147.8     6.1926     1.1857
      147.8     6.1962     1.2537
      147.8     6.2011     1.2731
      147.8     6.2042     1.1954
       168.      5.647    0.14486
       168.     5.6519    0.16445
       168.     5.6559     0.1255
       168.     5.6599     0.1841
       168.     5.6639    0.19392
       168.     5.6679    0.18423
       168.     5.6719    0.19405
       168.     5.6755    0.20387
       168.       5.68    0.23321
       168.     5.6835    0.26253
       168.     5.6884    0.28213
       168.      5.692    0.28218
       168.     5.6955    0.31151
       168.        5.7    0.30183
       168.     5.7031     0.3409
       168.      5.708    0.38976
       168.     5.7116    0.39958
       168.      5.716    0.43868
       168.     5.7196    0.43873
       168.     5.7236    0.49734
       168.     5.7276    0.56569
       168.     5.7311    0.57551
       168.      5.736    0.65364
       168.     5.7374    0.67317
       168.     5.7396    0.64394
       168.     5.7418    0.69276
       168.     5.7445    0.71231
       168.     5.7454    0.76111
       168.     5.7476    0.82944
       168.     5.7516    0.85877
       168.     5.7556    0.90762
       168.     5.7596    0.98573
       168.     5.7645     1.0931
       168.     5.7676     1.2005
       168.     5.7721     1.2689
       168.     5.7761     1.2689
       168.     5.7801     1.3958
       168.     5.7837     1.4739
       168.     5.7886     1.5325
       168.     5.7921     1.6106
       168.     5.7961     1.7083
       168.     5.7997     1.8547
       168.     5.8041     1.9035
       168.     5.8086     1.9914
       168.     5.8117     2.1183
       168.     5.8161     2.0988
       168.     5.8206      2.216
       168.     5.8241     2.2453
       168.     5.8282     2.2356
       168.     5.8326     2.2064
       168.     5.8362     2.0992
       168.     5.8406     2.2749
       168.     5.8437     2.1091
       168.     5.8477     2.2067
       168.     5.8522     2.1092
       168.     5.8562     2.0312
       168.     5.8602      2.041
       168.     5.8638     1.8655
       168.     5.8673     1.9046
       168.     5.8696     1.7875
       168.     5.8718     1.8168
       168.     5.8736     1.7974
       168.     5.8758      2.051
       168.     5.8776     2.3828
       168.     5.8798     2.7048
       168.      5.882     2.8121
       168.     5.8842     2.7634
       168.     5.8865     2.6854
       168.     5.8887     2.5293
       168.     5.8923     2.3928
       168.     5.8963     2.2758
       168.     5.9003     2.1783
       168.     5.9043     2.1296
       168.     5.9087     2.1394
       168.     5.9123     1.9346
       168.     5.9163     1.9932
       168.     5.9203     1.9835
       168.     5.9239     1.8957
       168.      5.927     1.9348
       168.     5.9315     1.8959
       168.     5.9364     1.8472
       168.     5.9404     1.9155
       168.     5.9439     1.9546
       168.     5.9479     1.8376
       168.     5.9524     1.8572
       168.     5.9564     1.8572
       168.       5.96     1.7988
       168.      5.964     1.9549
       168.     5.9684     1.8477
       168.      5.972     1.8477
       168.     5.9764     1.8478
       168.       5.98     1.8089
       168.      5.984     1.8382
       168.     5.9885     1.8383
       168.     5.9929     1.8091
       168.      5.996     1.8384
       168.     5.9996     1.7311
       168.     6.0036     1.7312
       168.      6.008       1.78
       168.      6.012     1.8289
       168.     6.0161      1.829
       168.     6.0201     1.8193
       168.     6.0245     1.8681
       168.     6.0285     1.8292
       168.     6.0325     1.7414
       168.      6.037     1.7805
       168.     6.0405     1.8098
       168.      6.045     1.8099
       168.     6.0481     1.7417
       168.     6.0526     1.7418
       168.     6.0566     1.7419
       168.     6.0601     1.6346
       168.     6.0641     1.6737
       168.     6.0682     1.6054
       168.     6.0722     1.6152
       168.     6.0766     1.6251
       168.     6.0806     1.4788
       168.     6.0842     1.5569
       168.     6.0882      1.518
       168.     6.0918      1.557
       168.     6.0962     1.5474
       168.     6.1002     1.5572
       168.     6.1038     1.4402
       168.     6.1078     1.5183
       168.     6.1118     1.5183
       168.     6.1158     1.5184
       168.     6.1207     1.4795
       168.     6.1238     1.5868
       168.     6.1283     1.4893
       168.     6.1318     1.5089
       168.     6.1363      1.548
       168.     6.1403     1.6164
       168.     6.1438     1.5384
       168.     6.1483     1.6653
       168.     6.1523     1.6653
       168.     6.1563     1.6069
       168.     6.1608     1.7045
       168.     6.1639     1.6363
       168.     6.1683     1.6754
       168.     6.1723     1.6462
       168.     6.1759     1.7048
       168.     6.1799     1.6951
       168.     6.1848     1.7342
       168.     6.1884      1.744
       168.     6.1924     1.6953
       168.     6.1959     1.7344
       168.     6.1999     1.7734
       168.     6.2044      1.754
ENDDATA            635
ENDSUBENT          651
SUBENT        F0970004   20100519   20110216   20110112       F039
BIB                  5          7
REACTION   (9-F-19(P,INL)9-F-19,PAR,DA)
DETECTOR   (SOLST) A 60 cm scattering chamber equipped with solid
           state detectors and standard modular electronics.
SAMPLE     Thin targets of 6LiF deposited on thin carbon foils
           were used.
ERR-ANALYS (ERR-SYS)   Absolute cross section error
STATUS     (CURVE) Fig.4
ENDBIB               7
COMMON               5          3
ANG        E-LVL      ERR-SYS    EN-ERR-DIG ERR-DIG
ADEG       MEV        PER-CENT   MEV        MB/SR
  168.       0.11       30.        0.0001     0.0068
ENDCOMMON            3
DATA                 2         28
EN         DATA
MEV        MB/SR
     5.8301     2.6516
     5.8374      2.632
     5.8448     2.5557
     5.8531     2.5171
      5.857     2.4035
     5.8609      2.271
     5.8649     2.2329
     5.8678     2.0816
     5.8702     2.1003
     5.8712     2.0058
     5.8737     2.0056
     5.8761     2.2695
     5.8786       2.59
     5.8811      2.835
      5.883     2.8725
      5.885     2.7968
      5.886     2.8533
     5.8879     2.6645
     5.8894      2.702
     5.8928     2.7772
     5.8938      2.645
     5.8958     2.6825
     5.8977     2.5314
     5.9002     2.5311
     5.9021     2.6064
     5.9041     2.4552
      5.907     2.4172
     5.9119     2.3978
ENDDATA             30
ENDSUBENT           46
SUBENT        F0970005   20100519   20110216   20110112       F039
BIB                  5          7
REACTION   (9-F-19(P,INL)9-F-19,PAR,DA)
DETECTOR   (SOLST) A 60 cm scattering chamber equipped with solid
           state detectors and standard modular electronics.
SAMPLE     Thin targets of 6LiF deposited on thin carbon foils
           were used.
ERR-ANALYS (ERR-SYS)   Absolute cross section error
STATUS     (CURVE) Fig.4
ENDBIB               7
COMMON               5          3
ANG        E-LVL      ERR-SYS    EN-ERR-DIG ERR-DIG
ADEG       MEV        PER-CENT   MEV        MB/SR
  168.       1.56       30.       0.0003     0.0061
ENDCOMMON            3
DATA                 2         65
EN         DATA
MEV        MB/SR
     5.7492     4.6121
     5.7532     4.5455
     5.7566     4.4011
     5.7606     4.2344
      5.765     4.3345
      5.769     4.2567
      5.773     4.1123
     5.7764     3.9679
     5.7809     4.0013
     5.7853     3.8013
     5.7893     3.7125
     5.7927     3.5458
     5.7967     3.4903
     5.8002     3.3126
     5.8041     3.2348
     5.8086     3.0682
     5.8125     3.1127
     5.8165     3.0016
     5.8199     2.9683
     5.8249     2.7794
     5.8283     2.6128
     5.8323      2.624
     5.8363     2.5018
     5.8402      2.524
     5.8442     2.4463
     5.8481     2.4574
     5.8526     2.3352
     5.8555     2.1797
     5.8605     2.1909
     5.8639     2.1131
     5.8684     2.1021
     5.8699     1.9576
     5.8719     1.8688
     5.8748     2.0021
     5.8758     1.9132
     5.8783     2.1799
     5.8798     2.3577
     5.8827     2.3578
     5.8837     2.2911
     5.8882     2.3578
     5.8921     2.1689
     5.8961     2.2468
        5.9     2.1579
      5.904     2.2135
     5.9079     2.0913
     5.9119     2.0913
     5.9158     2.1469
     5.9203     2.1136
     5.9233     1.9137
     5.9277     1.9137
     5.9322     1.9026
     5.9361      1.836
     5.9396     1.7805
     5.9435     1.7805
     5.9475     1.6694
     5.9519     1.6917
     5.9564     1.5917
     5.9598     1.6807
     5.9638     1.6029
     5.9683     1.6363
     5.9722     1.5919
     5.9762     1.5475
     5.9801     1.5142
     5.9841     1.5698
      5.988     1.4698
ENDDATA             67
ENDSUBENT           83
SUBENT        F0970006   20100519   20110216   20110112       F039
BIB                  5          7
REACTION   (9-F-19(P,INL)9-F-19,PAR,DA)
DETECTOR   (SOLST) A 60 cm scattering chamber equipped with solid
           state detectors and standard modular electronics.
SAMPLE     Thin targets of 6LiF deposited on thin carbon foils
           were used.
ERR-ANALYS (ERR-SYS)   Absolute cross section error
STATUS     (CURVE) Fig.4
ENDBIB               7
COMMON               4          3
ANG        ERR-SYS    EN-ERR-DIG ERR-DIG
ADEG       PER-CENT   MEV        MB/SR
  168.       30.        0.0003     0.0054
ENDCOMMON            3
DATA                 3        131
E-LVL      EN         DATA
MEV        MEV        MB/SR
       1.35     5.7475    0.85368
       1.35      5.752    0.83101
       1.35     5.7565    0.78562
       1.35     5.7609    0.75158
       1.35     5.7654    0.78573
       1.35     5.7684    0.81986
       1.35     5.7723    0.81991
       1.35     5.7763    0.81996
       1.35     5.7798    0.91091
       1.35     5.7843    0.89961
       1.35     5.7877     1.0019
       1.35     5.7922      1.127
       1.35     5.7957     1.2179
       1.35     5.8001     1.2066
       1.35     5.8046     1.2408
       1.35     5.8085     1.3431
       1.35     5.8125     1.3659
       1.35      5.816     1.4909
       1.35     5.8204     1.5819
       1.35     5.8244     1.6274
       1.35     5.8284     1.6388
       1.35     5.8323     1.7411
       1.35     5.8363     1.7412
       1.35     5.8403     1.8208
       1.35     5.8438     1.8208
       1.35     5.8487     1.9345
       1.35     5.8522     1.9005
       1.35     5.8571     1.9914
       1.35     5.8601     1.9233
       1.35     5.8646     1.9006
       1.35     5.8686     1.9575
       1.35       5.87     1.8098
       1.35      5.873     1.8098
       1.35      5.874     1.7303
       1.35     5.8765     1.7303
       1.35      5.878     1.6394
       1.35       5.88     1.7986
       1.35     5.8829       1.81
       1.35     5.8849     1.8327
       1.35     5.8859     1.9804
       1.35     5.8884     2.0259
       1.35     5.8919     1.9578
       1.35     5.8973     1.9465
       1.35     5.9003     2.0261
       1.35     5.9087     1.9012
       1.35     5.9132     1.9013
       1.35     5.9172     1.8786
       1.35     5.9201     1.9013
       1.35     5.9241     1.7991
       1.35     5.9291     1.7765
       1.35     5.9325     1.7083
       1.35      5.937     1.7425
       1.35     5.9405     1.6175
       1.35      5.945     1.5607
       1.35     5.9494     1.5835
       1.35     5.9529     1.5154
       1.35     5.9569     1.4814
       1.35     5.9608     1.4587
       1.35     5.9648     1.3905
       1.35     5.9688     1.2997
       1.35     5.9727     1.3338
       1.35     5.9772     1.2316
       1.35     5.9802     1.0953
       1.35     5.9851     1.0953
       1.35     5.9891     1.0159
       1.46     5.7476     1.1612
       1.46     5.7521    0.97734
       1.46     5.7555    0.77046
       1.46     5.7595    0.66702
       1.46     5.7635    0.60956
       1.46     5.7679     0.5636
       1.46     5.7714    0.47165
       1.46     5.7749    0.47166
       1.46     5.7788    0.47168
       1.46     5.7833     0.4602
       1.46     5.7878     0.4717
       1.46     5.7917    0.51769
       1.46     5.7957     0.5292
       1.46     5.7997     0.5522
       1.46     5.8031    0.58669
       1.46     5.8076    0.63268
       1.46     5.8116    0.69016
       1.46      5.816    0.74765
       1.46       5.82    0.78214
       1.46     5.8235     0.8741
       1.46     5.8284    0.93159
       1.46     5.8319     1.0006
       1.46     5.8359     1.0695
       1.46     5.8403     1.0466
       1.46     5.8438      1.104
       1.46     5.8483     1.1385
       1.46     5.8522      1.219
       1.46     5.8557     1.1616
       1.46     5.8597      1.265
       1.46     5.8646     1.2305
       1.46     5.8676     1.2076
       1.46     5.8706     1.2765
       1.46     5.8726     1.1961
       1.46      5.874     1.0697
       1.46      5.876    0.96621
       1.46      5.878    0.89725
       1.46       5.88    0.97772
       1.46      5.882     1.0237
       1.46      5.884     1.1042
       1.46     5.8854     1.1961
       1.46     5.8884     1.1846
       1.46     5.8919     1.3456
       1.46     5.8964     1.3916
       1.46     5.9003      1.449
       1.46     5.9043     1.5295
       1.46     5.9073     1.6445
       1.46     5.9122     1.4721
       1.46     5.9152     1.6445
       1.46     5.9197      1.656
       1.46     5.9241      1.702
       1.46     5.9281     1.6445
       1.46     5.9321     1.7365
       1.46     5.9365      1.794
       1.46     5.9405     1.8055
       1.46     5.9435     1.8055
       1.46     5.9479      1.863
       1.46     5.9524      1.909
       1.46     5.9564      1.863
       1.46     5.9603     2.0124
       1.46     5.9643     1.8745
       1.46     5.9688      1.909
       1.46     5.9722      1.978
       1.46     5.9767      1.909
       1.46     5.9802     1.8861
       1.46     5.9841     1.8286
       1.46     5.9886     1.8286
ENDDATA            133
ENDSUBENT          149
SUBENT        F0970007   20100519   20110216   20110112       F039
BIB                  5          7
REACTION   (9-F-19(P,A)8-O-16,PAR,DA)
DETECTOR   (SOLST) A 60 cm scattering chamber equipped with solid
           state detectors and standard modular electronics.
SAMPLE     Thin targets of 6LiF deposited on thin carbon foils
           were used.
ERR-ANALYS (ERR-SYS)   Absolute cross section error
STATUS     (CURVE) Fig.4
ENDBIB               7
COMMON               4          3
ANG        ERR-SYS    EN-ERR-DIG ERR-DIG
ADEG       PER-CENT   MEV        MB/SR
  154.5      30.        0.0003     0.0075
ENDCOMMON            3
DATA                 3        338
E-LVL      EN         DATA
MEV        MEV        MB/SR
       6.05     5.8283     1.0193
       6.05     5.8353    0.99663
       6.05     5.8433    0.92799
       6.05     5.8537     1.0434
       6.05     5.8607    0.97467
       6.05     5.8637     1.1127
       6.05     5.8676     1.3198
       6.05     5.8721     1.6878
       6.05     5.8741     1.8258
       6.05     5.8756     1.7339
       6.05     5.8786      1.757
       6.05     5.8801     1.4122
       6.05     5.8826     1.1365
       6.05     5.8841     1.0216
       6.05     5.8865    0.97573
       6.05      5.888    0.88384
       6.05     5.8905    0.97589
       6.05     5.8915      0.838
       6.05     5.8945    0.81514
       6.05      5.898    0.86126
       6.05      5.903    0.95341
       6.05     5.9079    0.90764
       6.05     5.9119    0.99976
       6.13     5.8283     3.1215
       6.13     5.8363     3.0536
       6.13     5.8437     3.0767
       6.13     5.8532     3.0998
       6.13     5.8591        3.1
       6.13     5.8636     3.1457
       6.13     5.8681     3.2822
       6.13     5.8716     3.6233
       6.13     5.8741      3.987
       6.13     5.8755     4.2598
       6.13     5.8785     4.3735
       6.13       5.88     4.1009
       6.13     5.8825     3.6237
       6.13     5.8845     3.3511
       6.13      5.886     3.0784
       6.13      5.889     2.8967
       6.13     5.8915     2.9422
       6.13     5.8935     2.8969
       6.13      5.898     2.9198
       6.13     5.9029       2.92
       6.13     5.9089     2.9657
       6.13     5.9124     2.8067
       6.92      5.649      2.615
       6.92      5.652     2.7249
       6.92     5.6569     2.7906
       6.92     5.6609     2.8345
       6.92     5.6649     2.8783
       6.92     5.6683     2.8563
       6.92     5.6728     2.7682
       6.92     5.6763     3.0978
       6.92     5.6812     3.0097
       6.92     5.6837     3.2075
       6.92     5.6892     3.1853
       6.92     5.6927     3.3611
       6.92     5.6966      3.339
       6.92     5.7006     3.5586
       6.92     5.7051     3.4926
       6.92      5.709      3.954
       6.92      5.713     3.9319
       6.92     5.7165     4.2175
       6.92     5.7205     4.3053
       6.92     5.7249     4.6129
       6.92     5.7289     5.1622
       6.92     5.7334     5.5577
       6.92     5.7373     6.2609
       6.92     5.7393      6.107
       6.92     5.7428     6.3486
       6.92     5.7458     6.1068
       6.92     5.7468     6.2606
       6.92     5.7488     6.1946
       6.92     5.7532     6.1725
       6.92     5.7572     5.7768
       6.92     5.7612     5.8646
       6.92     5.7646     5.7546
       6.92     5.7691     5.5347
       6.92     5.7736     5.6665
       6.92     5.7775     5.4246
       6.92     5.7815     5.5563
       6.92      5.785     5.1826
       6.92     5.7889     5.4682
       6.92     5.7934     5.4901
       6.92     5.7969     5.3361
       6.92     5.8003     5.4239
       6.92     5.8048     5.4018
       6.92     5.8093     5.4237
       6.92     5.8127     5.2038
       6.92     5.8167     5.4455
       6.92     5.8207     5.3574
       6.92     5.8251     5.2694
       6.92     5.8301     5.2033
       6.92     5.8341     5.1153
       6.92     5.8375     4.9833
       6.92      5.842     5.0931
       6.92      5.845     4.9172
       6.92     5.8494     5.0489
       6.92     5.8539     5.0048
       6.92     5.8574     4.9168
       6.92     5.8609     5.0486
       6.92     5.8653     4.8946
       6.92     5.8698     5.0044
       6.92     5.8708     4.7626
       6.92     5.8733     4.7625
       6.92     5.8757     4.8504
       6.92     5.8777     4.7184
       6.92     5.8797     4.8503
       6.92     5.8822     4.8502
       6.92     5.8837     4.7183
       6.92     5.8862     4.7622
       6.92     5.8896     4.6302
       6.92     5.8931     4.4763
       6.92     5.8971     4.3223
       6.92     5.9015     4.2123
       6.92      5.905      4.388
       6.92     5.9095      4.234
       6.92     5.9134     4.2119
       6.92     5.9179     4.2338
       6.92     5.9209     4.0799
       6.92     5.9243     3.9259
       6.92     5.9288      3.684
       6.92     5.9333     3.7498
       6.92     5.9367     3.5959
       6.92     5.9402     3.5079
       6.92     5.9452     3.6836
       6.92     5.9496     3.5296
       6.92     5.9531     3.3537
       6.92     5.9566     3.4195
       6.92     5.9615     3.3095
       6.92      5.965     3.4412
       6.92     5.9695     3.3093
       6.92      5.973      3.419
       6.92     5.9774     3.5288
       6.92     5.9809     3.5287
       6.92     5.9839     3.7264
       6.92     5.9898     3.8581
       6.92     5.9938     4.0119
       6.92     5.9973     4.0337
       6.92     6.0012     3.9897
       6.92     6.0052     4.1214
       6.92     6.0092     4.3631
       6.92     6.0127     4.6267
       6.92     6.0171     4.5606
       6.92     6.0216     4.6265
       6.92     6.0251     4.8242
       6.92     6.0295     4.9999
       6.92     6.0335     4.9558
       6.92     6.0375     4.8238
       6.92     6.0419     5.0654
       6.92     6.0459     5.1532
       6.92     6.0494     5.0872
       6.92     6.0538     5.6365
       6.92     6.0578     5.2628
       6.92     6.0618     5.4385
       6.92     6.0652     5.1747
       6.92     6.0697     5.3064
       6.92     6.0732     5.3503
       6.92     6.0777     5.0864
       6.92     6.0816     5.0204
       6.92     6.0856     5.1082
       6.92     6.0891     4.8443
       6.92      6.093     5.2838
       6.92     6.0975     5.3056
       6.92     6.1015     5.0857
       6.92     6.1049     4.9538
       6.92     6.1089     4.9097
       6.92     6.1139     5.1953
       6.92     6.1178     5.1512
       6.92     6.1218     5.0851
       6.92     6.1248     5.0631
       6.92     6.1258     4.9751
       6.92     6.1292     5.1728
       6.92     6.1332     5.4804
       6.92     6.1377     5.2825
       6.92     6.1417     6.1615
       6.92     6.1456     5.9636
       6.92     6.1501     6.6448
       6.92     6.1536     6.9744
       6.92     6.1575     6.8644
       6.92      6.162     7.3917
       6.92      6.165     7.5235
       6.92       6.17     7.4574
       6.92     6.1729     7.5452
       6.92     6.1769     7.8968
       6.92     6.1809     7.6329
       6.92     6.1858     7.6328
       6.92     6.1893     7.5228
       6.92     6.1928     7.6546
       6.92     6.1977     7.3248
       6.92     6.2017     7.5884
       6.92     6.2062     7.2366
       7.12     5.6495     2.6368
       7.12      5.653     2.5474
       7.12     5.6569     2.6591
       7.12     5.6604     2.7037
       7.12     5.6649     2.8825
       7.12     5.6688     2.8824
       7.12     5.6733     3.0388
       7.12     5.6767     2.9941
       7.12     5.6807     3.2175
       7.12     5.6847     3.1728
       7.12     5.6891      3.061
       7.12     5.6926      3.061
       7.12     5.6965     3.2174
       7.12     5.7005     3.0833
       7.12      5.705     3.1503
       7.12     5.7089     3.0832
       7.12     5.7124     2.9714
       7.12     5.7178     3.0831
       7.12     5.7208     2.7703
       7.12     5.7253     2.7479
       7.12     5.7282      2.502
       7.12     5.7337     2.5243
       7.12     5.7366     2.3902
       7.12     5.7381     2.5243
       7.12     5.7406     2.7924
       7.12     5.7431     2.7477
       7.12     5.7465       2.77
       7.12      5.748     2.9488
       7.12     5.7525     3.1722
       7.12     5.7569     3.3957
       7.12     5.7609     3.5744
       7.12     5.7654     3.6414
       7.12     5.7693     3.7084
       7.12     5.7728     3.8648
       7.12     5.7772     3.9095
       7.12     5.7802      3.686
       7.12     5.7852     3.7977
       7.12     5.7891     3.7529
       7.12     5.7931     3.7082
       7.12      5.797     3.6411
       7.12     5.8005       3.44
       7.12     5.8055     3.6411
       7.12     5.8089     3.4846
       7.12     5.8129     3.1941
       7.12     5.8163     3.3281
       7.12     5.8218     3.1717
       7.12     5.8248     3.0376
       7.12     5.8292     2.9928
       7.12     5.8322      2.747
       7.12     5.8366     2.8587
       7.12     5.8416     2.7469
       7.12     5.8451     2.6575
       7.12     5.8485     2.8586
       7.12     5.8535     2.6351
       7.12     5.8564     2.9256
       7.12     5.8609     2.7468
       7.12     5.8654      2.635
       7.12     5.8683     2.9031
       7.12     5.8708     2.8584
       7.12     5.8728     2.9701
       7.12     5.8748     3.2606
       7.12     5.8767     3.1042
       7.12     5.8787     3.3053
       7.12     5.8817     3.3499
       7.12     5.8847     3.3499
       7.12     5.8862     3.1935
       7.12     5.8896     3.2158
       7.12     5.8926     3.1934
       7.12     5.8965     3.2604
       7.12     5.9005     3.3274
       7.12      5.905     3.3274
       7.12     5.9089     3.4615
       7.12     5.9119     3.4614
       7.12     5.9168      3.305
       7.12     5.9208     3.5284
       7.12     5.9243     3.6177
       7.12     5.9292     3.7071
       7.12     5.9332     3.7964
       7.12     5.9371     3.8858
       7.12     5.9416     3.8187
       7.12     5.9446     3.9751
       7.12      5.949     3.8857
       7.12     5.9535     4.1091
       7.12     5.9565     3.8856
       7.12     5.9614     4.0197
       7.12     5.9654     3.9526
       7.12     5.9703     3.9749
       7.12     5.9738     3.8855
       7.12     5.9777     3.9972
       7.12     5.9827     3.9972
       7.12     5.9857     4.0865
       7.12     5.9886      3.863
       7.12     5.9936     3.9077
       7.12      5.998     3.8853
       7.12     6.0005     3.7959
       7.12     6.0045     3.5724
       7.12     6.0089     3.6617
       7.12     6.0124     3.6617
       7.12     6.0173     3.6393
       7.12     6.0213     3.5946
       7.12     6.0253     3.7063
       7.12     6.0287     3.4828
       7.12     6.0332     3.5275
       7.12     6.0371     3.5274
       7.12     6.0406     3.3486
       7.12     6.0451     3.5274
       7.12     6.0485     3.3709
       7.12      6.053     3.2815
       7.12     6.0569     3.1921
       7.12     6.0614     3.2144
       7.12     6.0644     3.0132
       7.12     6.0683     3.0356
       7.12     6.0728     2.9238
       7.12     6.0767     2.9461
       7.12     6.0802     2.7896
       7.12     6.0852     2.6555
       7.12     6.0881      2.432
       7.12     6.0921     2.5884
       7.12      6.097     2.5884
       7.12        6.1     2.3873
       7.12      6.105     2.4543
       7.12     6.1074      2.119
       7.12     6.1124     2.2307
       7.12     6.1163     1.9178
       7.12     6.1208     1.9625
       7.12     6.1243     1.8284
       7.12     6.1277     1.7166
       7.12     6.1327      1.806
       7.12     6.1361     1.7389
       7.12     6.1406     1.8506
       7.12     6.1441     1.6271
       7.12     6.1485     1.4707
       7.12     6.1525     1.6494
       7.12     6.1564      1.627
       7.12     6.1599      1.627
       7.12     6.1639     1.5823
       7.12     6.1683     1.6493
       7.12     6.1718     1.5152
       7.12     6.1757     1.6715
       7.12     6.1802     1.6939
       7.12     6.1842     1.6715
       7.12     6.1881     1.8055
       7.12     6.1916     1.6938
       7.12      6.196     1.8501
       7.12     6.2015     1.8724
       7.12     6.2055     1.8724
ENDDATA            340
ENDSUBENT          356
SUBENT        F0970008   20100519   20110216   20110112       F039
BIB                  5          7
REACTION   (9-F-19(P,A)8-O-16,PAR,DA)
DETECTOR   (SOLST) A 60 cm scattering chamber equipped with solid
           state detectors and standard modular electronics.
SAMPLE     Thin targets of 6LiF deposited on thin carbon foils
           were used.
ERR-ANALYS (ERR-SYS)   Absolute cross section error
STATUS     (CURVE) Fig.4
ENDBIB               7
COMMON               6          3
ANG        E-LVL      E-LVL      ERR-SYS    EN-ERR-DIG ERR-DIG
ADEG       MEV        MEV        PER-CENT   MEV        MB/SR
  154.5      6.05       6.13       30.        0.0003     0.0068
ENDCOMMON            3
DATA                 2        145
EN         DATA
MEV        MB/SR
      5.648     3.8669
      5.652     3.8226
      5.656     3.7115
       5.66     3.9783
     5.6654     3.8895
     5.6689      3.934
     5.6724     3.8897
     5.6758     3.9342
     5.6803     3.8898
     5.6843      4.001
     5.6882     3.9789
     5.6922     4.0679
     5.6967     3.8458
     5.7002     3.7569
     5.7046     3.7126
     5.7091     3.7349
     5.7126      3.735
     5.7165     3.7351
      5.721     3.5352
     5.7245     3.4019
     5.7284     3.3798
     5.7324     3.4021
     5.7359     3.3577
     5.7399     3.5134
     5.7443     3.3135
     5.7478     3.4024
     5.7523     3.4692
     5.7562     3.4471
     5.7602     3.5583
     5.7642     3.5584
     5.7681     3.5807
     5.7726     3.5141
     5.7756     3.6697
     5.7801     3.5587
     5.7845     3.5366
      5.788     3.6922
     5.7925     3.8479
     5.7974     3.8258
     5.7999     3.7369
     5.8049     4.0259
     5.8088     3.9816
     5.8123     4.0705
     5.8168     4.0484
     5.8207     4.2041
     5.8247     4.2708
     5.8282     4.2264
     5.8322      4.271
     5.8366     4.2933
     5.8401     4.2267
     5.8446      4.249
     5.8485     4.2047
     5.8525     4.4714
     5.8565     4.2715
     5.8595     4.2494
     5.8639     4.2272
     5.8684     4.6496
     5.8709     4.9385
     5.8733     4.9163
     5.8738     5.3608
     5.8768     6.0053
     5.8788     5.7831
     5.8813     5.8498
     5.8828     5.2943
     5.8843      4.761
     5.8868       4.25
     5.8882     4.0722
     5.8922     3.9834
     5.8957     4.0502
     5.9007     3.9836
     5.9046     4.1615
     5.9091     3.9616
     5.9126     3.8727
     5.9165     4.0284
     5.9205     3.8951
      5.925     3.9175
     5.9289     3.8953
     5.9319     3.7398
     5.9364     3.8288
     5.9404     3.5845
     5.9448     3.6512
     5.9483     3.5402
     5.9528     3.5403
     5.9562      3.407
     5.9607     3.3627
     5.9652     3.3406
     5.9682     3.0517
     5.9721     3.2296
     5.9771     3.0964
     5.9806     3.1854
     5.9845     3.1188
      5.989     2.9855
     5.9925     2.8078
     5.9964     2.7413
     6.0009     2.7636
     6.0039     2.6748
     6.0084      2.586
     6.0123     2.6972
     6.0163     2.6528
     6.0208     2.4751
     6.0242     2.5641
     6.0287     2.4975
     6.0327     2.5198
     6.0362     2.3421
     6.0406     2.3645
     6.0441     2.4756
     6.0486     2.4091
      6.053     2.4092
      6.057      2.387
      6.061     2.4093
     6.0644     2.2983
     6.0684     2.3206
     6.0724     2.4985
     6.0768     2.4097
     6.0798     2.3653
     6.0843     2.4543
     6.0883     2.5877
     6.0922     2.5878
     6.0957     2.8323
     6.1002     2.8547
     6.1036     2.7214
     6.1081     2.8548
     6.1121     2.9883
     6.1156     2.8106
      6.119     3.0329
      6.124     2.8996
     6.1285     2.8775
     6.1324     3.0109
     6.1364     2.9221
     6.1404     3.1444
     6.1438     2.9667
     6.1478     3.0557
     6.1518     3.4336
     6.1562     3.5892
     6.1597     3.6115
     6.1647     3.7672
     6.1672     3.9673
     6.1721     3.8118
     6.1761     3.8119
     6.1801     4.0342
      6.184     3.9898
      6.189       3.99
      6.192     4.1456
     6.1964     4.1679
     6.1994     4.3013
     6.2039     4.3014
ENDDATA            147
ENDSUBENT          163
SUBENT        F0970009   20100519   20110216   20110112       F039
BIB                  6          9
REACTION   (9-F-19(P,N)10-NE-19,,SIG)
DETECTOR   An automatic timing and control system was used.
SAMPLE     A 6LiF layer on a 0.025 cm gold backing was used.
METHOD     (COINC)
           (TOF)
           (PHD)
ERR-ANALYS (ERR-SYS)   Absolute cross section error
           (DATA-ERR)   Error from the graphic bars
STATUS     (CURVE) Fig.5
ENDBIB               9
COMMON               3          3
ERR-SYS    EN-ERR-DIG ERR-DIG
PER-CENT   MEV        MB
  20.       0.0002     0.0409
ENDCOMMON            3
DATA                 3        104
EN         DATA       DATA-ERR
MEV        MB         MB
      5.782     46.252     1.1978
      5.784     46.062
     5.7857      46.61
     5.7871     45.592
     5.7888     45.679
     5.7908     45.028
     5.7927     45.114
     5.7951     45.108
     5.7971     46.024
     5.7988     45.558     1.1071
     5.8006     45.368
     5.8028     42.503
      5.803     43.333
     5.8043     44.159
     5.8049     45.725
     5.8069     45.535
     5.8082      45.07
     5.8106     44.786
      5.813     44.779
     5.8146     43.299    0.92164
     5.8169     44.215
     5.8183     43.842
     5.8202     43.099
     5.8224     43.922
     5.8242     44.101
     5.8264      43.08
     5.8281     43.721
       5.83     43.808
      5.832     43.526
     5.8342     42.966
     5.8357     42.316
      5.836     40.747    0.73827
     5.8379     42.494
     5.8401     42.488
     5.8419     41.376
     5.8427     42.296
     5.8438     41.186
     5.8442     42.384
      5.846     42.747
     5.8464     40.256
     5.8475     40.622
     5.8484     42.279
     5.8497     41.446
     5.8504      42.55
     5.8519       41.9
     5.8536     41.803    0.73827
     5.8562     41.888
      5.858     42.621
       5.86     42.799
     5.8602     38.557
     5.8617     41.872
     5.8621       43.9
     5.8637     42.881
     5.8663     44.349
     5.8665     42.596
     5.8676     43.146
     5.8678     41.947
     5.8702     41.663    0.73774
     5.8715     42.213
     5.8741     43.035
     5.8761      43.03
     5.8776     42.749
     5.8783     41.087
       5.88     41.358
       5.88     43.479
     5.8811     42.923
      5.882     40.523
     5.8837     41.809
     5.8863     41.894
     5.8877     42.443
     5.8898     41.146     0.5533
     5.8914     41.786
     5.8935     42.426
     5.8949     41.869
     5.8959      42.88
     5.8977     41.676
     5.8986     41.028
     5.8996     41.763
      5.902     41.848
     5.9038     42.857
     5.9053     43.775     3.4136
     5.9073      43.77
     5.9081       42.2
     5.9092      43.58
     5.9112     43.389
     5.9119     42.742
     5.9134     44.121
     5.9155     44.668
     5.9179     44.292
     5.9193     44.288
     5.9215     43.729
     5.9227     45.109    0.73774
     5.9251     45.194
     5.9271     45.372
     5.9279     46.108
     5.9297     45.734
     5.9327     47.293
     5.9332     46.461
     5.9351     47.009
     5.9369     47.557
     5.9389     45.707
     5.9404     48.285     0.9227
     5.9425     48.187
     5.9447     49.103
ENDDATA            106
ENDSUBENT          124
SUBENT        F0970010   20100519   20110216   20110112       F039
BIB                  6          8
REACTION   (9-F-19(P,N)10-NE-19,PAR,DA)
DETECTOR   An automatic timing and control system was used.
SAMPLE     The target was CaF.
METHOD     (COINC)
           (TOF)
           (PHD)
ERR-ANALYS (ERR-SYS)   Absolute cross section error
STATUS     (CURVE) Fig.5
ENDBIB               8
COMMON               4          3
E-LVL      ERR-SYS    EN-ERR-DIG ERR-DIG
MEV        PER-CENT   MEV        MB/SR
  0.         50.        0.0001     0.0048
ENDCOMMON            3
DATA                 3         60
ANG        EN         DATA
ADEG       MEV        MB/SR
         0.     5.8241     4.8108
         0.     5.8325     4.9792
         0.     5.8404      4.934
         0.     5.8438     4.7193
         0.     5.8488     4.7861
         0.     5.8519      4.392
         0.     5.8562     4.3137
         0.     5.8596     3.7572
         0.     5.8643     3.7899
         0.     5.8675     3.6265
         0.     5.8722      3.249
         0.     5.8756     3.2736
         0.     5.8803      4.238
         0.     5.8838     4.7327
         0.     5.8876     3.9366
         0.     5.8916     3.7986
         0.     5.8958     3.3187
         0.     5.8995     3.2919
         0.     5.9037     2.9146
         0.     5.9078     2.7595
         0.     5.9112     2.6644
         0.     5.9154     2.4836
         0.     5.9236     2.2247
         0.     5.9317     2.2649
        90.     5.8238     2.6075
        90.     5.8319     2.5251
        90.     5.8398     2.3518
        90.      5.848     2.3933
        90.     5.8521     2.4017
        90.     5.8561      2.253
        90.       5.86     2.1787
        90.     5.8634     2.1044
        90.     5.8654     2.0797
        90.     5.8682     2.2203
        90.     5.8718     2.0055
        90.     5.8761     1.8238
        90.     5.8797     1.8239
        90.      5.884      1.981
        90.     5.8879     1.8158
        90.     5.8958      1.783
        90.      5.904     1.8658
        90.     5.9121     1.7586
        90.     5.9201     1.4861
        90.      5.928      1.478
       150.     5.8317     2.2913
       150.     5.8514     2.3949
       150.      5.856     2.3439
       150.     5.8596     2.2074
       150.     5.8641     2.2333
       150.     5.8675     2.3531
       150.     5.8718     2.6012
       150.     5.8763     3.1143
       150.     5.8802     2.6102
       150.     5.8838     2.3455
       150.     5.8883     2.2432
       150.      5.892     2.0383
       150.     5.8963     2.4829
       150.     5.8997     2.2951
       150.     5.9038     2.5176
       150.     5.9196     2.5954
ENDDATA             62
ENDSUBENT           79
SUBENT        F0970011   20100519   20110216   20110112       F039
BIB                  6          8
REACTION   (9-F-19(P,N)10-NE-19,PAR,DA)
DETECTOR   An automatic timing and control system was used.
SAMPLE     The target was CaF.
METHOD     (COINC)
           (TOF)
           (PHD)
ERR-ANALYS (ERR-SYS)   Absolute cross section error
STATUS     (CURVE) Fig.5
ENDBIB               8
COMMON               5          3
E-LVL      E-LVL      ERR-SYS    EN-ERR-DIG ERR-DIG
MEV        MEV        PER-CENT   MEV        MB/SR
  0.238      0.275      50.        0.0002     0.0017
ENDCOMMON            3
DATA                 3         56
ANG        EN         DATA
ADEG       MEV        MB/SR
         0.     5.8239     4.7708
         0.     5.8317     5.1161
         0.     5.8398     4.7412
         0.     5.8437     5.0452
         0.     5.8477     4.7475
         0.     5.8514     4.8398
         0.     5.8553     4.8472
         0.       5.86     4.7358
         0.     5.8637      4.845
         0.     5.8675     4.7423
         0.     5.8715     5.1904
         0.     5.8757     5.1215
         0.     5.8804     5.7896
         0.     5.8881     5.9486
         0.     5.8913     5.7105
         0.     5.8957     5.8364
         0.     5.9002     5.7759
         0.     5.9036     5.5717
         0.     5.9081     5.4095
         0.     5.9165     5.7039
         0.     5.9242     5.5239
         0.     5.9323     5.1405
        90.     5.8239     3.8707
        90.     5.8314     3.9371
        90.     5.8398     3.7368
        90.     5.8475     3.9199
        90.      5.852     3.6614
        90.     5.8559     3.7863
        90.       5.86     3.8361
        90.     5.8638      3.686
        90.     5.8679     3.7942
        90.     5.8715     3.6024
        90.      5.876     3.6189
        90.     5.8799     3.6354
        90.     5.8838     3.7686
        90.     5.8883     4.1018
        90.     5.8964     3.8599
        90.     5.9042     4.1596
        90.     5.9119      4.151
        90.     5.9202     3.9424
        90.     5.9284     4.1254
       150.     5.8355      3.047
       150.     5.8516     2.9865
       150.     5.8556     2.9949
       150.     5.8595      2.952
       150.      5.864     2.9091
       150.     5.8676     2.9859
       150.     5.8717     2.9942
       150.     5.8762     2.8744
       150.     5.8801     2.6007
       150.      5.884     3.4296
       150.      5.888     3.5406
       150.     5.8921     3.4379
       150.     5.8962     3.8394
       150.     5.8998     3.9247
       150.     5.9041     4.2066
ENDDATA             58
ENDSUBENT           75
SUBENT        F0970012   20100519   20110216   20110112       F039
BIB                  7          8
REACTION   (9-F-19(P,G)10-NE-20,PAR,SIG,,REL)
COMMENT    Data are given as relative counts
DETECTOR   (NAICR) A 24 cm*24 cm NaI(Tl) spectrometer.
SAMPLE     Thin targets of 6LiF deposited on thin carbon foils
           were used.
METHOD     (GSPEC)
ERR-ANALYS (DATA-ERR)   Error from the graphic bars
STATUS     (CURVE) Fig.7
ENDBIB               8
COMMON               2          3
EN-ERR-DIG ERR-DIG
MEV        ARB-UNITS
 0.0005     1.3015
ENDCOMMON            3
DATA                 4         41
E-LVL      EN         DATA       DATA-ERR
MEV        MEV        ARB-UNITS  ARB-UNITS
         0.     5.8409     87.674
         0.     5.8508     82.369
         0.     5.8604      106.2
         0.     5.8668     115.97
         0.     5.8724     141.92
         0.     5.8757     127.93
         0.     5.8786     132.27
         0.      5.879     148.46
         0.     5.8817      126.9
         0.     5.8841     144.19
         0.     5.8897       141.
         0.     5.8979     185.33
         0.     5.8996     133.54
         0.     5.9093     191.91
       1.63      5.841     399.56
       1.63      5.851     448.22
       1.63     5.8607     418.09
       1.63     5.8669     458.08
       1.63     5.8721     414.96
       1.63      5.876       456.
       1.63     5.8782     475.45
       1.63     5.8791     462.51
       1.63     5.8814     397.78
       1.63     5.8842     439.89
       1.63     5.8898     453.97
       1.63     5.8993     408.73
       1.63     5.9092     418.54
       10.6     5.8404     185.72     17.384
       10.6     5.8501     222.95     19.557
       10.6     5.8602     214.53     15.216
       10.6     5.8662     213.61     17.389
       10.6     5.8713     269.19     19.557
       10.6     5.8753     350.81     27.177
       10.6     5.8778     365.01     21.737
       10.6     5.8784     376.98     19.563
       10.6     5.8809     328.15     26.084
       10.6     5.8832     264.09     21.742
       10.6      5.889     239.25     22.829
       10.6     5.8967     232.94     21.731
       10.6     5.8984     209.08     21.729
       10.6     5.9082     251.74     22.824
ENDDATA             43
ENDSUBENT           60
SUBENT        F0970013   20100519   20110216   20110112       F039
BIB                  8         10
REACTION   (9-F-19(P,A)8-O-16,PAR,SIG,G,REL)
COMMENT    Data are given as relative counts
PART-DET   (G)
EN-SEC     (E,G)
DETECTOR   (GELI) A 25 cm3 coaxial Ge(Li) detector for the study
           of low energy gamma rays was used.
SAMPLE     Thin targets of 6LiF deposited on thin carbon foils
           were used.
METHOD     (GSPEC)
STATUS     (CURVE) Fig.7
ENDBIB              10
COMMON               3          3
EN-ERR-DIG ERR-DIG    E
MEV        ARB-UNITS  MEV
  0.0003     76.057     6.13
ENDCOMMON            3
DATA                 2         14
EN         DATA
MEV        ARB-UNITS
     5.8404   1.71E+04
     5.8496   1.72E+04
     5.8602   1.73E+04
     5.8664   1.66E+04
     5.8721    1.7E+04
     5.8762   1.62E+04
     5.8783   1.62E+04
     5.8791   1.68E+04
     5.8821    1.7E+04
     5.8842   1.74E+04
     5.8896    1.7E+04
     5.8985   1.66E+04
     5.9002   1.72E+04
     5.9102   1.71E+04
ENDDATA             16
ENDSUBENT           35
SUBENT        F0970014   20100519   20110216   20110112       F039
BIB                  8          9
REACTION   (9-F-19(P,A)8-O-16,PAR,SIG,G,REL)
COMMENT    Data are given as relative counts
PART-DET   (G)
EN-SEC     (E,G)
DETECTOR   (GELI) A 25 cm3 coaxial Ge(Li) detector was used.
SAMPLE     Thin targets of 6LiF deposited on thin carbon foils
           were used.
METHOD     (GSPEC)
STATUS     (CURVE) Fig.7
ENDBIB               9
COMMON               3          3
EN-ERR-DIG ERR-DIG    E
MEV        ARB-UNITS  MEV
  0.0003     76.057     2.75
ENDCOMMON            3
DATA                 2         14
EN         DATA
MEV        ARB-UNITS
     5.8411   1.32E+04
     5.8505   1.41E+04
     5.8607   1.52E+04
     5.8673   1.49E+04
      5.873   1.45E+04
     5.8769   1.36E+04
     5.8792   1.42E+04
     5.8794   1.25E+04
     5.8826   1.14E+04
     5.8845   1.33E+04
     5.8909    1.5E+04
     5.8998   1.35E+04
     5.9011    1.3E+04
     5.9107   1.45E+04
ENDDATA             16
ENDSUBENT           34
SUBENT        F0970015   20100519   20110216   20110112       F039
BIB                  8          9
REACTION   (9-F-19(P,A)8-O-16,PAR,SIG,G,REL)
COMMENT    Data are given as relative counts
PART-DET   (G)
EN-SEC     (E,G)
DETECTOR   (GELI) A 25 cm3 coaxial Ge(Li) detector was used.
SAMPLE     Thin targets of 6LiF deposited on thin carbon foils
           were used.
METHOD     (GSPEC)
STATUS     (CURVE) Fig.7
ENDBIB               9
COMMON               3          3
EN-ERR-DIG ERR-DIG    E
MEV        ARB-UNITS  MEV
  0.0001     36.109     8.88
ENDCOMMON            3
DATA                 2         14
EN         DATA
MEV        ARB-UNITS
     5.8401   2.33E+03
     5.8502   2.31E+03
     5.8602   2.62E+03
     5.8664   2.16E+03
      5.872   2.47E+03
     5.8756   2.15E+03
     5.8782    2.3E+03
     5.8793    2.1E+03
      5.882   2.69E+03
     5.8844   2.13E+03
     5.8904   2.63E+03
     5.8993   2.68E+03
     5.9004   2.68E+03
     5.9105   2.55E+03
ENDDATA             16
ENDSUBENT           34
SUBENT        F0970016   20100519   20110216   20110112       F039
BIB                  8          9
REACTION   (9-F-19(P,INL)9-F-19,PAR,SIG,G,REL)
COMMENT    Data are given as relative counts
PART-DET   (G)
EN-SEC     (E,G)
DETECTOR   (GELI) A 25 cm3 coaxial Ge(Li) detector was used.
SAMPLE     Thin targets of 6LiF deposited on thin carbon foils
           were used.
METHOD     (GSPEC)
STATUS     (CURVE) Fig.7
ENDBIB               9
COMMON               3          3
EN-ERR-DIG ERR-DIG    E
MEV        ARB-UNITS  MEV
  0.0002     83.701     3.91
ENDCOMMON            3
DATA                 2         13
EN         DATA
MEV        ARB-UNITS
     5.8396   1.45E+04
     5.8504   1.52E+04
       5.86   1.52E+04
     5.8657   1.59E+04
     5.8718   1.61E+04
     5.8764   2.42E+04
     5.8781   2.73E+04
     5.8787   2.63E+04
     5.8816   1.81E+04
     5.8841   1.93E+04
     5.8903   1.57E+04
     5.8994   1.54E+04
     5.9098   1.58E+04
ENDDATA             15
ENDSUBENT           33
SUBENT        F0970017   20100519   20110216   20110112       F039
BIB                  4          6
REACTION   (9-F-19(P,A)8-O-16,PAR,SIG)
DETECTOR   (SOLST) A 60 cm scattering chamber equipped with solid
           state detectors and standard modular electronics.
SAMPLE     Thin targets of 6LiF deposited on thin carbon foils
           were used.
STATUS     (CURVE) Fig.8
ENDBIB               6
COMMON               3          3
E-LVL      EN-ERR-DIG ERR-DIG
MEV        MEV        MB
  0.         0.0002     0.016
ENDCOMMON            3
DATA                 2         20
EN         DATA
MEV        MB
      5.848     13.297
      5.852     12.874
     5.8558     12.566
     5.8602     13.026
     5.8638     13.025
     5.8674     13.523
     5.8701     13.638
     5.8718     14.136
     5.8741     15.364
      5.876     15.517
     5.8779     15.786
     5.8802      14.48
     5.8817     13.674
      5.884     12.522
     5.8861     11.907
     5.8876     11.177
      5.892     10.984
      5.896     10.984
     5.8998     11.098
     5.9093     10.981
ENDDATA             22
ENDSUBENT           37
ENDENTRY            17
