ENTRY            F0982   20090127   20090508   20090508       F035
SUBENT        F0982001   20090127   20090508   20090508       F035
BIB                 12         22
TITLE      T=1 states in 20Ne as compound resonances induced by
           the p+19F reactions.
AUTHOR     (S.Ouichaoui,H.Beaumevieille,N.Bendjaballah)
INSTITUTE  (3ALGALG)
REFERENCE  (J,NC/A,94,133,1986)
REL-REF    (R,D0062001,B.A.Laribi+,J,NP/A,191,368,1972) Details of
           experiments.
FACILITY   (VDG) 3.75 MV Van de Graaff accelerator
DETECTOR   (SIBAR) The outgoing particles were detected by means
           of silicon surface barrier detectors, one detector was
           placed at 158.13 degr. (laboratory) as a monitor.
MONITOR    (18-AR-40(P,EL)18-AR-40,,DA)
SAMPLE     A C2F6 gas target(99% purity) was used.
METHOD     (BCINT)
ERR-ANALYS The experimental errors are due to uncertainties
           involved in the measurements of the gas pressure, the
           beam current and in the normalization of the cross-
           sections to those of the 40Ar(p,p) elastic scattering.
           Finally, the cross-sections were obtained with an
           accuracy better than 10%.
           (ERR-DIG)   Data digitizing error
HISTORY    (20090127C)
ENDBIB              22
COMMON               1          3
EN-RSL-FW
KEV
  20.
ENDCOMMON            3
ENDSUBENT           29
SUBENT        F0982002   20090127   20090508   20090508       F035
BIB                  3          3
REACTION   (9-F-19(P,EL)9-F-19,,DA)
ERR-ANALYS (EN-ERR-DIG) Energy digitizing error
STATUS     (CURVE) Fig.2
ENDBIB               3
COMMON               2          3
EN-ERR-DIG ERR-DIG
KEV        MB/SR
 3.242      0.959
ENDCOMMON            3
DATA                 3       1272
ANG-CM     EN         DATA-CM
ADEG       KEV        MB/SR
      68.17  1.999E+03    354.601
      68.17  2.005E+03    374.973
      68.17  2.010E+03    400.402
      68.17  2.013E+03    400.433
      68.17  2.021E+03    386.281
      68.17  2.025E+03    385.295
      68.17  2.030E+03    393.466
      68.17  2.035E+03    399.603
      68.17  2.041E+03    385.429
      68.17  2.048E+03    380.404
      68.17  2.054E+03    385.533
      68.17  2.059E+03    382.533
      68.17  2.065E+03    379.542
      68.17  2.071E+03    384.672
      68.17  2.076E+03    380.653
      68.17  2.080E+03    375.596
      68.17  2.085E+03    357.363
      68.17  2.091E+03    358.422
      68.17  2.096E+03    356.439
      68.17  2.103E+03    357.509
      68.17  2.110E+03    360.613
      68.17  2.114E+03    354.549
      68.17  2.121E+03    356.647
      68.17  2.124E+03     343.46
      68.17  2.130E+03    335.392
      68.17  2.135E+03    329.339
      68.17  2.140E+03    342.588
      68.17  2.145E+03    338.559
      68.17  2.148E+03    320.305
      68.17  2.157E+03    321.385
      68.17  2.162E+03    315.342
      68.17  2.167E+03    318.426
      68.17  2.171E+03    305.249
      68.17  2.176E+03    299.196
      68.17  2.179E+03     294.15
      68.17  2.187E+03    285.075
      68.17  2.191E+03    279.011
      68.17  2.197E+03     271.95
      68.17  2.206E+03     264.91
      68.17  2.211E+03    258.867
      68.17  2.216E+03    250.778
      68.17  2.221E+03    244.725
      68.17  2.228E+03    228.527
      68.17  2.231E+03    224.488
      68.17  2.236E+03    225.547
      68.17  2.240E+03    217.458
      68.17  2.244E+03    213.419
      68.17  2.250E+03    209.411
      68.17  2.255E+03     206.41
      68.17  2.262E+03    202.402
      68.17  2.265E+03    200.398
      68.17  2.272E+03     196.39
      68.17  2.277E+03    202.527
      68.17  2.280E+03    194.428
      68.17  2.288E+03    205.663
      68.17  2.293E+03    198.602
      68.17  2.295E+03    206.743
      68.17  2.301E+03    205.777
      68.17  2.305E+03    211.903
      68.17  2.311E+03    211.965
      68.17  2.319E+03     206.94
      68.17  2.320E+03    199.848
      68.17  2.326E+03    192.787
      68.17  2.331E+03    204.001
      68.17  2.335E+03    199.973
      68.17  2.338E+03    206.088
      68.17  2.341E+03    197.989
      68.17  2.345E+03    226.471
      68.17  2.352E+03    238.723
      68.17  2.357E+03    238.765
      68.17  2.363E+03    255.067
      68.17  2.367E+03    258.151
      68.17  2.372E+03    257.175
      68.17  2.379E+03    267.392
      68.17  2.382E+03    266.395
      68.17  2.384E+03    277.599
      68.17  2.389E+03    272.552
      68.17  2.399E+03    265.533
      68.17  2.411E+03    286.964
      68.17  2.419E+03    296.174
      68.17  2.421E+03     286.04
      68.17  2.427E+03    283.039
      68.17  2.433E+03    270.891
      68.17  2.439E+03    278.055
      68.17  2.445E+03    267.952
      68.17  2.445E+03     256.78
      68.17  2.454E+03    260.913
      68.17  2.458E+03    254.849
      68.17  2.465E+03    244.756
      68.17  2.468E+03    242.742
      68.17  2.473E+03    238.723
      68.17  2.478E+03     236.73
      68.17  2.487E+03    230.718
      68.17  2.493E+03    219.597
      68.17  2.501E+03    216.607
      68.17  2.504E+03    209.525
      68.17  2.508E+03    206.514
      68.17  2.514E+03    195.394
      68.17  2.519E+03    192.382
      68.17  2.526E+03    189.392
      68.17  2.528E+03    180.276
      68.17  2.533E+03    180.317
      68.17  2.536E+03    165.095
      68.17  2.543E+03    169.228
      68.17  2.548E+03    164.181
      68.17  2.551E+03     161.16
      68.17  2.556E+03    144.951
      68.17  2.562E+03    141.951
      68.17  2.569E+03    139.978
      68.17  2.575E+03    143.072
      68.17  2.580E+03    145.149
      68.17  2.581E+03    144.141
      68.17  2.588E+03    152.334
      68.17  2.593E+03    153.393
      68.17  2.597E+03    153.424
      68.17  2.602E+03    161.596
      68.17  2.605E+03    157.546
      68.17  2.606E+03    155.532
      68.17  2.612E+03    158.626
      68.17  2.620E+03    157.671
      68.17  2.625E+03    159.748
      68.17  2.630E+03    152.677
      68.17  2.632E+03    156.768
      68.17  2.642E+03    145.678
      68.17  2.648E+03     141.66
      68.17  2.654E+03    128.504
      68.17  2.660E+03    127.539
      68.17  2.665E+03     127.58
      68.17  2.675E+03    134.776
      68.17  2.681E+03    135.845
      68.17  2.686E+03    135.887
      68.17  2.692E+03    138.981
      68.17  2.696E+03    141.047
      68.17  2.702E+03    146.177
      68.17  2.707E+03    148.253
      68.17  2.713E+03    148.305
      68.17  2.720E+03    162.593
      68.17  2.725E+03    167.712
      68.17  2.734E+03    171.844
      68.17  2.744E+03    175.998
      68.17  2.746E+03    178.053
      68.17  2.754E+03    180.141
      68.17  2.759E+03     169.01
      68.17  2.761E+03    174.108
      68.17  2.766E+03    177.202
      68.17  2.774E+03    183.359
      68.17  2.778E+03    196.609
      68.17  2.785E+03    199.703
      68.17  2.791E+03    194.677
      68.17  2.797E+03    194.729
      68.17  2.798E+03    188.644
      68.17  2.805E+03    191.749
      68.17  2.808E+03    188.738
      68.17  2.812E+03    192.829
      68.17  2.817E+03    191.853
      68.17  2.822E+03    188.852
      68.17  2.831E+03    192.985
      68.17  2.833E+03    201.136
      68.17  2.838E+03      196.1
      68.17  2.843E+03    200.201
      68.17  2.846E+03    198.187
      68.17  2.854E+03      194.2
      68.17  2.856E+03    200.305
      68.17  2.864E+03     203.43
      68.17  2.869E+03    197.377
      68.17  2.874E+03    200.461
      68.17  2.878E+03    196.432
      68.17  2.882E+03    191.386
      68.17  2.889E+03    194.501
      68.17  2.898E+03    195.591
      68.17  2.907E+03    205.819
      68.17  2.910E+03     201.79
      68.17  2.915E+03    193.701
      68.17  2.919E+03    197.792
      68.17  2.923E+03    194.781
      68.17  2.929E+03    198.893
      68.17  2.934E+03    191.832
      68.17  2.938E+03    185.768
      68.17  2.944E+03     189.88
      68.17  2.949E+03    192.974
      68.17  2.955E+03    194.033
      68.17  2.959E+03    177.815
      68.17  2.965E+03    194.127
      68.17  2.969E+03      197.2
      68.17  2.975E+03    199.287
      68.17  2.979E+03    192.206
      68.17  2.986E+03    192.268
      68.17  2.993E+03    190.295
      68.17  2.999E+03    188.312
      68.17  3.005E+03    190.399
      68.17  3.010E+03    186.371
      68.17  3.015E+03    185.405
      68.17  3.020E+03    179.351
      68.17  3.023E+03    175.302
      68.17  3.033E+03    186.568
      68.17  3.035E+03    182.518
      68.17  3.041E+03    184.605
      68.17  3.044E+03    180.566
      68.17  3.051E+03    184.688
      68.17  3.056E+03     176.61
      68.17  3.060E+03    180.701
      68.17  3.066E+03    173.641
      68.17  3.070E+03    172.654
      68.17  3.079E+03    164.607
      68.17  3.085E+03    175.831
      68.17  3.089E+03    162.655
      68.17  3.093E+03    157.609
      68.17  3.095E+03    151.534
      68.17  3.100E+03    149.551
      68.17  3.103E+03    141.442
      68.17  3.105E+03    143.498
      68.17  3.108E+03    132.346
      68.17  3.110E+03    137.444
      68.17  3.114E+03    149.665
      68.17  3.119E+03    153.767
      68.17  3.125E+03    175.157
      68.17  3.136E+03    185.405
      68.17  3.142E+03    192.569
      68.17  3.145E+03    181.418
      68.17  3.150E+03    188.572
      68.17  3.153E+03    194.698
      68.17  3.162E+03    196.806
      68.17  3.166E+03    200.897
      68.17  3.169E+03    204.988
      68.17  3.173E+03    200.959
      68.17  3.179E+03    206.088
      68.17  3.183E+03    204.095
      68.17  3.211E+03    193.151
      68.17  3.216E+03    199.287
      68.17  3.222E+03    197.304
      68.17  3.227E+03    196.328
      68.17  3.230E+03    202.454
      68.17  3.237E+03    198.446
      68.17  3.240E+03    202.548
      68.17  3.249E+03    195.508
      68.17  3.252E+03    207.719
      68.17  3.255E+03    206.732
      68.17  3.260E+03    209.826
      68.17  3.265E+03    207.833
      68.17  3.273E+03    215.008
      68.17  3.278E+03    206.919
      68.17  3.283E+03    207.978
      68.17  3.285E+03    207.999
      68.17  3.291E+03    203.991
      68.17  3.296E+03    204.033
      68.17  3.303E+03    202.049
      68.17  3.310E+03    206.182
      68.17  3.315E+03    208.259
      68.17  3.324E+03    204.261
      68.17  3.328E+03    200.232
      68.17  3.334E+03    203.337
      68.17  3.344E+03    204.438
      68.17  3.349E+03    200.409
      68.17  3.354E+03    206.545
      68.17  3.364E+03    196.474
      68.17  3.370E+03    192.466
      68.17  3.374E+03    211.799
      68.17  3.382E+03    204.759
      68.17  3.387E+03    209.878
      68.17  3.396E+03    209.951
      68.17  3.399E+03    203.877
      68.17  3.405E+03    203.929
      68.17  3.407E+03    197.855
      68.17  3.412E+03    203.991
      68.17  3.420E+03    203.046
      97.97  2.003E+03    116.016
      97.97  2.004E+03    111.017
      97.97  2.010E+03    111.499
      97.97  2.014E+03    108.783
      97.97  2.025E+03    109.747
      97.97  2.030E+03    110.229
      97.97  2.034E+03    107.966
      97.97  2.040E+03    105.722
      97.97  2.045E+03    107.562
      97.97  2.052E+03     99.394
      97.97  2.062E+03    104.453
      97.97  2.075E+03    108.615
      97.97  2.078E+03    103.163
      97.97  2.085E+03    105.013
      97.97  2.095E+03    103.695
      97.97  2.113E+03    103.774
      97.97  2.120E+03    106.549
      97.97  2.130E+03    104.315
      97.97  2.136E+03    102.524
      97.97  2.145E+03     100.29
      97.97  2.150E+03    100.309
      97.97  2.156E+03     85.762
      97.97  2.161E+03     84.876
      97.97  2.166E+03     80.801
      97.97  2.171E+03     83.101
      97.97  2.177E+03     79.487
      97.97  2.181E+03     74.951
      97.97  2.186E+03     72.243
      97.97  2.191E+03     76.819
      97.97  2.195E+03     71.373
      97.97  2.200E+03     71.396
      97.97  2.206E+03     69.148
      97.97  2.211E+03     68.716
      97.97  2.216E+03      63.73
      97.97  2.221E+03     62.388
      97.97  2.227E+03     62.417
      97.97  2.233E+03     57.887
      97.97  2.235E+03     57.443
      97.97  2.241E+03     54.741
      97.97  2.246E+03     52.942
      97.97  2.251E+03     54.331
      97.97  2.260E+03     55.282
      97.97  2.265E+03     54.394
      97.97  2.274E+03     53.524
      97.97  2.285E+03       51.3
      97.97  2.290E+03     53.144
      97.97  2.298E+03     49.537
      97.97  2.302E+03     53.202
      97.97  2.309E+03      53.23
      97.97  2.317E+03     53.271
      97.97  2.321E+03     46.914
      97.97  2.325E+03     57.858
      97.97  2.331E+03     59.253
      97.97  2.336E+03     60.642
      97.97  2.342E+03     60.671
      97.97  2.348E+03     67.073
      97.97  2.352E+03     68.912
      97.97  2.359E+03     74.866
      97.97  2.370E+03     79.926
      97.97  2.376E+03     82.686
      97.97  2.380E+03     83.159
      97.97  2.385E+03     82.271
      97.97  2.393E+03     85.499
      97.97  2.397E+03     85.515
      97.97  2.405E+03     80.542
      97.97  2.407E+03     76.001
      97.97  2.413E+03      85.59
      97.97  2.417E+03     83.332
      97.97  2.423E+03     85.637
      97.97  2.430E+03     82.934
      97.97  2.435E+03     82.957
      97.97  2.439E+03     79.332
      97.97  2.443E+03     80.721
      97.97  2.448E+03     78.923
      97.97  2.453E+03     78.035
      97.97  2.460E+03     75.333
      97.97  2.462E+03     76.255
      97.97  2.469E+03     73.096
      97.97  2.472E+03     71.292
      97.97  2.485E+03     67.708
      97.97  2.490E+03     69.097
      97.97  2.496E+03     62.751
      97.97  2.498E+03     60.481
      97.97  2.504E+03     55.957
      97.97  2.509E+03     55.069
      97.97  2.514E+03     53.727
      97.97  2.519E+03     48.286
      97.97  2.524E+03     46.944
      97.97  2.529E+03      43.78
      97.97  2.537E+03     41.538
      97.97  2.542E+03     42.472
      97.97  2.544E+03     39.751
      97.97  2.551E+03     38.414
      97.97  2.556E+03     38.437
      97.97  2.558E+03     35.261
      97.97  2.561E+03     35.729
      97.97  2.567E+03     35.303
      97.97  2.570E+03     35.769
      97.97  2.577E+03     35.804
      97.97  2.582E+03     39.469
      97.97  2.586E+03     40.396
      97.97  2.591E+03      40.42
      97.97  2.595E+03     43.175
      97.97  2.600E+03     44.108
      97.97  2.603E+03     45.941
      97.97  2.610E+03     47.797
      97.97  2.615E+03     45.999
      97.97  2.618E+03     44.645
      97.97  2.625E+03     46.955
      97.97  2.629E+03     47.428
      97.97  2.634E+03     45.174
      97.97  2.640E+03      46.57
      97.97  2.644E+03     47.952
      97.97  2.650E+03     47.071
      97.97  2.654E+03     49.365
      97.97  2.661E+03     52.131
      97.97  2.663E+03     56.239
      97.97  2.668E+03      59.45
      97.97  2.672E+03     60.833
      97.97  2.678E+03      65.87
      97.97  2.683E+03     71.356
      97.97  2.694E+03     70.042
      97.97  2.700E+03     70.982
      97.97  2.705E+03     69.184
      97.97  2.713E+03     67.397
      97.97  2.723E+03     71.541
      97.97  2.732E+03     68.394
      97.97  2.740E+03     67.524
      97.97  2.743E+03     63.894
      97.97  2.752E+03     62.113
      97.97  2.757E+03     57.583
      97.97  2.762E+03      56.24
      97.97  2.765E+03     61.265
      97.97  2.773E+03     64.943
      97.97  2.781E+03     64.983
      97.97  2.790E+03     64.568
      97.97  2.798E+03     65.968
      97.97  2.800E+03     57.784
      97.97  2.807E+03     58.269
      97.97  2.813E+03     60.119
      97.97  2.828E+03     62.465
      97.97  2.835E+03     62.954
      97.97  2.841E+03     64.349
      97.97  2.846E+03     63.462
      97.97  2.855E+03     62.592
      97.97  2.859E+03     63.519
      97.97  2.865E+03     64.914
      97.97  2.874E+03     63.589
      97.97  2.882E+03     65.905
      97.97  2.887E+03     63.197
      97.97  2.906E+03     63.738
      97.97  2.916E+03     64.695
      97.97  2.919E+03     62.885
      97.97  2.927E+03     62.471
      97.97  2.933E+03     62.499
      97.97  2.942E+03      62.54
      97.97  2.950E+03     60.754
      97.97  2.955E+03     59.866
      97.97  2.962E+03     58.534
      97.97  2.972E+03     56.759
      97.97  2.976E+03     54.955
      97.97  2.978E+03     59.065
      97.97  2.983E+03     62.275
      97.97  2.990E+03     59.572
      97.97  3.001E+03     60.079
      97.97  3.009E+03      61.03
      97.97  3.013E+03     60.592
      97.97  3.020E+03     57.889
      97.97  3.026E+03     60.649
      97.97  3.032E+03     61.133
      97.97  3.037E+03     61.157
      97.97  3.044E+03     59.826
      97.97  3.052E+03     60.771
      97.97  3.059E+03     59.894
      97.97  3.063E+03     59.002
      97.97  3.069E+03     56.754
      97.97  3.077E+03     54.967
      97.97  3.082E+03     53.169
      97.97  3.092E+03     50.483
      97.97  3.095E+03     48.219
      97.97  3.100E+03     44.144
      97.97  3.105E+03     38.704
      97.97  3.111E+03     34.635
      97.97  3.113E+03     31.454
      97.97  3.119E+03     29.206
      97.97  3.124E+03      29.23
      97.97  3.129E+03     32.895
      97.97  3.134E+03     35.194
      97.97  3.144E+03     36.151
      97.97  3.150E+03     35.725
      97.97  3.155E+03     38.935
      97.97  3.161E+03     37.598
      97.97  3.167E+03     34.894
      97.97  3.169E+03     36.266
      97.97  3.175E+03     36.295
      97.97  3.180E+03     37.229
      97.97  3.185E+03     35.886
      97.97  3.191E+03     36.825
      97.97  3.197E+03     37.765
      97.97  3.215E+03     36.935
      97.97  3.218E+03     37.863
      97.97  3.226E+03     38.808
      97.97  3.229E+03      37.46
      97.97  3.238E+03     39.776
      97.97  3.248E+03     38.911
      97.97  3.256E+03     38.491
      97.97  3.263E+03     40.347
      97.97  3.267E+03     37.632
      97.97  3.272E+03     39.476
      97.97  3.277E+03     37.678
      97.97  3.280E+03     40.883
      97.97  3.288E+03     40.917
      97.97  3.291E+03     37.287
      97.97  3.298E+03     37.777
      97.97  3.302E+03     40.071
      97.97  3.308E+03     40.099
      97.97  3.312E+03     41.027
      97.97  3.317E+03     40.595
      97.97  3.320E+03      45.62
      97.97  3.326E+03     42.918
      97.97  3.333E+03     41.125
      97.97  3.338E+03     45.246
      97.97  3.345E+03      44.37
      97.97  3.349E+03     45.753
      97.97  3.354E+03     45.775
      97.97  3.358E+03     47.632
      97.97  3.360E+03     43.529
      97.97  3.364E+03     45.822
      97.97  3.374E+03     46.324
      97.97  3.376E+03     47.701
      97.97  3.382E+03      48.64
      97.97  3.389E+03     48.669
      97.97  3.397E+03     46.433
      97.97  3.401E+03     49.182
      97.97  3.410E+03     48.767
      97.97  3.413E+03     47.419
      97.97  3.415E+03      47.88
      97.97  3.425E+03     47.926
      97.97  3.428E+03     48.854
      125.2  2.001E+03     66.128
      125.2  2.008E+03     64.331
      125.2  2.014E+03      60.71
      125.2  2.018E+03     62.094
      125.2  2.023E+03     62.572
      125.2  2.029E+03     60.775
      125.2  2.035E+03     65.362
      125.2  2.040E+03     65.839
      125.2  2.042E+03     64.938
      125.2  2.050E+03      67.25
      125.2  2.054E+03      66.81
      125.2  2.058E+03     69.112
      125.2  2.065E+03     68.682
      125.2  2.070E+03     69.616
      125.2  2.074E+03     71.917
      125.2  2.079E+03     71.939
      125.2  2.083E+03     69.675
      125.2  2.091E+03     68.339
      125.2  2.097E+03     66.543
      125.2  2.098E+03     68.372
      125.2  2.104E+03     67.031
      125.2  2.109E+03     67.965
      125.2  2.114E+03     67.074
      125.2  2.120E+03     69.381
      125.2  2.124E+03     68.029
      125.2  2.129E+03     67.595
      125.2  2.139E+03     63.077
      125.2  2.143E+03     62.638
      125.2  2.150E+03     62.671
      125.2  2.154E+03     57.214
      125.2  2.161E+03     57.698
      125.2  2.166E+03     52.703
      125.2  2.170E+03     56.829
      125.2  2.176E+03     53.658
      125.2  2.181E+03     50.488
      125.2  2.186E+03     48.229
      125.2  2.190E+03     52.355
      125.2  2.193E+03     48.718
      125.2  2.201E+03      48.75
      125.2  2.207E+03     46.041
      125.2  2.213E+03     45.612
      125.2  2.218E+03      46.09
      125.2  2.222E+03     42.914
      125.2  2.228E+03     43.852
      125.2  2.232E+03     37.486
      125.2  2.236E+03     40.237
      125.2  2.241E+03     39.346
      125.2  2.248E+03     36.187
      125.2  2.252E+03     37.571
      125.2  2.256E+03     35.764
      125.2  2.264E+03     36.257
      125.2  2.267E+03      37.18
      125.2  2.270E+03     35.372
      125.2  2.279E+03     33.585
      125.2  2.289E+03     34.541
      125.2  2.297E+03     34.573
      125.2  2.301E+03     36.418
      125.2  2.306E+03     41.912
      125.2  2.312E+03     45.586
      125.2  2.318E+03      46.07
      125.2  2.321E+03      48.36
      125.2  2.326E+03     50.661
      125.2  2.331E+03     50.683
      125.2  2.334E+03     53.891
      125.2  2.342E+03     50.732
      125.2  2.343E+03     57.577
      125.2  2.347E+03     56.225
      125.2  2.352E+03     57.614
      125.2  2.358E+03     59.466
      125.2  2.362E+03     57.657
      125.2  2.370E+03     58.152
      125.2  2.375E+03     62.733
      125.2  2.382E+03     63.221
      125.2  2.387E+03     60.962
      125.2  2.394E+03     63.269
      125.2  2.400E+03      65.12
      125.2  2.404E+03     63.769
      125.2  2.411E+03     67.448
      125.2  2.416E+03     67.926
      125.2  2.421E+03     67.491
      125.2  2.427E+03     70.255
      125.2  2.431E+03     69.359
      125.2  2.436E+03     66.188
      125.2  2.441E+03      68.49
      125.2  2.446E+03     67.599
      125.2  2.451E+03     65.797
      125.2  2.454E+03     62.621
      125.2  2.459E+03     61.275
      125.2  2.464E+03      58.56
      125.2  2.468E+03     59.033
      125.2  2.475E+03     53.587
      125.2  2.482E+03     53.164
      125.2  2.487E+03     50.449
      125.2  2.491E+03      45.45
      125.2  2.495E+03      45.01
      125.2  2.500E+03      44.12
      125.2  2.506E+03     40.042
      125.2  2.509E+03     38.685
      125.2  2.513E+03     38.707
      125.2  2.521E+03     34.179
      125.2  2.526E+03     33.745
      125.2  2.529E+03       33.3
      125.2  2.532E+03     31.492
      125.2  2.540E+03     29.245
      125.2  2.547E+03     28.821
      125.2  2.551E+03     29.749
      125.2  2.557E+03     30.232
      125.2  2.562E+03     30.254
      125.2  2.572E+03     32.577
      125.2  2.577E+03     33.054
      125.2  2.581E+03     35.806
      125.2  2.585E+03     37.195
      125.2  2.590E+03     39.953
      125.2  2.594E+03     42.249
      125.2  2.600E+03     44.099
      125.2  2.605E+03     44.577
      125.2  2.611E+03     46.428
      125.2  2.615E+03     43.709
      125.2  2.620E+03     46.922
      125.2  2.624E+03     48.762
      125.2  2.630E+03     48.788
      125.2  2.632E+03     53.815
      125.2  2.638E+03     57.034
      125.2  2.642E+03     58.874
      125.2  2.647E+03      60.72
      125.2  2.650E+03      64.84
      125.2  2.658E+03       70.8
      125.2  2.661E+03     73.552
      125.2  2.667E+03     73.578
      125.2  2.670E+03     72.222
      125.2  2.679E+03     76.363
      125.2  2.686E+03     73.203
      125.2  2.689E+03     71.846
      125.2  2.695E+03     71.873
      125.2  2.699E+03     66.873
      125.2  2.704E+03     64.615
      125.2  2.710E+03     64.186
      125.2  2.713E+03     61.461
      125.2  2.717E+03     63.307
      125.2  2.724E+03     59.685
      125.2  2.730E+03     62.448
      125.2  2.734E+03     57.448
      125.2  2.740E+03     57.475
      125.2  2.745E+03     53.849
      125.2  2.749E+03     54.777
      125.2  2.755E+03     52.981
      125.2  2.759E+03     55.276
      125.2  2.761E+03     51.183
      125.2  2.765E+03     52.567
      125.2  2.767E+03     49.842
      125.2  2.774E+03     51.693
      125.2  2.778E+03     57.642
      125.2  2.786E+03     61.323
      125.2  2.788E+03     62.701
      125.2  2.792E+03     64.541
      125.2  2.795E+03     69.117
      125.2  2.802E+03     69.144
      125.2  2.807E+03     68.254
      125.2  2.814E+03     68.741
      125.2  2.820E+03     70.593
      125.2  2.823E+03     69.691
      125.2  2.831E+03     66.993
      125.2  2.840E+03     67.487
      125.2  2.844E+03     65.679
      125.2  2.849E+03     66.156
      125.2  2.854E+03     64.354
      125.2  2.857E+03     67.106
      125.2  2.861E+03     71.682
      125.2  2.867E+03     69.429
      125.2  2.871E+03      66.71
      125.2  2.879E+03     67.198
      125.2  2.883E+03     68.131
      125.2  2.889E+03     66.785
      125.2  2.898E+03     70.932
      125.2  2.902E+03     66.388
      125.2  2.912E+03     68.255
      125.2  2.916E+03     65.991
      125.2  2.922E+03     68.298
      125.2  2.928E+03     67.869
      125.2  2.932E+03     65.149
      125.2  2.938E+03     62.896
      125.2  2.946E+03     60.649
      125.2  2.948E+03     61.115
      125.2  2.951E+03     57.935
      125.2  2.957E+03     56.138
      125.2  2.962E+03     52.511
      125.2  2.967E+03     56.636
      125.2  2.973E+03     56.207
      125.2  2.981E+03     55.784
      125.2  2.989E+03     58.101
      125.2  2.992E+03     60.392
      125.2  2.999E+03     60.425
      125.2  3.005E+03     59.083
      125.2  3.009E+03     61.379
      125.2  3.013E+03     65.955
      125.2  3.018E+03     64.153
      125.2  3.021E+03     61.434
      125.2  3.026E+03     63.735
      125.2  3.033E+03     60.569
      125.2  3.038E+03     57.399
      125.2  3.044E+03     52.866
      125.2  3.048E+03      56.53
      125.2  3.051E+03     55.634
      125.2  3.059E+03     55.667
      125.2  3.065E+03     55.238
      125.2  3.069E+03     53.886
      125.2  3.074E+03     53.451
      125.2  3.079E+03     50.737
      125.2  3.086E+03     48.945
      125.2  3.086E+03     47.122
      125.2  3.091E+03     45.775
      125.2  3.099E+03     41.704
      125.2  3.103E+03     40.352
      125.2  3.107E+03     38.544
      125.2  3.114E+03     32.649
      125.2  3.117E+03     34.027
      125.2  3.122E+03     33.136
      125.2  3.126E+03     37.262
      125.2  3.128E+03     38.635
      125.2  3.133E+03     36.834
      125.2  3.139E+03      36.86
      125.2  3.141E+03     34.591
      125.2  3.148E+03      33.25
      125.2  3.153E+03     30.992
      125.2  3.158E+03     31.013
      125.2  3.160E+03     34.671
      125.2  3.163E+03     32.858
      125.2  3.169E+03     31.061
      125.2  3.178E+03     29.275
      125.2  3.185E+03     28.396
      125.2  3.206E+03     29.855
      125.2  3.212E+03      33.53
      125.2  3.218E+03     29.453
      125.2  3.222E+03     32.661
      125.2  3.228E+03     35.879
      125.2  3.234E+03     34.082
      125.2  3.237E+03     35.918
      125.2  3.242E+03     35.027
      125.2  3.248E+03      35.51
      125.2  3.253E+03     35.532
      125.2  3.258E+03     34.641
      125.2  3.260E+03       38.3
      125.2  3.265E+03     36.953
      125.2  3.271E+03      39.26
      125.2  3.279E+03     38.836
      125.2  3.288E+03     38.874
      125.2  3.289E+03       36.6
      125.2  3.294E+03     39.357
      125.2  3.296E+03     38.911
      125.2  3.304E+03     42.136
      125.2  3.310E+03     42.162
      125.2  3.315E+03     43.553
      125.2  3.320E+03     46.766
      125.2  3.323E+03     43.134
      125.2  3.330E+03     42.705
      125.2  3.335E+03     44.095
      125.2  3.340E+03     44.572
      125.2  3.346E+03     42.319
      125.2  3.350E+03     42.791
      125.2  3.353E+03     40.527
      125.2  3.358E+03     43.285
      125.2  3.362E+03     39.653
      125.2  3.367E+03     41.498
      125.2  3.372E+03     42.432
      125.2  3.378E+03     41.547
      125.2  3.382E+03     39.283
      125.2  3.389E+03     40.683
      125.2  3.394E+03     41.617
      125.2  3.398E+03     38.897
      125.2  3.404E+03     40.292
      125.2  3.411E+03     37.127
      125.2  3.415E+03     38.517
      125.2  3.419E+03     33.972
      150.1  2.007E+03     27.298
      150.1  2.012E+03     26.422
      150.1  2.019E+03     27.108
      150.1  2.023E+03     27.783
      150.1  2.025E+03     28.011
      150.1  2.031E+03     28.915
      150.1  2.037E+03     30.041
      150.1  2.042E+03     30.497
      150.1  2.046E+03     32.061
      150.1  2.050E+03     37.845
      150.1  2.057E+03     36.751
      150.1  2.062E+03     38.096
      150.1  2.065E+03     39.881
      150.1  2.073E+03     40.344
      150.1  2.076E+03     38.133
      150.1  2.082E+03     41.479
      150.1  2.091E+03     41.279
      150.1  2.102E+03     40.863
      150.1  2.110E+03     39.994
      150.1  2.113E+03     40.448
      150.1  2.120E+03     41.795
      150.1  2.126E+03     40.035
      150.1  2.132E+03     38.053
      150.1  2.136E+03     35.176
      150.1  2.142E+03      36.08
      150.1  2.155E+03     35.223
      150.1  2.156E+03     33.895
      150.1  2.162E+03     33.466
      150.1  2.167E+03     31.924
      150.1  2.171E+03     30.825
      150.1  2.176E+03     31.947
      150.1  2.183E+03     29.964
      150.1  2.188E+03     28.645
      150.1  2.194E+03      27.55
      150.1  2.198E+03     28.226
      150.1  2.208E+03     27.585
      150.1  2.213E+03     26.045
      150.1  2.219E+03     25.172
      150.1  2.224E+03     25.184
      150.1  2.228E+03      23.64
      150.1  2.238E+03     22.333
      150.1  2.243E+03      20.57
      150.1  2.250E+03     21.032
      150.1  2.260E+03     20.613
      150.1  2.266E+03      20.63
      150.1  2.275E+03     19.097
      150.1  2.279E+03     20.661
      150.1  2.289E+03     18.466
      150.1  2.299E+03       21.6
      150.1  2.304E+03     31.161
      150.1  2.308E+03     33.612
      150.1  2.316E+03     37.408
      150.1  2.318E+03     39.412
      150.1  2.324E+03     39.872
      150.1  2.332E+03     40.112
      150.1  2.337E+03     37.683
      150.1  2.343E+03     37.921
      150.1  2.351E+03     35.054
      150.1  2.357E+03     36.846
      150.1  2.361E+03     37.966
      150.1  2.369E+03     38.653
      150.1  2.375E+03     40.223
      150.1  2.380E+03     40.235
      150.1  2.388E+03     39.367
      150.1  2.391E+03     40.264
      150.1  2.394E+03     42.268
      150.1  2.400E+03     41.174
      150.1  2.405E+03     40.743
      150.1  2.405E+03      42.74
      150.1  2.408E+03     44.081
      150.1  2.416E+03     45.432
      150.1  2.422E+03     45.227
      150.1  2.426E+03      45.68
      150.1  2.429E+03     47.465
      150.1  2.438E+03     46.155
      150.1  2.446E+03     43.732
      150.1  2.446E+03      44.62
      150.1  2.449E+03     43.075
      150.1  2.455E+03     41.312
      150.1  2.460E+03     39.992
      150.1  2.465E+03     38.007
      150.1  2.470E+03     36.688
      150.1  2.474E+03     36.253
      150.1  2.482E+03     33.612
      150.1  2.486E+03     30.291
      150.1  2.492E+03     28.527
      150.1  2.497E+03     26.543
      150.1  2.499E+03      24.55
      150.1  2.506E+03      22.79
      150.1  2.511E+03     21.692
      150.1  2.518E+03      19.27
      150.1  2.522E+03     18.391
      150.1  2.523E+03     17.728
      150.1  2.532E+03      17.75
      150.1  2.536E+03     17.538
      150.1  2.539E+03      14.88
      150.1  2.546E+03     15.565
      150.1  2.551E+03      14.69
      150.1  2.557E+03      14.04
      150.1  2.560E+03     15.377
      150.1  2.566E+03     15.837
      150.1  2.566E+03     17.391
      150.1  2.571E+03      18.07
      150.1  2.576E+03     18.082
      150.1  2.580E+03     20.315
      150.1  2.586E+03     22.329
      150.1  2.590E+03     23.004
      150.1  2.594E+03     24.123
      150.1  2.597E+03     25.687
      150.1  2.602E+03     28.141
      150.1  2.611E+03     29.051
      150.1  2.616E+03     29.286
      150.1  2.619E+03     31.737
      150.1  2.624E+03     33.304
      150.1  2.630E+03     35.761
      150.1  2.636E+03     38.441
      150.1  2.641E+03     40.452
      150.1  2.645E+03     43.128
      150.1  2.654E+03     44.261
      150.1  2.659E+03     46.714
      150.1  2.664E+03     46.505
      150.1  2.674E+03     46.753
      150.1  2.679E+03     44.989
      150.1  2.680E+03     44.771
      150.1  2.685E+03     43.895
      150.1  2.694E+03     43.029
      150.1  2.699E+03     42.819
      150.1  2.705E+03     39.727
      150.1  2.709E+03     38.627
      150.1  2.712E+03     37.967
      150.1  2.719E+03      37.32
      150.1  2.723E+03     35.776
      150.1  2.728E+03       34.9
      150.1  2.734E+03     33.583
      150.1  2.743E+03     33.827
      150.1  2.747E+03     35.391
      150.1  2.750E+03     37.843
      150.1  2.757E+03     42.079
      150.1  2.764E+03     32.549
      150.1  2.768E+03     27.896
      150.1  2.775E+03     31.024
      150.1  2.779E+03     33.919
      150.1  2.785E+03     36.599
      150.1  2.786E+03     37.934
      150.1  2.792E+03     38.393
      150.1  2.800E+03     38.634
      150.1  2.803E+03     39.087
      150.1  2.808E+03      37.99
      150.1  2.813E+03     38.891
      150.1  2.818E+03     38.238
      150.1  2.823E+03     36.696
      150.1  2.828E+03      35.82
      150.1  2.831E+03     34.051
      150.1  2.834E+03     33.836
      150.1  2.842E+03      34.08
      150.1  2.844E+03     32.972
      150.1  2.849E+03     32.319
      150.1  2.857E+03     32.341
      150.1  2.865E+03     34.579
      150.1  2.867E+03     33.698
      150.1  2.870E+03      33.26
      150.1  2.875E+03     33.051
      150.1  2.879E+03     34.396
      150.1  2.886E+03     33.745
      150.1  2.888E+03     35.306
      150.1  2.893E+03     35.318
      150.1  2.912E+03     36.475
      150.1  2.915E+03     35.596
      150.1  2.923E+03      36.06
      150.1  2.929E+03     35.853
      150.1  2.938E+03     35.432
      150.1  2.945E+03      35.45
      150.1  2.950E+03      35.24
      150.1  2.966E+03     39.278
      150.1  2.970E+03     37.067
      150.1  2.971E+03     32.408
      150.1  2.975E+03     29.976
      150.1  2.979E+03     29.097
      150.1  2.986E+03     29.782
      150.1  2.991E+03     32.902
      150.1  2.995E+03     34.244
      150.1  3.000E+03     33.813
      150.1  3.007E+03     34.497
      150.1  3.015E+03     35.182
      150.1  3.022E+03     35.201
      150.1  3.033E+03     35.674
      150.1  3.044E+03     34.148
      150.1  3.049E+03     34.826
      150.1  3.058E+03     35.737
      150.1  3.063E+03     34.861
      150.1  3.066E+03     32.425
      150.1  3.072E+03     33.773
      150.1  3.078E+03     35.342
      150.1  3.083E+03     32.913
      150.1  3.087E+03     30.703
      150.1  3.096E+03     30.281
      150.1  3.102E+03      28.52
      150.1  3.106E+03     26.976
      150.1  3.115E+03     26.776
      150.1  3.118E+03     25.009
      150.1  3.124E+03     26.136
      150.1  3.128E+03     26.145
      150.1  3.138E+03     27.946
      150.1  3.146E+03     26.411
      150.1  3.153E+03     25.542
      150.1  3.173E+03      22.04
      150.1  3.178E+03     20.277
      150.1  3.192E+03     19.423
      150.1  3.214E+03     20.145
      150.1  3.218E+03     20.821
      150.1  3.227E+03     21.732
      150.1  3.230E+03     21.296
      150.1  3.239E+03      21.54
      150.1  3.242E+03      24.88
      150.1  3.249E+03     23.563
      150.1  3.251E+03     22.238
      150.1  3.256E+03     23.805
      150.1  3.264E+03     22.935
      150.1  3.268E+03     25.612
      150.1  3.272E+03     24.956
      150.1  3.278E+03     26.969
      150.1  3.282E+03     26.091
      150.1  3.289E+03     27.441
      150.1  3.293E+03     25.675
      150.1  3.298E+03     24.799
      150.1  3.304E+03     25.925
      150.1  3.309E+03     26.381
      150.1  3.318E+03     27.957
      150.1  3.322E+03     27.523
      150.1  3.328E+03     27.316
      150.1  3.334E+03     27.998
      150.1  3.339E+03     24.682
      150.1  3.343E+03     23.359
      150.1  3.349E+03     24.263
      150.1  3.355E+03      23.39
      150.1  3.359E+03     20.735
      150.1  3.366E+03     18.975
      150.1  3.371E+03     18.544
      150.1  3.376E+03     18.557
      150.1  3.383E+03     17.687
      150.1  3.386E+03     16.139
      150.1  3.391E+03     15.042
      150.1  3.395E+03     15.496
      150.1  3.399E+03     15.953
      150.1  3.401E+03     14.401
      150.1  3.409E+03     14.867
      150.1  3.415E+03     13.548
      150.1  3.418E+03     14.001
      150.1  3.423E+03      13.57
      162.1  2.005E+03     34.367
      162.1  2.011E+03     35.511
      162.1  2.014E+03     35.066
      162.1  2.019E+03     34.402
      162.1  2.025E+03      32.84
      162.1  2.028E+03      32.62
      162.1  2.034E+03      32.41
      162.1  2.039E+03     31.069
      162.1  2.044E+03     31.533
      162.1  2.048E+03     32.445
      162.1  2.054E+03     33.363
      162.1  2.059E+03     34.729
      162.1  2.066E+03     36.552
      162.1  2.073E+03     37.925
      162.1  2.079E+03     39.294
      162.1  2.083E+03     40.432
      162.1  2.088E+03      40.67
      162.1  2.093E+03     39.104
      162.1  2.099E+03     38.893
      162.1  2.102E+03     37.772
      162.1  2.110E+03     37.343
      162.1  2.118E+03     38.265
      162.1  2.124E+03     38.732
      162.1  2.128E+03     38.967
      162.1  2.135E+03     37.858
      162.1  2.139E+03     36.965
      162.1  2.144E+03     34.948
      162.1  2.148E+03     34.732
      162.1  2.153E+03     33.617
      162.1  2.164E+03     32.292
      162.1  2.168E+03     31.174
      162.1  2.174E+03     31.641
      162.1  2.180E+03      30.98
      162.1  2.183E+03     29.408
      162.1  2.189E+03     28.522
      162.1  2.196E+03     28.537
      162.1  2.202E+03     28.102
      162.1  2.208E+03     27.893
      162.1  2.213E+03      25.65
      162.1  2.217E+03     25.659
      162.1  2.222E+03     24.995
      162.1  2.228E+03     25.237
      162.1  2.233E+03      23.67
      162.1  2.239E+03     21.882
      162.1  2.246E+03       22.8
      162.1  2.251E+03     22.136
      162.1  2.257E+03     23.054
      162.1  2.259E+03     21.933
      162.1  2.263E+03     21.492
      162.1  2.269E+03     22.184
      162.1  2.272E+03     21.513
      162.1  2.279E+03     24.013
      162.1  2.284E+03     24.251
      162.1  2.291E+03     25.398
      162.1  2.297E+03     28.347
      162.1  2.323E+03     35.179
      162.1  2.328E+03     37.447
      162.1  2.334E+03     35.659
      162.1  2.338E+03     35.443
      162.1  2.343E+03     32.524
      162.1  2.349E+03     34.569
      162.1  2.354E+03     33.003
      162.1  2.358E+03     34.592
      162.1  2.361E+03     37.082
      162.1  2.369E+03     37.326
      162.1  2.374E+03     34.408
      162.1  2.376E+03     36.669
      162.1  2.382E+03     38.038
      162.1  2.388E+03     37.378
      162.1  2.395E+03     37.393
      162.1  2.397E+03     39.429
      162.1  2.406E+03     39.452
      162.1  2.410E+03      41.72
      162.1  2.416E+03     44.668
      162.1  2.426E+03     44.467
      162.1  2.431E+03     44.705
      162.1  2.436E+03     46.297
      162.1  2.440E+03     44.051
      162.1  2.449E+03     43.623
      162.1  2.451E+03     41.599
      162.1  2.454E+03     40.252
      162.1  2.464E+03     38.473
      162.1  2.465E+03     37.574
      162.1  2.472E+03     36.236
      162.1  2.480E+03     34.455
      162.1  2.486E+03     31.309
      162.1  2.491E+03     28.615
      162.1  2.496E+03      27.05
      162.1  2.501E+03     25.484
      162.1  2.507E+03     24.597
      162.1  2.510E+03     21.897
      162.1  2.517E+03     20.112
      162.1  2.523E+03     18.997
      162.1  2.533E+03     17.218
      162.1  2.539E+03     17.233
      162.1  2.541E+03     16.113
      162.1  2.548E+03     14.098
      162.1  2.550E+03     14.781
      162.1  2.561E+03     15.938
      162.1  2.569E+03     16.408
      162.1  2.574E+03     17.548
      162.1  2.578E+03     18.012
      162.1  2.582E+03       19.6
      162.1  2.589E+03     22.325
      162.1  2.595E+03     24.146
      162.1  2.603E+03     25.744
      162.1  2.608E+03     26.433
      162.1  2.614E+03     27.351
      162.1  2.616E+03     29.388
      162.1  2.622E+03     30.305
      162.1  2.626E+03     32.345
      162.1  2.634E+03     33.043
      162.1  2.638E+03     35.986
      162.1  2.642E+03     36.897
      162.1  2.646E+03     38.714
      162.1  2.650E+03     38.949
      162.1  2.660E+03     41.907
      162.1  2.668E+03     41.252
      162.1  2.675E+03      42.17
      162.1  2.680E+03     41.506
      162.1  2.687E+03     41.751
      162.1  2.692E+03     41.312
      162.1  2.696E+03     39.743
      162.1  2.700E+03     39.752
      162.1  2.706E+03     38.866
      162.1  2.711E+03     36.849
      162.1  2.716E+03     35.057
      162.1  2.722E+03     36.878
      162.1  2.726E+03     34.631
      162.1  2.734E+03     34.425
      162.1  2.741E+03     33.542
      162.1  2.745E+03     35.581
      162.1  2.748E+03     37.846
      162.1  2.755E+03     39.669
      162.1  2.760E+03     44.644
      162.1  2.764E+03     35.406
      162.1  2.771E+03     26.401
      162.1  2.774E+03     20.768
      162.1  2.780E+03     28.904
      162.1  2.787E+03     31.855
      162.1  2.796E+03     33.005
      162.1  2.799E+03     33.917
      162.1  2.806E+03     32.579
      162.1  2.813E+03     33.049
      162.1  2.816E+03     32.831
      162.1  2.826E+03     31.728
      162.1  2.831E+03     29.711
      162.1  2.834E+03     29.043
      162.1  2.841E+03      27.48
      162.1  2.848E+03     28.853
      162.1  2.854E+03     28.192
      162.1  2.863E+03     28.891
      162.1  2.868E+03     28.903
      162.1  2.878E+03     28.478
      162.1  2.884E+03     28.043
      162.1  2.892E+03     27.836
      162.1  2.899E+03     27.404
      162.1  2.905E+03     26.969
      162.1  2.909E+03     26.527
      162.1  2.916E+03     26.547
      162.1  2.920E+03     25.653
      162.1  2.928E+03     25.898
      162.1  2.936E+03     25.921
      162.1  2.941E+03     25.708
      162.1  2.946E+03     24.818
      162.1  2.948E+03     24.371
      162.1  2.953E+03     23.707
      162.1  2.960E+03     24.402
      162.1  2.967E+03     25.549
      162.1  2.976E+03     21.511
      162.1  2.987E+03     22.893
      162.1  2.990E+03     21.546
      162.1  2.996E+03     22.915
      162.1  3.000E+03     22.924
      162.1  3.006E+03     24.519
      162.1  3.010E+03      22.95
      162.1  3.018E+03     22.972
      162.1  3.022E+03      24.11
      162.1  3.031E+03     26.838
      162.1  3.034E+03     27.525
      162.1  3.038E+03      28.21
      162.1  3.045E+03     28.455
      162.1  3.049E+03     29.141
      162.1  3.054E+03     29.605
      162.1  3.058E+03      27.81
      162.1  3.065E+03     28.505
      162.1  3.074E+03     27.851
      162.1  3.075E+03     26.727
      162.1  3.080E+03     24.033
      162.1  3.085E+03     26.076
      162.1  3.091E+03     26.091
      162.1  3.096E+03     26.329
      162.1  3.099E+03     23.179
      162.1  3.104E+03     23.417
      162.1  3.109E+03     22.753
      162.1  3.113E+03     21.634
      162.1  3.118E+03     22.098
      162.1  3.125E+03     22.118
      162.1  3.132E+03      20.78
      162.1  3.144E+03     21.488
      162.1  3.149E+03     22.854
      162.1  3.154E+03     21.964
      162.1  3.160E+03     21.529
      162.1  3.165E+03     20.414
      162.1  3.170E+03     21.329
      162.1  3.176E+03     19.315
      162.1  3.180E+03     20.678
      162.1  3.185E+03     19.788
      162.1  3.204E+03     20.287
      162.1  3.209E+03     19.172
      162.1  3.215E+03     19.414
      162.1  3.220E+03      18.75
      162.1  3.226E+03     19.442
      162.1  3.231E+03     19.004
      162.1  3.237E+03     18.343
      162.1  3.242E+03     18.581
      162.1  3.250E+03     19.502
      162.1  3.257E+03     19.747
      162.1  3.262E+03     19.759
      162.1  3.267E+03     21.351
      162.1  3.271E+03     20.233
      162.1  3.275E+03     20.922
      162.1  3.282E+03     22.066
      162.1  3.287E+03     22.079
      162.1  3.290E+03     22.313
      162.1  3.300E+03     23.692
      162.1  3.307E+03     24.388
      162.1  3.310E+03     23.041
      162.1  3.316E+03     24.185
      162.1  3.321E+03       25.1
      162.1  3.327E+03     22.409
      162.1  3.334E+03     22.876
      162.1  3.340E+03     21.764
      162.1  3.347E+03     21.332
      162.1  3.350E+03     20.436
      162.1  3.356E+03     18.873
      162.1  3.362E+03     18.663
      162.1  3.366E+03     17.771
      162.1  3.378E+03     15.995
      162.1  3.386E+03     14.889
      162.1  3.392E+03     10.842
      162.1  3.395E+03     11.303
      162.1  3.400E+03     11.316
      162.1  3.409E+03     10.661
      162.1  3.424E+03     10.248
      162.1  3.425E+03     10.251
ENDDATA           1274
ENDSUBENT         1286
SUBENT        F0982003   20090127   20090508   20090508       F035
BIB                  3          3
REACTION   (9-F-19(P,INL)9-F-19,PAR,DA)
ERR-ANALYS (EN-ERR-DIG) Energy digitizing error
STATUS     (CURVE) Fig.4,7
ENDBIB               3
COMMON               2          3
EN-ERR-DIG ERR-DIG
MEV        MB/SR
 0.006      0.04
ENDCOMMON            3
DATA                 4        582
E-LVL      ANG        EN         DATA
MEV        ADEG       MEV        MB/SR
       0.11      94.65      2.956     2.1595
       0.11      94.65     2.9576      2.232
       0.11      94.65     2.9598     2.0195
       0.11      94.65     2.9613     2.2349
       0.11      94.65     2.9636     2.2366
       0.11      94.65     2.9651      1.952
       0.11      94.65     2.9681     2.2401
       0.11      94.65     2.9697     1.8841
       0.11      94.65     2.9719     2.2429
       0.11      94.65     2.9735     1.2441
       0.11      94.65     2.9765     1.7464
       0.11      94.65     2.9779     2.8189
       0.11      94.65     2.9801     2.8206
       0.11      94.65     2.9847     2.1812
       0.11      122.3      2.708     6.0866
       0.11      122.3     2.7145     6.3374
       0.11      122.3     2.7186     6.2343
       0.11      122.3     2.7244     6.2826
       0.11      122.3     2.7291     6.0779
       0.11      122.3     2.7338     5.7718
       0.11      122.3     2.7384     5.7699
       0.11      122.3     2.7419     5.7684
       0.11      122.3     2.7449     5.7165
       0.11      122.3     2.7478      5.766
       0.11      122.3     2.7495     5.7146
       0.11      122.3     2.7513     5.6632
       0.11      122.3     2.7525     5.9161
       0.11      122.3     2.7565      5.661
       0.11      122.3     2.7589     5.9135
       0.11      122.3     2.7624     5.6079
       0.11      122.3     2.7647     4.8467
       0.11      122.3     2.7694     5.1995
       0.11      122.3     2.7717     5.5026
       0.11      122.3     2.7752     5.3491
       0.11      122.3     2.7805     5.1949
       0.11      122.3     2.7846     5.4973
       0.11      122.3     2.7893     5.2926
       0.11      122.3     2.7997     4.5787
       0.11      122.3     2.9566     3.2826
       0.11      122.3     2.9581     3.1269
       0.11      122.3     2.9596      3.231
       0.11      122.3     2.9619     3.2312
       0.11      122.3     2.9641     2.8679
       0.11      122.3     2.9656     3.1797
       0.11      122.3     2.9679     2.9202
       0.11      122.3     2.9702     2.8685
       0.11      122.3     2.9724     2.9207
       0.11      122.3      2.974      2.817
       0.11      122.3     2.9762     2.6095
       0.11      122.3     2.9777      3.233
       0.11      122.3       2.98     3.0254
       0.11      122.3     2.9853     3.1819
       0.11      144.6     2.7094     7.2239
       0.11      144.6     2.7141     6.9213
       0.11      144.6     2.7187     5.7189
       0.11      144.6     2.7299     5.2128
       0.11      144.6     2.7352     5.9097
       0.11      144.6     2.7405     3.9071
       0.11      144.6     2.7422     3.5062
       0.11      144.6     2.7458     3.8042
       0.11      144.6     2.7481     3.3029
       0.11      144.6      2.751     3.6013
       0.11      144.6     2.7534        3.1
       0.11      144.6     2.7575     1.9979
       0.11      144.6     2.7599     2.7965
       0.11      144.6     2.7634     4.5942
       0.11      144.6     2.7687     3.5914
       0.11      144.6     2.7722     2.8896
       0.11      144.6     2.7746     3.6881
       0.11      144.6     2.7799     3.0853
       0.11      144.6     2.7863     2.9817
       0.11      144.6     2.9558     2.7208
       0.11      144.6      2.958     3.0977
       0.11      144.6     2.9595     2.7868
       0.11      144.6     2.9618     3.2263
       0.11      144.6      2.964     3.3534
       0.11      144.6     2.9655     3.4798
       0.11      144.6     2.9676     4.5439
       0.11      144.6     2.9699      4.671
       0.11      144.6     2.9714     4.3601
       0.11      144.6     2.9731     3.3621
       0.11      144.6     2.9754     2.4897
       0.11      144.6     2.9777     2.7417
       0.11      144.6     2.9799     2.6814
       0.11      144.6     2.9852     2.5616
       0.11      158.3     2.7087     7.2524
       0.11      158.3     2.7145     6.8214
       0.11      158.3     2.7197     6.5618
       0.11      158.3     2.7243     5.7466
       0.11      158.3     2.7295     5.5298
       0.11      158.3     2.7347     4.8853
       0.11      158.3     2.7399     4.2409
       0.11      158.3     2.7434     4.0678
       0.11      158.3     2.7457     3.6816
       0.11      158.3      2.748      3.552
       0.11      158.3     2.7498     3.3799
       0.11      158.3     2.7533     3.2497
       0.11      158.3     2.7562     3.0769
       0.11      158.3     2.7586     3.5461
       0.11      158.3     2.7622     4.5705
       0.11      158.3     2.7657     4.9534
       0.11      158.3     2.7687     5.1228
       0.11      158.3     2.7709     4.4372
       0.11      158.3     2.7744     4.3925
       0.11      158.3     2.7802     3.9615
       0.11      158.3     2.7849     3.7451
       0.11      158.3      2.789     3.5717
       0.11      158.3     2.7993     2.1544
       0.11      158.3      2.956     2.3583
       0.11      158.3     2.9575     2.1626
       0.11      158.3      2.959     2.3603
       0.11      158.3      2.962     2.2967
       0.11      158.3     2.9635     2.4288
       0.11      158.3      2.965     2.6265
       0.11      158.3     2.9679     3.6774
       0.11      158.3     2.9702     4.0067
       0.11      158.3     2.9717     3.6799
       0.11      158.3      2.974     2.6979
       0.11      158.3     2.9764     2.0438
       0.11      158.3     2.9779     1.7826
       0.11      158.3     2.9794     1.5869
       0.11      158.3     2.9847     1.7214
      0.197       66.8     2.7102     9.7718
      0.197       66.8     2.7149     9.9227
      0.197       66.8     2.7212      10.07
      0.197       66.8     2.7259     12.962
      0.197       66.8     2.7357     12.134
      0.197       66.8     2.7392     14.223
      0.197       66.8     2.7427     14.376
      0.197       66.8     2.7457     16.628
      0.197       66.8     2.7486      16.46
      0.197       66.8     2.7509     17.745
      0.197       66.8     2.7527      18.87
      0.197       66.8     2.7562     21.443
      0.197       66.8     2.7593     28.855
      0.197       66.8     2.7617     33.204
      0.197       66.8     2.7646     32.714
      0.197       66.8     2.7674     29.321
      0.197       66.8     2.7708     27.217
      0.197       66.8     2.7743      28.66
      0.197       66.8     2.7795     27.358
      0.197       66.8     2.7835     26.059
      0.197       66.8     2.7899      27.98
      0.197       66.8     2.7985     25.381
      0.197       66.8     2.9552     14.461
      0.197       66.8     2.9575     14.639
      0.197       66.8     2.9597     14.641
      0.197       66.8     2.9612     15.519
      0.197       66.8     2.9635      15.17
      0.197       66.8     2.9658     14.821
      0.197       66.8      2.968     17.805
      0.197       66.8     2.9703     17.983
      0.197       66.8     2.9718     16.756
      0.197       66.8     2.9741     15.004
      0.197       66.8     2.9756     14.128
      0.197       66.8     2.9779     14.656
      0.197       66.8     2.9801     15.009
      0.197       66.8     2.9854     14.136
      0.197      122.3     2.9561     10.248
      0.197      122.3     2.9568     9.4385
      0.197      122.3     2.9599      9.985
      0.197      122.3     2.9614     10.258
      0.197      122.3     2.9638     9.9925
      0.197      122.3     2.9661      9.997
      0.197      122.3     2.9683     13.785
      0.197      122.3     2.9706     17.032
      0.197      122.3     2.9721     18.387
      0.197      122.3     2.9744     16.499
      0.197      122.3      2.976       13.8
      0.197      122.3     2.9783     11.913
      0.197      122.3     2.9799     11.646
      0.197      122.3     2.9845     11.114
      0.197      144.6       2.71     5.2704
      0.197      144.6     2.7153     5.8778
      0.197      144.6     2.7211     5.5195
      0.197      144.6      2.731     5.3316
      0.197      144.6      2.736     10.238
      0.197      144.6     2.7402     13.127
      0.197      144.6     2.7426     13.124
      0.197      144.6     2.7463     16.891
      0.197      144.6     2.7481     17.416
      0.197      144.6     2.7511     19.254
      0.197      144.6     2.7541     20.829
      0.197      144.6     2.7571     22.492
      0.197      144.6     2.7602     24.681
      0.197      144.6     2.7627     28.011
      0.197      144.6     2.7653     21.868
      0.197      144.6     2.7692     18.266
      0.197      144.6      2.772      17.21
      0.197      144.6     2.7745     19.224
      0.197      144.6     2.7797     19.306
      0.197      144.6     2.7863     21.139
      0.197      144.6     2.9557     7.1122
      0.197      144.6      2.958     6.2015
      0.197      144.6     2.9603     6.9575
      0.197      144.6     2.9619      7.108
      0.197      144.6     2.9627     7.7135
      0.197      144.6     2.9642     8.0155
      0.197      144.6     2.9657     8.0144
      0.197      144.6     2.9689      10.74
      0.197      144.6     2.9712     13.617
      0.197      144.6     2.9727      13.01
      0.197      144.6     2.9743     11.493
      0.197      144.6     2.9765     8.3101
      0.197      144.6     2.9788     7.8539
      0.197      144.6     2.9803     6.7923
      0.197      144.6     2.9857     7.5461
      0.197      158.3     2.7102     3.4824
      0.197      158.3     2.7148     4.1972
      0.197      158.3     2.7207     5.3216
      0.197      158.3     2.7248     6.1395
      0.197      158.3     2.7306     7.5719
      0.197      158.3     2.7341     8.0824
      0.197      158.3       2.74     10.541
      0.197      158.3     2.7418     11.566
      0.197      158.3     2.7447     12.693
      0.197      158.3     2.7476     13.615
      0.197      158.3     2.7494     15.153
      0.197      158.3     2.7512     16.486
      0.197      158.3     2.7553     18.741
      0.197      158.3     2.7577     21.922
      0.197      158.3     2.7618      22.74
      0.197      158.3     2.7646     16.373
      0.197      158.3     2.7674     14.523
      0.197      158.3     2.7709     13.596
      0.197      158.3     2.7738     13.799
      0.197      158.3     2.7785     15.232
      0.197      158.3     2.7832     15.844
      0.197      158.3     2.7902     16.557
      0.197      158.3        2.8     15.625
      0.197      158.3     2.9565     5.4334
      0.197      158.3     2.9588     5.0196
      0.197      158.3     2.9602     5.2993
      0.197      158.3     2.9625     5.1634
      0.197      158.3     2.9647     5.4441
      0.197      158.3     2.9662     5.8628
      0.197      158.3     2.9683     7.9495
      0.197      158.3     2.9697     9.0628
      0.197      158.3     2.9719     9.8992
      0.197      158.3     2.9742     7.5406
      0.197      158.3     2.9765     5.8765
      0.197      158.3     2.9773     4.7662
      0.197      158.3     2.9795     4.7691
      0.197      158.3     2.9847     4.9149
      1.346       66.8     2.7109     2.1587
      1.346       66.8     2.7138     2.0264
      1.346       66.8      2.719      1.795
      1.346       66.8     2.7238     2.0081
      1.346       66.8     2.7344     2.5822
      1.346       66.8     2.7398     2.9434
      1.346       66.8     2.7421      2.729
      1.346       66.8      2.745     2.5803
      1.346       66.8     2.7484     2.1516
      1.346       66.8     2.7497     2.8263
      1.346       66.8     2.7526     2.6611
      1.346       66.8      2.755     2.9899
      1.346       66.8     2.7593     3.8121
      1.346       66.8     2.7617     4.3055
      1.346       66.8     2.7649     5.3584
      1.346       66.8     2.7673     5.6707
      1.346       66.8     2.7702     5.4397
      1.346       66.8     2.7736     4.8465
      1.346       66.8     2.7782     4.7633
      1.346       66.8     2.7846     4.4165
      1.346       66.8     2.7887     4.3663
      1.346       66.8     2.7985     3.8706
      1.346      94.65       2.71     1.9123
      1.346      94.65     2.7153      1.691
      1.346      94.65     2.7206     1.6523
      1.346      94.65     2.7253     2.0517
      1.346      94.65     2.7294     2.0864
      1.346      94.65     2.7354     2.6677
      1.346      94.65       2.74     2.0453
      1.346      94.65     2.7424     2.2268
      1.346      94.65      2.746     2.6267
      1.346      94.65      2.749     3.0998
      1.346      94.65     2.7501     2.5154
      1.346      94.65     2.7543      3.207
      1.346      94.65     2.7567     3.4249
      1.346      94.65     2.7602     3.8978
      1.346      94.65     2.7626     4.3347
      1.346      94.65     2.7655     3.2752
      1.346      94.65     2.7684      2.982
      1.346      94.65     2.7708     3.3094
      1.346      94.65     2.7749     3.1252
      1.346      94.65     2.7807     2.7577
      1.346      94.65     2.7855     3.2666
      1.346      94.65     2.7901     3.0821
      1.346      94.65     2.8001     2.8224
      1.346      94.65     2.9553     1.7458
      1.346      94.65     2.9582     1.8936
      1.346      94.65     2.9598      1.712
      1.346      94.65     2.9618     2.4797
      1.346      94.65     2.9641     2.2986
      1.346      94.65     2.9655      2.628
      1.346      94.65     2.9676     3.0672
      1.346      94.65     2.9689     3.5791
      1.346      94.65     2.9718     3.9458
      1.346      94.65     2.9737     2.4504
      1.346      94.65     2.9754     1.5025
      1.346      94.65     2.9775     1.8323
      1.346      94.65     2.9797     1.9066
      1.346      94.65     2.9849     1.7273
      1.346      122.3     2.7092     1.4432
      1.346      122.3     2.7157     1.6007
      1.346      122.3     2.7192      1.759
      1.346      122.3     2.7251     2.1553
      1.346      122.3     2.7292     2.3665
      1.346      122.3     2.7345     2.5243
      1.346      122.3     2.7387     2.9211
      1.346      122.3     2.7422     2.8672
      1.346      122.3     2.7452      3.503
      1.346      122.3     2.7475     3.5289
      1.346      122.3     2.7504     3.7138
      1.346      122.3     2.7534      4.217
      1.346      122.3     2.7559      5.065
      1.346      122.3     2.7589     6.0455
      1.346      122.3     2.7624     5.8325
      1.346      122.3     2.7662     3.6039
      1.346      122.3      2.769     2.5955
      1.346      122.3     2.7713     2.3298
      1.346      122.3     2.7748     2.1168
      1.346      122.3     2.7795     2.4604
      1.346      122.3     2.7854     2.7772
      1.346      122.3     2.7895     2.8292
      1.346      122.3     2.7977     7.3355
      1.346      122.3     2.7989     2.6148
      1.346      122.3     2.9553     2.4507
      1.346      122.3     2.9583     2.5612
      1.346      122.3     2.9597     2.4578
      1.346      122.3      2.962     2.6729
      1.346      122.3     2.9634     2.9925
      1.346      122.3     2.9656      2.996
      1.346      122.3     2.9677     5.0088
      1.346      122.3     2.9698     6.3871
      1.346      122.3      2.972     6.4964
      1.346      122.3     2.9736     5.2298
      1.346      122.3      2.976     3.5414
      1.346      122.3     2.9783     2.5932
      1.346      122.3     2.9797      2.384
      1.346      122.3     2.9842     1.9682
      1.346      144.6     2.7092     2.3917
      1.346      144.6     2.7145     1.9441
      1.346      144.6     2.7203     2.1855
      1.346      144.6     2.7297     2.1514
      1.346      144.6     2.7355     2.3584
      1.346      144.6     2.7385     2.9787
      1.346      144.6     2.7431     2.8411
      1.346      144.6     2.7455     3.8748
      1.346      144.6     2.7484      3.806
      1.346      144.6     2.7501     4.2195
      1.346      144.6     2.7536     4.5986
      1.346      144.6     2.7566     4.9433
      1.346      144.6     2.7589     8.1819
      1.346      144.6     2.7623     10.249
      1.346      144.6     2.7659     6.0462
      1.346      144.6     2.7689     3.2212
      1.346      144.6     2.7718     2.6701
      1.346      144.6     2.7747      2.429
      1.346      144.6     2.7794     2.5326
      1.346      144.6     2.7852     2.8085
      1.346      144.6     2.7893     2.3952
      1.346      144.6     2.7999     3.1536
      1.346      144.6     2.9562     1.6011
      1.346      144.6     2.9583     2.3538
      1.346      144.6     2.9598     2.2308
      1.346      144.6      2.962     2.7336
      1.346      144.6     2.9642     2.9865
      1.346      144.6     2.9657     3.7382
      1.346      144.6     2.9685     6.2413
      1.346      144.6     2.9699     8.6175
      1.346      144.6     2.9721     8.9953
      1.346      144.6     2.9741     12.872
      1.346      144.6     2.9744     7.2488
      1.346      144.6      2.976     4.7516
      1.346      144.6     2.9776     3.0041
      1.346      144.6     2.9805     2.8831
      1.346      144.6      2.985     2.2642
      1.346      158.3     2.7106     0.8326
      1.346      158.3     2.7153     1.0613
      1.346      158.3     2.7212     1.4046
      1.346      158.3     2.7253     1.6565
      1.346      158.3     2.7307      1.954
      1.346      158.3      2.736     2.3204
      1.346      158.3     2.7395     2.5264
      1.346      158.3     2.7425     2.6636
      1.346      158.3     2.7467     3.2143
      1.346      158.3     2.7491     3.5126
      1.346      158.3     2.7515     3.8569
      1.346      158.3     2.7545     4.4309
      1.346      158.3     2.7576     5.5798
      1.346      158.3     2.7603     7.3727
      1.346      158.3     2.7633     7.8547
      1.346      158.3     2.7663     4.9796
      1.346      158.3     2.7694     2.8863
      1.346      158.3     2.7722     2.1727
      1.346      158.3     2.7751      1.965
      1.346      158.3     2.7792     2.1249
      1.346      158.3     2.7857     2.2841
      1.346      158.3     2.7892     2.4671
      1.346      158.3     2.7998     2.6022
      1.346      158.3     2.9552     2.2049
      1.346      158.3     2.9567     2.1387
      1.346      158.3      2.959     2.0732
      1.346      158.3     2.9612     2.3465
      1.346      158.3     2.9635     2.4166
      1.346      158.3     2.9657     2.8255
      1.346      158.3     2.9677     4.7255
      1.346      158.3      2.969     6.6926
      1.346      158.3     2.9712     7.5082
      1.346      158.3     2.9736     6.2904
      1.346      158.3     2.9761     4.1238
      1.346      158.3     2.9771     2.4302
      1.346      158.3     2.9793     2.3647
      1.346      158.3     2.9847     1.9633
      1.459       66.8     2.7085      2.315
      1.459       66.8     2.7144     1.9032
      1.459       66.8     2.7191     2.3084
      1.459       66.8     2.7239     2.7952
      1.459       66.8     2.7352     2.9515
      1.459       66.8       2.74      3.275
      1.459       66.8     2.7435     3.3545
      1.459       66.8     2.7448     3.8843
      1.459       66.8     2.7472     4.1277
      1.459       66.8     2.7513     3.9619
      1.459       66.8     2.7538     4.7358
      1.459       66.8     2.7576     6.7742
      1.459       66.8     2.7595     7.5893
      1.459       66.8     2.7639     9.9538
      1.459       66.8     2.7665     11.177
      1.459       66.8     2.7692     9.7873
      1.459       66.8     2.7721     9.1732
      1.459       66.8     2.7738     8.8048
      1.459       66.8     2.7791      8.271
      1.459       66.8     2.7861     7.5728
      1.459       66.8     2.7902     7.5294
      1.459       66.8     2.8005     4.8292
      1.459      94.65     2.7101     2.1868
      1.459      94.65     2.7165     1.4275
      1.459      94.65     2.7201     2.2696
      1.459      94.65     2.7254      2.325
      1.459      94.65     2.7294      2.212
      1.459      94.65     2.7341     2.5484
      1.459      94.65     2.7394     2.9689
      1.459      94.65      2.743     3.0807
      1.459      94.65     2.7454     4.4287
      1.459      94.65     2.7489     3.9787
      1.459      94.65     2.7512      4.175
      1.459      94.65      2.753     4.5399
      1.459      94.65     2.7566      5.382
      1.459      94.65     2.7595     6.2805
      1.459      94.65     2.7614     7.5161
      1.459      94.65     2.7654     7.1784
      1.459      94.65     2.7683     6.8971
      1.459      94.65     2.7747      5.295
      1.459      94.65     2.7799     4.9291
      1.459      94.65     2.7846      4.816
      1.459      94.65     2.7892     3.8322
      1.459      94.65     2.7991     3.2408
      1.459      94.65     2.9557     3.5461
      1.459      94.65     2.9578     4.3636
      1.459      94.65     2.9593     4.3656
      1.459      94.65      2.961     3.4792
      1.459      94.65     2.9632     3.8524
      1.459      94.65     2.9654     3.8554
      1.459      94.65     2.9677     4.1546
      1.459      94.65     2.9701     3.2692
      1.459      94.65     2.9738     3.5704
      1.459      94.65     2.9754     3.0542
      1.459      94.65     2.9776     3.2053
      1.459      94.65     2.9798     3.6525
      1.459      94.65     2.9822     2.7671
      1.459      122.3     2.7104     1.7526
      1.459      122.3     2.7152     2.2654
      1.459      122.3     2.7199     2.3187
      1.459      122.3     2.7252     2.7232
      1.459      122.3     2.7299     2.9116
      1.459      122.3     2.7347     3.3973
      1.459      122.3       2.74      3.964
      1.459      122.3     2.7424      4.261
      1.459      122.3     2.7448     4.8281
      1.459      122.3     2.7489     5.1788
      1.459      122.3     2.7507     5.8812
      1.459      122.3     2.7537     6.2861
      1.459      122.3     2.7567     7.4208
      1.459      122.3     2.7592     9.2312
      1.459      122.3     2.7628     10.149
      1.459      122.3     2.7662     7.8517
      1.459      122.3     2.7684     6.6351
      1.459      122.3     2.7719     5.9318
      1.459      122.3     2.7742     5.6882
      1.459      122.3     2.7801     5.0657
      1.459      122.3     2.7842     4.7947
      1.459      122.3     2.7894     4.1182
      1.459      122.3     2.7981     2.9276
      1.459      122.3     2.9558     3.8997
      1.459      122.3      2.958     3.7464
      1.459      122.3     2.9602     3.6443
      1.459      122.3     2.9617     3.4908
      1.459      122.3      2.964       3.44
      1.459      122.3     2.9662     3.1329
      1.459      122.3     2.9684     3.1847
      1.459      122.3     2.9699     3.7491
      1.459      122.3      2.972      4.724
      1.459      122.3     2.9743     5.0322
      1.459      122.3     2.9765     4.1096
      1.459      122.3      2.978     3.6997
      1.459      122.3     2.9795     3.4437
      1.459      122.3     2.9818     2.9826
      1.459      144.6     2.7105     2.3075
      1.459      144.6     2.7204     2.4686
      1.459      144.6     2.7298     3.0576
      1.459      144.6     2.7356     3.5161
      1.459      144.6     2.7404     4.2381
      1.459      144.6     2.7427     4.5992
      1.459      144.6     2.7451     5.3878
      1.459      144.6     2.7478     5.3916
      1.459      144.6     2.7504     5.7149
      1.459      144.6     2.7546     6.8977
      1.459      144.6     2.7569     7.0614
      1.459      144.6     2.7586     9.9221
      1.459      144.6     2.7632     11.302
      1.459      144.6     2.7653     9.1637
      1.459      144.6     2.7691     6.6954
      1.459      144.6     2.7738     6.6939
      1.459      144.6     2.7761     6.4958
      1.459      144.6     2.7795     5.8039
      1.459      144.6     2.7841     5.3418
      1.459      144.6     2.7898     3.9255
      1.459      144.6     2.7995      2.771
      1.459      144.6     2.9551     2.9396
      1.459      144.6     2.9574     2.9081
      1.459      144.6     2.9589     2.6828
      1.459      144.6     2.9612     2.4256
      1.459      144.6     2.9636     1.9426
      1.459      144.6     2.9642     2.3943
      1.459      144.6      2.965     2.2979
      1.459      144.6     2.9673     2.3309
      1.459      144.6     2.9695     2.6864
      1.459      144.6     2.9716     3.4611
      1.459      144.6     2.9738     3.6876
      1.459      144.6     2.9754     3.3011
      1.459      144.6      2.977     2.8502
      1.459      144.6     2.9793     2.7219
      1.459      144.6     2.9846     2.3689
      1.459      158.3     2.7104     1.8806
      1.459      158.3     2.7158     2.2061
      1.459      158.3     2.7212     2.4494
      1.459      158.3     2.7253     2.6523
      1.459      158.3     2.7313     2.6894
      1.459      158.3     2.7355     3.1392
      1.459      158.3     2.7403     3.8766
      1.459      158.3     2.7433     4.1626
      1.459      158.3     2.7463     4.5309
      1.459      158.3     2.7494      5.146
      1.459      158.3     2.7512     5.6386
      1.459      158.3     2.7542     5.9657
      1.459      158.3     2.7579     7.1976
      1.459      158.3     2.7607     10.446
      1.459      158.3     2.7642     9.9913
      1.459      158.3     2.7678     6.1211
      1.459      158.3     2.7707     5.8311
      1.459      158.3     2.7725     5.3362
      1.459      158.3      2.776     5.4161
      1.459      158.3     2.7807     4.8369
      1.459      158.3     2.7859     4.3807
      1.459      158.3     2.7906     3.6781
      1.459      158.3     2.8011       2.56
      1.459      158.3     2.9552     2.9706
      1.459      158.3     2.9575     3.0034
      1.459      158.3     2.9598     2.6168
      1.459      158.3     2.9621      2.456
      1.459      158.3     2.9637     2.3273
      1.459      158.3      2.966     2.1343
      1.459      158.3     2.9684      2.038
      1.459      158.3     2.9706     2.6514
      1.459      158.3      2.972     3.7486
      1.459      158.3     2.9743     3.6523
      1.459      158.3     2.9759     3.4913
      1.459      158.3     2.9783     2.6854
      1.459      158.3     2.9806     2.6537
      1.459      158.3      2.986     2.2355
ENDDATA            584
ENDSUBENT          596
SUBENT        F0982004   20090127   20090508   20090508       F035
BIB                  3          4
REACTION   (9-F-19(P,A)8-O-16,PAR,DA)
ERR-ANALYS (EN-ERR-DIG) Energy digitizing error
           (DATA-ERR)   Error from the graphic bars
STATUS     (CURVE) Fig.5,6,8,9
ENDBIB               4
COMMON               2          3
EN-ERR-DIG ERR-DIG
MEV        MB/SR
 0.004      0.006
ENDCOMMON            3
DATA                 5        861
E-LVL      ANG        EN         DATA       DATA-ERR
MEV        ADEG       MEV        MB/SR      MB/SR
         0.       66.8     2.7101     0.7584
         0.       66.8     2.7145      0.816
         0.       66.8      2.719      0.769
         0.       66.8     2.7252     0.8166
         0.       66.8     2.7293     0.8134
         0.       66.8     2.7356     0.8036
         0.       66.8     2.7396     0.8444
         0.       66.8     2.7423      0.804
         0.       66.8      2.745     0.8075
         0.       66.8     2.7482     0.7739
         0.       66.8     2.7504     0.8145
         0.       66.8      2.753     0.8687
         0.       66.8     2.7566     0.8723
         0.       66.8     2.7592      0.967
         0.       66.8     2.7619     0.9266
         0.       66.8     2.7646     0.8761
         0.       66.8     2.7686     0.9337
         0.       66.8     2.7718     0.8731
         0.       66.8     2.7745      0.934
         0.       66.8       2.78     0.7891
         0.       66.8      2.784     0.8197
         0.       66.8     2.7885     0.7321
         0.       66.8     2.9556     2.3338
         0.       66.8     2.9572     2.4755
         0.       66.8     2.9593      2.358
         0.       66.8     2.9617      2.217
         0.       66.8     2.9638     2.5473
         0.       66.8     2.9652     2.3237
         0.       66.8      2.967     2.3122
         0.       66.8     2.9684     2.4185
         0.       66.8     2.9697     2.1712
         0.       66.8     2.9713     2.0065
         0.       66.8     2.9737     2.2073
         0.       66.8     2.9759     2.0544
         0.       66.8      2.978     2.2551
         0.       66.8     2.9801     2.0316
         0.       66.8     2.9849     2.2563    0.18857
         0.      94.65     2.9556     2.8896
         0.      94.65     2.9575      2.701
         0.      94.65     2.9599     2.8507
         0.      94.65     2.9618     2.7297
         0.      94.65     2.9634     2.5139
         0.      94.65     2.9655     2.5013
         0.      94.65     2.9674     2.6237
         0.      94.65     2.9684      2.827
         0.      94.65     2.9697     2.7869
         0.      94.65     2.9719     2.3821
         0.      94.65     2.9738     2.3287
         0.      94.65     2.9741     2.2341
         0.      94.65      2.976     2.3295
         0.      94.65     2.9782      3.169
         0.      94.65     2.9799     2.4934
         0.      94.65     2.9853      2.482    0.22991
         0.      122.3     2.7104     1.9598
         0.      122.3     2.7208     1.9606
         0.      122.3     2.7249     1.8568
         0.      122.3     2.7308     1.9614
         0.      122.3     2.7363     1.8369
         0.      122.3     2.7408     1.8372
         0.      122.3     2.7436     1.8166
         0.      122.3     2.7463      1.921
         0.      122.3     2.7486     1.8795
         0.      122.3     2.7518     1.7756
         0.      122.3     2.7549     1.9008
         0.      122.3     2.7572     1.7344
         0.      122.3     2.7604     1.7971
         0.      122.3      2.764     1.5058
         0.      122.3     2.7658     1.6517
         0.      122.3     2.7681     1.7769
         0.      122.3     2.7708     1.6521
         0.      122.3      2.774     1.5691
         0.      122.3     2.7804     1.4862
         0.      122.3     2.7859     1.4867
         0.      122.3     2.7904     1.3412
         0.      122.3     2.9554     2.0508
         0.      122.3     2.9576     2.0379
         0.      122.3     2.9594     1.9872
         0.      122.3     2.9616     2.0501
         0.      122.3     2.9645     2.0371
         0.      122.3     2.9661     1.8727
         0.      122.3     2.9674     1.9357
         0.      122.3     2.9682     2.0114
         0.      122.3     2.9704     2.0112
         0.      122.3     2.9725     2.0109
         0.      122.3     2.9744     1.8718
         0.      122.3      2.976     1.8463
         0.      122.3     2.9781     1.9092
         0.      122.3     2.9808     2.0226
         0.      122.3     2.9864     1.9967
         0.      144.6     2.7089     3.1956
         0.      144.6     2.7153     3.0838
         0.      144.6     2.7243     3.0852
         0.      144.6     2.7293     2.9356
         0.      144.6     2.7343     2.6857
         0.      144.6     2.7392     2.6865
         0.      144.6     2.7433     2.5618
         0.      144.6     2.7465     2.5748
         0.      144.6     2.7487     2.4499
         0.      144.6      2.751     2.4126
         0.      144.6     2.7533     2.3503
         0.      144.6      2.757      1.837
         0.      144.6     2.7601     1.9252
         0.      144.6     2.7628     2.0259
         0.      144.6     2.7659     2.1768
         0.      144.6     2.7696     1.8515
         0.      144.6     2.7714      1.739
         0.      144.6     2.7754     1.7773
         0.      144.6     2.7804     1.6903
         0.      144.6     2.7849     1.5782
         0.      144.6     2.7908     1.5666
         0.      144.6     2.9553     2.1707
         0.      144.6     2.9577     2.1913
         0.      144.6     2.9595     2.1812
         0.      144.6     2.9616     2.1304
         0.      144.6      2.964     2.1408
         0.      144.6     2.9659     2.0899
         0.      144.6     2.9677     2.1513
         0.      144.6     2.9698     2.1412
         0.      144.6     2.9714       2.07
         0.      144.6     2.9745       2.06
         0.      144.6     2.9759     1.9887
         0.      144.6     2.9774     2.1622
         0.      144.6     2.9801     1.9789
         0.      144.6     2.9856     2.1425
         0.      158.3     2.7143     2.8401
         0.      158.3     2.7184     2.7196
         0.      158.3     2.7243     2.6345
         0.      158.3     2.7292     2.6013
         0.      158.3     2.7347     2.4116
         0.      158.3     2.7401     2.4133
         0.      158.3     2.7429     2.1533
         0.      158.3      2.746     2.4499
         0.      158.3     2.7489     1.8073
         0.      158.3     2.7515     2.0168
         0.      158.3     2.7543     1.6699
         0.      158.3     2.7571     1.5316
         0.      158.3     2.7602     1.5152
         0.      158.3     2.7625     1.4637
         0.      158.3     2.7653     1.1863
         0.      158.3     2.7684     1.3264
         0.      158.3     2.7721     1.1362
         0.      158.3     2.7762     1.0331
         0.      158.3     2.7802     1.0344
         0.      158.3     2.7853     0.8098
         0.      158.3     2.7889     0.9327
         0.      158.3     2.8006     0.8668
         0.      158.3     2.9562     1.5889
         0.      158.3     2.9573     1.5186
         0.      158.3     2.9594     1.5101
         0.      158.3     2.9612     1.5015
         0.      158.3     2.9636     1.5546
         0.      158.3     2.9657     1.5725
         0.      158.3     2.9676     1.5287
         0.      158.3     2.9678     1.4671
         0.      158.3     2.9697     1.5289
         0.      158.3      2.971     1.4762
         0.      158.3     2.9741      1.503
         0.      158.3     2.9755     1.4856
         0.      158.3     2.9776     1.4946
         0.      158.3     2.9802     1.4069
         0.      158.3     2.9852     1.4251
      6.049       66.8     2.7089     2.2795
      6.049       66.8      2.713     2.0448
      6.049       66.8     2.7189     2.0705
      6.049       66.8     2.7242     2.4961
      6.049       66.8     2.7279     2.0709
      6.049       66.8     2.7339     1.8109
      6.049       66.8     2.7416     1.7477
      6.049       66.8     2.7452     1.8495
      6.049       66.8     2.7479     1.7925
      6.049       66.8     2.7493     1.6719
      6.049       66.8     2.7524     1.9006
      6.049       66.8     2.7565     2.0659
      6.049       66.8     2.7582     2.1294
      6.049       66.8      2.761     2.0915
      6.049       66.8     2.7645     2.4281
      6.049       66.8     2.7677     2.4664
      6.049       66.8     2.7703     2.7077
      6.049       66.8      2.774     2.5555
      6.049       66.8     2.7789     2.7462
      6.049       66.8     2.7839     2.7718
      6.049       66.8     2.7889      2.588
      6.049       66.8     2.7989     2.5821
      6.049       66.8     2.9555     0.9953
      6.049       66.8     2.9573     0.9954
      6.049       66.8     2.9597     0.7672
      6.049       66.8      2.962     1.0001
      6.049       66.8     2.9644     0.8998
      6.049       66.8      2.966     0.9455
      6.049       66.8      2.968      0.973
      6.049       66.8     2.9683     0.9319
      6.049       66.8     2.9701     0.9593
      6.049       66.8      2.972     0.8498
      6.049       66.8     2.9741     0.8362
      6.049       66.8     2.9764     0.7724
      6.049       66.8     2.9777     0.9414
      6.049       66.8     2.9803     0.9278
      6.049       66.8     2.9853     0.7682
      6.049      94.65     2.9553     0.6819
      6.049      94.65     2.9571     0.5994
      6.049      94.65     2.9603     0.9189
      6.049      94.65     2.9636     0.7642
      6.049      94.65     2.9657     0.5786
      6.049      94.65      2.967     0.7126
      6.049      94.65      2.968     0.6817
      6.049      94.65     2.9701     0.8723
      6.049      94.65     2.9717     0.7331
      6.049      94.65     2.9735     0.5785
      6.049      94.65     2.9758      0.697
      6.049      94.65     2.9776     0.5733
      6.049      94.65     2.9797     0.7124
      6.049      94.65     2.9849     0.7536
      6.049      122.3     2.7091     0.3688
      6.049      122.3     2.7141     0.4136
      6.049      122.3       2.72     0.3917
      6.049      122.3      2.725     0.3179
      6.049      122.3     2.7294     0.4403
      6.049      122.3     2.7344     0.4221
      6.049      122.3     2.7393     0.4928
      6.049      122.3     2.7421     0.4818
      6.049      122.3     2.7456     0.5376
      6.049      122.3     2.7479     0.5636
      6.049      122.3      2.751      0.586
      6.049      122.3     2.7537     0.6306
      6.049      122.3     2.7567       0.79
      6.049      122.3     2.7595     0.7531
      6.049      122.3     2.7621     0.8274
      6.049      122.3     2.7653     0.8609
      6.049      122.3     2.7682     1.0832
      6.049      122.3     2.7705      1.113
      6.049      122.3      2.775     1.1614
      6.049      122.3     2.7795     1.1468
      6.049      122.3     2.7845     1.1619
      6.049      122.3      2.789     1.0992
      6.049      122.3     2.7992      0.822
      6.049      122.3     2.9563     0.4907
      6.049      122.3     2.9589     0.6294
      6.049      122.3     2.9604      0.575
      6.049      122.3     2.9623      0.575
      6.049      122.3     2.9641     0.5553
      6.049      122.3     2.9659     0.6098
      6.049      122.3      2.968     0.6545
      6.049      122.3     2.9699     0.5704
      6.049      122.3     2.9733     0.6101
      6.049      122.3     2.9759     0.6448
      6.049      122.3     2.9779     0.6944
      6.049      122.3     2.9798     0.6549
      6.049      122.3      2.985     0.7045
      6.049      144.6     2.7102     1.2801
      6.049      144.6     2.7152     1.3296
      6.049      144.6     2.7193     1.2812
      6.049      144.6     2.7253     1.1963
      6.049      144.6     2.7294     1.1479
      6.049      144.6     2.7353     1.2098
      6.049      144.6     2.7408     1.2594
      6.049      144.6     2.7435     1.2842
      6.049      144.6     2.7458     1.4679
      6.049      144.6      2.749     1.2971
      6.049      144.6     2.7508     1.5175
      6.049      144.6      2.754     1.4812
      6.049      144.6     2.7572     1.5305
      6.049      144.6     2.7612     1.9958
      6.049      144.6     2.7644      2.143
      6.049      144.6     2.7671     2.2901
      6.049      144.6     2.7689     2.5472
      6.049      144.6     2.7721     2.5843
      6.049      144.6     2.7757     2.7438
      6.049      144.6     2.7798     2.8911
      6.049      144.6     2.7848     2.9406
      6.049      144.6     2.7908      2.709
      6.049      144.6     2.8009     2.1109
      6.049      144.6     2.9555     0.7665
      6.049      144.6     2.9573     0.7706
      6.049      144.6     2.9594     0.7868
      6.049      144.6     2.9606     0.8469
      6.049      144.6     2.9622      0.787
      6.049      144.6     2.9638     0.7751
      6.049      144.6     2.9656     0.7832
      6.049      144.6     2.9677     0.7834
      6.049      144.6     2.9695     0.8395
      6.049      144.6     2.9721     0.8397
      6.049      144.6     2.9736     0.8638
      6.049      144.6     2.9759      0.952
      6.049      144.6     2.9775     0.8961
      6.049      144.6     2.9798     0.9763
      6.049      144.6     2.9848     0.9807
      6.049      158.3     2.7156     1.6051
      6.049      158.3     2.7206     1.4379
      6.049      158.3     2.7256     1.3715
      6.049      158.3     2.7305     1.4563
      6.049      158.3     2.7355     1.4739
      6.049      158.3     2.7405     1.4579
      6.049      158.3     2.7432     1.5255
      6.049      158.3     2.7459     1.6268
      6.049      158.3     2.7486     1.6945
      6.049      158.3     2.7504      1.846
      6.049      158.3     2.7535     1.8801
      6.049      158.3     2.7572     1.8975
      6.049      158.3     2.7598     2.2845
      6.049      158.3      2.763     2.4026
      6.049      158.3     2.7684     2.7396
      6.049      158.3     2.7715     2.8913
      6.049      158.3     2.7796     3.0943
      6.049      158.3     2.7855     3.1457
      6.049      158.3     2.7905     2.8608
      6.049      158.3     2.8005     2.4591
      6.049      158.3     2.9551     0.5074
      6.049      158.3     2.9575     0.5077
      6.049      158.3     2.9598       0.53
      6.049      158.3     2.9619     0.5524
      6.049      158.3     2.9635      0.495
      6.049      158.3     2.9659     0.5306
      6.049      158.3     2.9682     0.5795
      6.049      158.3     2.9698     0.5576
      6.049      158.3     2.9719     0.5489
      6.049      158.3     2.9735     0.6331
      6.049      158.3     2.9756     0.5803
      6.049      158.3     2.9777     0.6557
      6.049      158.3     2.9798     0.6559
      6.049      158.3     2.9853     0.7405
       6.13       66.8     2.7063     4.7287
       6.13       66.8      2.714     5.0506
       6.13       66.8     2.7169     5.2922
       6.13       66.8     2.7211     5.5338
       6.13       66.8     2.7311     5.8555
       6.13       66.8     2.7387     5.1291
       6.13       66.8     2.7428     6.8221
       6.13       66.8     2.7452     6.6606
       6.13       66.8     2.7481     6.8216
       6.13       66.8     2.7505     6.4182
       6.13       66.8     2.7516     6.9019
       6.13       66.8     2.7552     8.3531
       6.13       66.8     2.7599     9.5622
       6.13       66.8     2.7623     10.933
       6.13       66.8     2.7646     11.497
       6.13       66.8     2.7675     10.771
       6.13       66.8     2.7717     11.255
       6.13       66.8     2.7752     10.448
       6.13       66.8     2.7811     10.367
       6.13       66.8     2.7858     11.334
       6.13       66.8     2.7958     10.204
       6.13       66.8     2.9563     3.3222
       6.13       66.8     2.9589     3.5768
       6.13       66.8     2.9608     3.3588
       6.13       66.8     2.9626     3.4498
       6.13       66.8     2.9645      3.559
       6.13       66.8     2.9668     3.5046
       6.13       66.8     2.9687     4.0137
       6.13       66.8     2.9708     4.3956
       6.13       66.8     2.9726     4.5229
       6.13       66.8     2.9745     4.4503
       6.13       66.8     2.9766     4.2504
       6.13       66.8     2.9784     4.1415
       6.13       66.8     2.9801     3.9779
       6.13       66.8     2.9852       3.96
       6.13      94.65     2.7098     4.1488
       6.13      94.65     2.7146     4.5279
       6.13      94.65     2.7187     4.4933
       6.13      94.65     2.7204     4.4932
       6.13      94.65     2.7246     4.5965
       6.13      94.65     2.7281     4.9067
       6.13      94.65      2.734     4.9065
       6.13      94.65     2.7387     6.0098
       6.13      94.65     2.7422     5.6304
       6.13      94.65      2.744     6.6303
       6.13      94.65     2.7487     6.2163
       6.13      94.65     2.7499     6.9059
       6.13      94.65     2.7528     7.0437
       6.13      94.65     2.7552     7.8712
       6.13      94.65     2.7593     10.181
       6.13      94.65     2.7634      8.733
       6.13      94.65     2.7652     8.0778
       6.13      94.65     2.7663      7.526
       6.13      94.65     2.7705     7.4224
       6.13      94.65      2.774     7.6292
       6.13      94.65     2.7793     7.9738
       6.13      94.65     2.7834     8.8357
       6.13      94.65     2.7887     8.9045
       6.13      94.65     2.7993       8.18
       6.13      94.65     2.9565     2.2509
       6.13      94.65     2.9579      2.267
       6.13      94.65       2.96     2.0628
       6.13      94.65     2.9621     2.0161
       6.13      94.65     2.9639      2.489
       6.13      94.65      2.966     2.4738
       6.13      94.65      2.968     3.5766
       6.13      94.65     2.9699     3.6874
       6.13      94.65     2.9719     3.8611
       6.13      94.65     2.9739     3.0113
       6.13      94.65     2.9762     2.5553
       6.13      94.65     2.9779      2.099
       6.13      94.65     2.9799     2.4145
       6.13      94.65     2.9846     2.0221
       6.13      122.3     2.7087     4.2256
       6.13      122.3     2.7134     4.3758
       6.13      122.3     2.7188     4.5759
       6.13      122.3     2.7236     4.6761
       6.13      122.3     2.7295     5.2013
       6.13      122.3     2.7337     5.4264
       6.13      122.3     2.7384     5.9016
       6.13      122.3      2.742     6.7017
       6.13      122.3     2.7455     6.5018
       6.13      122.3     2.7467     6.8018
       6.13      122.3     2.7497     7.2019
       6.13      122.3     2.7527      7.277
       6.13      122.3     2.7562     7.6771
       6.13      122.3     2.7586     9.2022
       6.13      122.3     2.7627     9.5273
       6.13      122.3     2.7645     8.4524
       6.13      122.3     2.7681     7.4025
       6.13      122.3     2.7717     7.0276
       6.13      122.3     2.7741     7.0777
       6.13      122.3     2.7788     7.2529
       6.13      122.3     2.7854     7.2031
       6.13      122.3     2.7896     7.1782
       6.13      122.3     2.7985     6.7035
       6.13      122.3     2.9555     2.8808
       6.13      122.3     2.9576     3.0087
       6.13      122.3     2.9599     3.2314
       6.13      122.3     2.9618     3.0442
       6.13      122.3     2.9634     3.1717
       6.13      122.3     2.9657     3.2999
       6.13      122.3      2.968     4.3727
       6.13      122.3     2.9691     5.8853
       6.13      122.3     2.9717      5.132
       6.13      122.3     2.9736     4.4095
       6.13      122.3     2.9755     3.0258
       6.13      122.3     2.9781     2.7448
       6.13      122.3     2.9795     2.9666
       6.13      122.3     2.9846      2.877
       6.13      144.6     2.7098     4.1087
       6.13      144.6     2.7162     4.2759
       6.13      144.6     2.7215       4.51
       6.13      144.6     2.7297     5.3792
       6.13      144.6     2.7355     5.7804
       6.13      144.6     2.7408     6.6162
       6.13      144.6     2.7443     6.4826
       6.13      144.6     2.7472     7.1178
       6.13      144.6     2.7501     7.1846
       6.13      144.6     2.7519     7.6193
       6.13      144.6     2.7536     8.0539
       6.13      144.6     2.7583     8.3213
       6.13      144.6     2.7606      9.692
       6.13      144.6     2.7647     10.394
       6.13      144.6     2.7677     9.3912
       6.13      144.6       2.77     8.1209
       6.13      144.6     2.7729     7.5192
       6.13      144.6      2.777     7.2184
       6.13      144.6     2.7817     7.0513
       6.13      144.6      2.787     6.5833
       6.13      144.6     2.7911     6.1822
       6.13      144.6     2.9531     2.0305
       6.13      144.6     2.9559     2.2297
       6.13      144.6     2.9577     2.2297
       6.13      144.6     2.9596     2.2298
       6.13      144.6     2.9617     2.2661
       6.13      144.6     2.9636     2.1213
       6.13      144.6     2.9656     2.0852
       6.13      144.6     2.9677     2.7549
       6.13      144.6     2.9694     3.6235
       6.13      144.6     2.9715     4.0217
       6.13      144.6     2.9735     4.0037
       6.13      144.6     2.9756     3.2256
       6.13      144.6     2.9777     2.9542
       6.13      144.6     2.9791      2.719
       6.13      158.3     2.7091     3.4109
       6.13      158.3     2.7149     3.5982
       6.13      158.3     2.7201     4.0551
       6.13      158.3     2.7247     4.2422
       6.13      158.3       2.73     4.1597
       6.13      158.3      2.734     4.3675
       6.13      158.3     2.7351     5.0315
       6.13      158.3     2.7386     5.6128
       6.13      158.3     2.7433     5.1153
       6.13      158.3     2.7455     6.1528
       6.13      158.3     2.7484      6.402
       6.13      158.3     2.7507     6.7549
       6.13      158.3     2.7513     6.9417
       6.13      158.3     2.7559     7.3363
       6.13      158.3     2.7587     8.3739
       6.13      158.3     2.7616     8.5194
       6.13      158.3     2.7646     7.8558
       6.13      158.3     2.7676     6.4245
       6.13      158.3       2.77     5.8645
       6.13      158.3     2.7758     5.7821
       6.13      158.3     2.7787     5.5541
       6.13      158.3     2.7828      5.181
       6.13      158.3     2.7886     4.5799
       6.13      158.3     2.8003     4.3527
       6.13      158.3     2.9558     1.3533
       6.13      158.3     2.9577     1.3238
       6.13      158.3     2.9595     1.3142
       6.13      158.3     2.9614     1.2747
       6.13      158.3     2.9632     1.3246
       6.13      158.3     2.9653     1.2852
       6.13      158.3     2.9676     1.6327
       6.13      158.3     2.9694     2.2282
       6.13      158.3      2.971     2.9625
       6.13      158.3     2.9733     2.9826
       6.13      158.3      2.975     2.4471
       6.13      158.3     2.9769     2.0903
       6.13      158.3     2.9792      2.041
       6.13      158.3     2.9846      1.754
      6.917       66.8     2.7078     1.9591
      6.917       66.8     2.7149     1.9598
      6.917       66.8     2.7202     1.6776
      6.917       66.8     2.7243     1.7432
      6.917       66.8     2.7343     1.6789
      6.917       66.8     2.7408     1.8099
      6.917       66.8     2.7449     1.9407
      6.917       66.8     2.7472     1.9409
      6.917       66.8      2.749      2.115
      6.917       66.8     2.7525     2.0066
      6.917       66.8      2.756     2.1156
      6.917       66.8     2.7596     2.2681
      6.917       66.8     2.7619      2.377
      6.917       66.8     2.7648     2.3555
      6.917       66.8     2.7683     2.6167
      6.917       66.8     2.7707     2.7256
      6.917       66.8      2.773     2.9432
      6.917       66.8     2.7789     2.9437
      6.917       66.8     2.7836     3.0093
      6.917       66.8     2.7895     2.9664
      6.917       66.8     2.9551     6.2224
      6.917       66.8     2.9572     6.1058
      6.917       66.8     2.9594     5.9423
      6.917       66.8     2.9615     6.4837
      6.917       66.8     2.9631      6.978
      6.917       66.8     2.9657     6.9791
      6.917       66.8     2.9673     7.8964
      6.917       66.8     2.9695     6.9104
      6.917       66.8     2.9714     6.9112
      6.917       66.8     2.9738     6.5363
      6.917       66.8     2.9756     7.1716
      6.917       66.8     2.9777     8.2065
      6.917       66.8     2.9794     8.0663
      6.917       66.8     2.9815     7.0568
      6.917      94.65     2.7096     3.1283
      6.917      94.65     2.7132      3.264
      6.917      94.65     2.7196     2.8229
      6.917      94.65     2.7249     2.6871
      6.917      94.65      2.729     2.4157
      6.917      94.65     2.7343     2.6192
      6.917      94.65      2.739     2.5513
      6.917      94.65      2.742     2.5173
      6.917      94.65     2.7461      2.636
      6.917      94.65     2.7467     2.7378
      6.917      94.65     2.7502     2.8565
      6.917      94.65     2.7532     2.8056
      6.917      94.65     2.7561     2.8904
      6.917      94.65     2.7585     2.8225
      6.917      94.65      2.762       3.06
      6.917      94.65     2.7661     3.0939
      6.917      94.65     2.7679     3.1787
      6.917      94.65     2.7702     3.4331
      6.917      94.65     2.7738     3.2974
      6.917      94.65     2.7796     3.5687
      6.917      94.65     2.7838     3.3482
      6.917      94.65     2.7902      2.924
      6.917      94.65     2.7996     2.8731
      6.917      94.65     2.9559     2.9936
      6.917      94.65     2.9582     3.2149
      6.917      94.65       2.96     3.4793
      6.917      94.65     2.9619     3.6127
      6.917      94.65      2.964     3.8118
      6.917      94.65     2.9657     3.4643
      6.917      94.65     2.9678     3.9475
      6.917      94.65     2.9697     4.1463
      6.917      94.65     2.9721     3.6687
      6.917      94.65     2.9738     3.2993
      6.917      94.65     2.9758     2.7119
      6.917      94.65     2.9779     4.3529
      6.917      94.65     2.9799     3.8091
      6.917      94.65      2.985     4.2741
      6.917      122.3     2.7083     4.4113
      6.917      122.3     2.7136     4.2116
      6.917      122.3     2.7185       3.76
      6.917      122.3     2.7245      3.334
      6.917      122.3     2.7304     3.3356
      6.917      122.3      2.734     3.0347
      6.917      122.3     2.7382     3.0862
      6.917      122.3     2.7412     3.0115
      6.917      122.3     2.7459     3.2392
      6.917      122.3     2.7489     3.1394
      6.917      122.3     2.7501       3.19
      6.917      122.3     2.7548     3.2417
      6.917      122.3     2.7566     3.2925
      6.917      122.3     2.7601     3.5702
      6.917      122.3     2.7625     3.6463
      6.917      122.3     2.7649     3.6218
      6.917      122.3     2.7673     3.5721
      6.917      122.3     2.7715     3.4223
      6.917      122.3      2.775     3.4988
      6.917      122.3     2.7792     3.4496
      6.917      122.3     2.7864     3.3509
      6.917      122.3     2.7899     3.3016
      6.917      122.3     2.8007     2.9775
      6.917      122.3     2.9553     2.4945
      6.917      122.3     2.9575     2.5565
      6.917      122.3     2.9591     2.6488
      6.917      122.3     2.9615     2.7871
      6.917      122.3     2.9631     2.6351
      6.917      122.3     2.9654     3.6742
      6.917      122.3      2.967     3.6902
      6.917      122.3     2.9689       3.92
      6.917      122.3     2.9708     3.9207
      6.917      122.3      2.973     3.7384
      6.917      122.3     2.9751     3.5256
      6.917      122.3      2.977     3.6637
      6.917      122.3     2.9794     3.0235
      6.917      122.3     2.9845     3.8042
      6.917      144.6     2.7088       5.78
      6.917      144.6     2.7135     5.5236
      6.917      144.6     2.7187     4.4991
      6.917      144.6     2.7292     4.1462
      6.917      144.6     2.7345     3.6657
      6.917      144.6      2.738     3.8254
      6.917      144.6     2.7421      3.761
      6.917      144.6     2.7462     3.8886
      6.917      144.6     2.7497     3.9843
      6.917      144.6     2.7503     4.1443
      6.917      144.6     2.7538     3.9839
      6.917      144.6     2.7561     4.2077
      6.917      144.6     2.7602     4.4953
      6.917      144.6     2.7626     4.5271
      6.917      144.6     2.7661     4.3668
      6.917      144.6     2.7696     4.4305
      6.917      144.6     2.7713     4.3343
      6.917      144.6     2.7743     4.5261
      6.917      144.6      2.779     4.5256
      6.917      144.6     2.7848     4.6211
      6.917      144.6     2.7895     4.9087
      6.917      144.6      2.955     1.6961
      6.917      144.6     2.9574     1.7462
      6.917      144.6      2.959      1.821
      6.917      144.6     2.9609     1.9828
      6.917      144.6      2.963     2.0577
      6.917      144.6     2.9647     2.1822
      6.917      144.6      2.967      2.729
      6.917      144.6     2.9689     2.9653
      6.917      144.6     2.9708     3.0402
      6.917      144.6     2.9729     2.8543
      6.917      144.6     2.9746     2.7304
      6.917      144.6     2.9769     2.8674
      6.917      144.6     2.9793     2.9051
      6.917      144.6     2.9809     3.1165
      6.917      158.3     2.7126      4.901
      6.917      158.3      2.716     4.7769
      6.917      158.3     2.7213     4.2782
      6.917      158.3     2.7266     3.7796
      6.917      158.3     2.7312     3.6141
      6.917      158.3     2.7365     3.5321
      6.917      158.3     2.7417     3.3668
      6.917      158.3     2.7452     3.2843
      6.917      158.3     2.7475     3.5349
      6.917      158.3     2.7492     3.5353
      6.917      158.3     2.7521      3.786
      6.917      158.3     2.7562     3.7454
      6.917      158.3      2.758     3.4959
      6.917      158.3     2.7603     3.9547
      6.917      158.3     2.7632     3.8305
      6.917      158.3     2.7655     3.7061
      6.917      158.3     2.7696     3.7904
      6.917      158.3     2.7725     3.8745
      6.917      158.3     2.7771     4.2089
      6.917      158.3     2.7806     4.4181
      6.917      158.3     2.7858     4.3778
      6.917      158.3     2.7911     4.3374
      6.917      158.3     2.8004     4.5897
      6.917      158.3     2.9558     1.8841
      6.917      158.3     2.9579      1.945
      6.917      158.3     2.9601      1.996
      6.917      158.3      2.962     2.0368
      6.917      158.3     2.9643     2.1279
      6.917      158.3     2.9656     2.4187
      6.917      158.3     2.9679     2.9501
      6.917      158.3     2.9697     3.2211
      6.917      158.3     2.9718     3.3722
      6.917      158.3     2.9738     3.0427
      6.917      158.3     2.9757     2.9434
      6.917      158.3     2.9776     3.1043
      6.917      158.3     2.9795     3.1051
      6.917      158.3     2.9843     3.4374
      7.117       66.8     2.7119     1.6848
      7.117       66.8      2.716     1.5682
      7.117       66.8     2.7225     1.5234
      7.117       66.8     2.7266     1.5683
      7.117       66.8     2.7372     1.6221
      7.117       66.8     2.7443     1.6491
      7.117       66.8      2.746     1.7746
      7.117       66.8      2.749     1.7029
      7.117       66.8     2.7525     1.7478
      7.117       66.8     2.7543     1.8464
      7.117       66.8     2.7578     1.8464
      7.117       66.8     2.7607      1.972
      7.117       66.8     2.7631     1.9541
      7.117       66.8     2.7666     2.0259
      7.117       66.8      2.769     2.1066
      7.117       66.8     2.7719     2.1156
      7.117       66.8      2.776     2.1335
      7.117       66.8     2.7807     2.1425
      7.117       66.8     2.7854     2.2591
      7.117       66.8     2.7913     2.3488
      7.117       66.8     2.9579     3.5834
      7.117       66.8     2.9598     3.8189
      7.117       66.8     2.9619     3.8975
      7.117       66.8     2.9636     4.0349
      7.117       66.8     2.9655     4.1332
      7.117       66.8     2.9677     4.2118
      7.117       66.8     2.9698      4.663
      7.117       66.8      2.972     4.6436
      7.117       66.8     2.9737     4.4477
      7.117       66.8     2.9756     3.7814
      7.117       66.8     2.9775     4.0365
      7.117       66.8     2.9794     4.1151
      7.117       66.8     2.9816     4.0369
      7.117       66.8     2.9871      4.508
      7.117      94.65     2.7109     4.1841
      7.117      94.65     2.7168     4.2536
      7.117      94.65     2.7209     4.1477
      7.117      94.65     2.7274     3.9009
      7.117      94.65     2.7315     3.8301
      7.117      94.65     2.7362     4.0404
      7.117      94.65     2.7409     4.0398
      7.117      94.65     2.7427     3.7584
      7.117      94.65     2.7468     4.1094
      7.117      94.65     2.7509     3.7926
      7.117      94.65     2.7533     4.1086
      7.117      94.65      2.755     3.8623
      7.117      94.65     2.7586     3.8619
      7.117      94.65     2.7621     4.2129
      7.117      94.65     2.7651     4.3531
      7.117      94.65     2.7674     4.2123
      7.117      94.65     2.7709     4.3173
      7.117      94.65     2.7733     3.8601
      7.117      94.65     2.7762     4.1057
      7.117      94.65     2.7821     3.4021
      7.117      94.65     2.7862     3.1908
      7.117      94.65     2.7915     3.5416
      7.117      94.65     2.9563     2.2475
      7.117      94.65     2.9582      2.271
      7.117      94.65     2.9603     2.4295
      7.117      94.65      2.962     2.1834
      7.117      94.65     2.9637     2.2517
      7.117      94.65     2.9659     1.9834
      7.117      94.65     2.9685      2.569
      7.117      94.65     2.9705     3.9183
      7.117      94.65     2.9724     4.2339
      7.117      94.65     2.9746     4.1453
      7.117      94.65     2.9766     3.5622
      7.117      94.65     2.9788     2.7322
      7.117      94.65     2.9807     3.0703
      7.117      94.65     2.9857     2.7362
      7.117      122.3     2.7103     7.2175
      7.117      122.3     2.7156      8.679
      7.117      122.3      2.721     8.3268
      7.117      122.3     2.7252     8.0626
      7.117      122.3     2.7305     8.6836
      7.117      122.3     2.7352     8.4196
      7.117      122.3     2.7412     8.9966
      7.117      122.3     2.7436     8.7319
      7.117      122.3     2.7465     9.0424
      7.117      122.3     2.7495     8.7779
      7.117      122.3     2.7531     9.0002
      7.117      122.3     2.7549     8.6469
      7.117      122.3     2.7579     8.4266
      7.117      122.3     2.7602     8.8255
      7.117      122.3     2.7638     8.4727
      7.117      122.3     2.7698     8.1648
      7.117      122.3     2.7721     8.1656
      7.117      122.3     2.7757     8.2109
      7.117      122.3     2.7805     8.1681
      7.117      122.3     2.7864     7.9488
      7.117      122.3     2.7894     7.8612
      7.117      122.3     2.8008     7.2896
      7.117      122.3     2.9565     5.4825
      7.117      122.3     2.9584     5.4205
      7.117      122.3     2.9603      5.518
      7.117      122.3     2.9622     5.4879
      7.117      122.3     2.9648     5.2352
      7.117      122.3     2.9667     5.5559
      7.117      122.3     2.9689      6.419
      7.117      122.3      2.971     6.6761
      7.117      122.3     2.9727     6.6458
      7.117      122.3     2.9744     6.0095
      7.117      122.3     2.9766     5.5331
      7.117      122.3      2.979     5.3121
      7.117      122.3     2.9804     5.1539
      7.117      122.3     2.9859     4.9358
      7.117      144.6     2.7094     13.593
      7.117      144.6     2.7141     14.781
      7.117      144.6     2.7193     15.021
      7.117      144.6     2.7298     16.134
      7.117      144.6      2.735      16.69
      7.117      144.6     2.7397       17.8
      7.117      144.6     2.7432     17.486
      7.117      144.6     2.7461     18.831
      7.117      144.6     2.7484     18.279
      7.117      144.6     2.7502     19.228
      7.117      144.6     2.7531     18.993
      7.117      144.6     2.7566     18.047
      7.117      144.6     2.7584     17.257
      7.117      144.6     2.7619      17.18
      7.117      144.6     2.7648     17.419
      7.117      144.6     2.7678     17.579
      7.117      144.6     2.7707     18.134
      7.117      144.6     2.7753     19.006
      7.117      144.6     2.7789     17.981
      7.117      144.6     2.7841     18.932
      7.117      144.6       2.79     17.908
      7.117      144.6      2.956     9.4613
      7.117      144.6     2.9581     10.283
      7.117      144.6     2.9598     10.922
      7.117      144.6     2.9619     13.829
      7.117      144.6     2.9638     13.109
      7.117      144.6     2.9657     14.927
      7.117      144.6     2.9675     20.734
      7.117      144.6     2.9694     20.649
      7.117      144.6      2.972     14.219
      7.117      144.6     2.9747      7.608
      7.117      144.6     2.9759     6.3421
      7.117      144.6     2.9783     5.9859
      7.117      144.6     2.9803     5.5378
      7.117      144.6      2.986     4.9188
      7.117      158.3     2.7106     13.355
      7.117      158.3     2.7158     14.695
      7.117      158.3     2.7204     15.367
      7.117      158.3     2.7251     16.261
      7.117      158.3     2.7297       17.6
      7.117      158.3     2.7355     18.384
      7.117      158.3     2.7407     18.835
      7.117      158.3     2.7442      18.95
      7.117      158.3     2.7459     19.507
      7.117      158.3     2.7499     19.846
      7.117      158.3     2.7517     19.514
      7.117      158.3     2.7546     20.295
      7.117      158.3     2.7575     18.966
      7.117      158.3     2.7598     19.191
      7.117      158.3     2.7622     18.416
      7.117      158.3     2.7663     17.865
      7.117      158.3     2.7692     18.201
      7.117      158.3     2.7715     18.982
      7.117      158.3     2.7756      18.32
      7.117      158.3     2.7814     18.993
      7.117      158.3     2.7854     20.109
      7.117      158.3     2.7906      19.56
      7.117      158.3        2.8     19.126
      7.117      158.3     2.9558     9.6254
      7.117      158.3      2.958     9.6688
      7.117      158.3     2.9604     9.8765
      7.117      158.3     2.9623     9.7148
      7.117      158.3     2.9644     10.332
      7.117      158.3      2.966     11.154
      7.117      158.3     2.9683     15.296
      7.117      158.3     2.9705     13.331
      7.117      158.3     2.9723     10.956
      7.117      158.3     2.9743     8.1714
      7.117      158.3     2.9765     6.8625
      7.117      158.3     2.9784     7.0286
      7.117      158.3     2.9806     7.0311
      7.117      158.3     2.9856      6.955
ENDDATA            863
ENDSUBENT          876
SUBENT        F0982005   20090127   20090508   20090508       F035
BIB                  3          4
REACTION   (9-F-19(P,INL)9-F-19,PAR,DA)
ERR-ANALYS (ANG-ERR-D) Angle digitizing error
           (DATA-ERR)  Error from the graphic bars
STATUS     (CURVE) Fig.10,11
ENDBIB               4
COMMON               2          3
ANG-ERR-D  ERR-DIG
ADEG       MB/SR
 0.609      0.051
ENDCOMMON            3
DATA                 5         47
EN         E-LVL      ANG-CM     DATA-CM    DATA-ERR
MEV        MEV        ADEG       MB/SR      MB/SR
      2.763      1.346     25.512     5.7423     0.6035
      2.763      1.346     43.426     5.9116     0.5748
      2.763      1.346     57.968     4.5584     0.5172
      2.763      1.346     65.069     5.2468     0.6034
      2.763      1.346     82.462     4.3817     0.5172
      2.763      1.346     87.187     4.6394     0.4886
      2.763      1.346     101.81     5.0392     0.4885
      2.763      1.346     110.31     5.2963     0.5459
      2.763      1.346     115.97     5.3815     0.4885
      2.763      1.346     119.28     5.6683     0.5461
      2.763      1.346     138.62     6.2395     0.4884
      2.763      1.346     153.27     7.0128     0.5747
      2.763      1.459     46.408     13.419     0.8742
      2.763      1.459     58.632     14.073     0.7105
      2.763      1.459     64.258     12.488     0.6011
      2.763      1.459     82.585     12.267     0.7104
      2.763      1.459     87.751     11.775     0.7649
      2.763      1.459     101.84     10.954      0.765
      2.763      1.459     111.73     13.138     0.9835
      2.763      1.459     115.95     11.662     0.5464
      2.763      1.459     120.17     11.006     0.7103
      2.763      1.459     138.04     12.206     0.8743
      2.763      1.459     153.56     13.133     0.8742
      2.972      1.346     45.957     2.3896     0.4545
      2.972      1.346     58.555     2.0405     0.3283
      2.972      1.346     62.717     2.2439     0.2525
      2.972      1.346     82.634     2.9327     0.2781
      2.972      1.346     86.757     3.4644     0.4294
      2.972      1.346     100.15     4.2771     0.4289
      2.972      1.346     110.28      5.114     0.4798
      2.972      1.346     114.94     5.0651     0.4547
      2.972      1.346     119.53     5.5212     0.5808
      2.972      1.346     136.21     6.1331     0.4796
      2.972      1.346     152.38     7.0225     0.5806
      2.972      1.346      158.4     7.2519     0.5555
      2.972      1.459     45.296     4.6038     0.4746
      2.972      1.459     59.638     5.5296     0.6017
      2.972      1.459     63.893     5.0573     0.5696
      2.972      1.459     82.551     5.0046     0.5063
      2.972      1.459     87.649     5.2606     0.5379
      2.972      1.459     100.26     5.1096     0.5695
      2.972      1.459     110.09     4.7987     0.5063
      2.972      1.459     115.24     4.6434     0.4746
      2.972      1.459      118.8     5.9744     0.5695
      2.972      1.459     135.79     4.3386     0.5057
      2.972      1.459     152.15     4.0314      0.443
      2.972      1.459     159.61     4.0356     0.4746
ENDDATA             49
ENDSUBENT           62
SUBENT        F0982006   20090127   20090508   20090508       F035
BIB                  3          4
REACTION   (9-F-19(P,A)8-O-16,PAR,DA)
ERR-ANALYS (ANG-ERR-D) Angle digitizing error
           (DATA-ERR)  Error from the graphic bars
STATUS     (CURVE) Fig.10,11
ENDBIB               4
COMMON               2          3
ANG-ERR-D  ERR-DIG
ADEG       MB/SR
 0.165      0.062
ENDCOMMON            3
DATA                 5         60
EN         E-LVL      ANG-CM     DATA-CM    DATA-ERR
MEV        MEV        ADEG       MB/SR      MB/SR
      2.763       6.13     22.214     7.9726     0.7692
      2.763       6.13     25.065      5.708     0.4701
      2.763       6.13     30.239     5.4095     0.5128
      2.763       6.13      39.62     6.7353     0.6838
      2.763       6.13     45.719     7.5052     0.8119
      2.763       6.13     60.707     11.225     0.8974
      2.763       6.13     65.849     13.277     0.9829
      2.763       6.13     74.737     16.269     1.3247
      2.763       6.13     89.774     16.442     1.0257
      2.763       6.13     103.91     13.751     1.0684
      2.763       6.13     111.87     15.931     1.0257
      2.763       6.13     116.13     13.838     0.8974
      2.763       6.13     120.37     13.026     0.7692
      2.763       6.13     138.72     11.618     0.7693
      2.763       6.13     152.34     12.133     0.7692
      2.763      7.117     22.165     11.519     1.0532
      2.763      7.117     24.909     14.593     1.4923
      2.763      7.117     30.491     11.785     0.8781
      2.763      7.117     38.361     11.525     0.8779
      2.763      7.117     47.649     8.2802     1.0535
      2.763      7.117      62.01     6.7053     0.8779
      2.763      7.117     66.649     5.5657     0.7022
      2.763      7.117     85.165     4.8703       0.79
      2.763      7.117     90.703     6.2771     0.7024
      2.763      7.117     104.09     9.5306     0.8779
      2.763      7.117     111.94      10.85       0.79
      2.763      7.117     116.56     11.467     0.8779
      2.763      7.117     121.65      11.82     0.7902
      2.763      7.117     136.85     18.235     1.2289
      2.763      7.117     150.68     23.156     1.4923
      2.972       6.13     26.285     3.5834     0.5128
      2.972       6.13     31.868     4.5724     0.5861
      2.972       6.13     40.708     6.3672     0.8058
      2.972       6.13      48.15     6.7334     0.6224
      2.972       6.13     62.569     7.5758     0.6237
      2.972       6.13     68.151     8.0885     0.6227
      2.972       6.13     85.361     8.6745      0.696
      2.972       6.13     90.942     8.6378     0.6227
      2.972       6.13     105.36     7.7219      0.696
      2.972       6.13     113.73      7.905     0.7326
      2.972       6.13     118.38      7.209     0.7692
      2.972       6.13     123.03     5.9635     0.6213
      2.972       6.13     138.84     4.8645     0.6227
      2.972       6.13     153.73      3.912     0.4395
      2.972       6.13     161.17      4.205     0.6227
      2.972      7.117     24.957     10.514      1.117
      2.972      7.117     31.365     5.6973     0.7067
      2.972      7.117     38.902     5.4106     0.7646
      2.972      7.117     47.995     2.7725     0.5298
      2.972      7.117     62.563     2.7867     0.5881
      2.972      7.117     67.688     3.4975     0.5886
      2.972      7.117     86.348     5.7507     0.8243
      2.972      7.117     89.415     9.3416     1.1763
      2.972      7.117     103.94     10.003     1.2935
      2.972      7.117     113.27     11.188     0.9406
      2.972      7.117      117.5     11.133     0.9415
      2.972      7.117     121.72     11.373     1.1179
      2.972      7.117     138.45      14.33     0.9999
      2.972      7.117      152.9     23.873     1.4699
      2.972      7.117     159.44     24.585     1.3528
ENDDATA             62
ENDSUBENT           75
SUBENT        F0982007   20090127   20090508   20090508       F035
BIB                  3          4
REACTION   (9-F-19(P,EL)9-F-19,,DA,,RTH)
ERR-ANALYS (ANG-ERR-D) Angle digitizing error
           (DATA-ERR)  Error from the graphic bars
STATUS     (CURVE) Fig.10,11
ENDBIB               4
COMMON               2          3
ANG-ERR-D  ERR-DIG
ADEG       ARB-UNITS
 0.468      0.006
ENDCOMMON            3
DATA                 4         37
EN         ANG-CM     DATA-CM    DATA-ERR
MEV        ADEG       ARB-UNITS  ARB-UNITS
      2.763     22.177     1.0064   9.41E-02
      2.763     24.952     1.0205   8.47E-02
      2.763     30.982     0.8889   5.17E-02
      2.763     38.385     0.8937   8.47E-02
      2.763     46.245     0.9502   8.94E-02
      2.763     59.646     1.1056   7.53E-02
      2.763     64.272     1.1197   6.11E-02
      2.763     67.518     1.0539   8.47E-02
      2.763     82.773     1.1905   8.00E-02
      2.763     87.878     1.0495   9.41E-02
      2.763     97.589      1.106     0.1129
      2.763     100.82     1.1954     0.1317
      2.763      110.5     1.5577      0.127
      2.763     121.15     1.4732     0.1881
      2.763     123.45     1.5343     0.1928
      2.763     136.84     1.8637     0.1881
      2.763     149.25     2.5882     0.1976
      2.763     151.96      3.148     0.2211
      2.763     158.46     2.9693     0.2164
      2.763     161.72      2.833     0.2352
      2.972     24.965     1.0453   6.11E-02
      2.972     30.258     0.9235   7.06E-02
      2.972     38.272     0.9195   7.01E-02
      2.972     47.145     1.0097   7.03E-02
      2.972     60.628      1.213   7.05E-02
      2.972     64.839     1.2463     0.1034
      2.972     68.205     1.1714   4.70E-02
      2.972     84.516      1.375   6.58E-02
      2.972      89.16     1.4506   5.65E-02
      2.972     102.73       1.56   7.06E-02
      2.972     112.32     1.8993     0.1229
      2.972     117.03     1.9044     0.1223
      2.972     125.53     1.8864     0.1034
      2.972     138.64     1.9769     0.1693
      2.972     149.77       2.18     0.2068
      2.972     152.32     1.9593     0.1786
      2.972      158.5      1.894     0.1646
ENDDATA             39
ENDSUBENT           52
ENDENTRY             7
