ENTRY            F0993   20091119   20100128   20100127       F037
SUBENT        F0993001   20091119   20100128   20100127       F037
BIB                 13         27
TITLE      Excitation function for the reaction 13C(a,ng)16O.
AUTHOR     (R.H.Spear,J.D.Larson,J.D.Pearson)
INSTITUTE  (1USACAL)
REFERENCE  (J,NP,41,353,1963)
           #doi:10.1016/0029-5582(63)90514-5
FACILITY   (VDGT) ONR tandem accelerator.
INC-SOURCE Currents were generally of the order of 0.1 mu-A.
INC-SPECT  The energy spread of the beam was about two or three
           keV.
DETECTOR   (NAICR) Gamma rays were detected using a 10.2 cm*10.2
           cm NaI(Tl) crystal mounted on a 12.7 cm CBS 7819
           photomultiplier.
PART-DET   (G)
METHOD     (GSPEC)
           (PHD)
SAMPLE     The 13C target was prepared by radio-frequency heating
           of a disc of 0.045 cm tantalum in an atmosphere of
           methyl iodide in which the carbon was enriched to 54.0%
           by weight of 13C. The target thickness was determined
           using the narrow resonance in the 13C(p,g)14N reaction
           at 448 keV. The result obtained for the thickness was
           13.5 mu-g/cm2, accurate to about 5%; this corresponds
           to approximately 10 keV for 5.5 MeV alphas and 7 keV
           for 9.4 MeV alphas.
ERR-ANALYS (EN-ERR-DIG) Energy digitizing error
           (ERR-DIG)    Data digitizing error
HISTORY    (20091119C)
ENDBIB              27
NOCOMMON             0          0
ENDSUBENT           30
SUBENT        F0993002   20091119   20100128   20100127       F037
BIB                  4          8
REACTION   (6-C-13(A,N)8-O-16,PAR,DA,,REL)
COMMENT    An excitation function was obtained by summing, for
           each spectrum, the number of pulses in channels
           corresponding to energies from 4.98 to 7.79 MeV;
           this "window" includes 6.13, 6.92 and 7.12 MeV
           radiation.
ERR-ANALYS (DATA-ERR)   Error from the graphic bars
STATUS     (CURVE) Fig.3
ENDBIB               8
COMMON               5          3
E-LVL      E-LVL      E-LVL      EN-ERR-DIG ERR-DIG
MEV        MEV        MEV        MEV        ARB-UNITS
 6.13       6.92       7.12       0.003      13.447
ENDCOMMON            3
DATA                 4        809
ANG        EN         DATA       DATA-ERR
ADEG       MEV        ARB-UNITS  ARB-UNITS
         0.     4.9939 1.6465E+03
         0.     5.0023 1.5633E+03
         0.     5.0135 1.3689E+03
         0.     5.0248 1.2856E+03
         0.     5.0276 1.4245E+03
         0.     5.0332 1.5633E+03
         0.     5.0416 1.5633E+03
         0.     5.0444   1.48E+03
         0.     5.0528 1.3412E+03
         0.     5.0613 1.2024E+03
         0.     5.0725 1.1191E+03
         0.     5.0837 1.0358E+03
         0.     5.1006 1.0358E+03
         0.     5.1118 1.0081E+03
         0.     5.1203 1.1746E+03
         0.     5.1287 1.2302E+03
         0.     5.1399 1.3412E+03
         0.     5.1483 1.5356E+03
         0.     5.1596 1.5356E+03
         0.     5.1708 1.6744E+03
         0.     5.1764 1.7854E+03
         0.     5.1877 1.8409E+03
         0.     5.2017  1.841E+03
         0.     5.2045 1.9242E+03
         0.     5.2185 1.8965E+03
         0.     5.2298  1.952E+03
         0.     5.2354 2.0631E+03
         0.     5.2494 1.9798E+03
         0.     5.2579  1.952E+03
         0.     5.2719 1.9243E+03
         0.     5.2775 2.0631E+03
         0.     5.2888 2.1186E+03
         0.     5.2916 2.2019E+03
         0.     5.2972 2.3962E+03
         0.     5.2972 2.2574E+03
         0.     5.3084 3.7566E+03
         0.     5.3168 6.4495E+03
         0.     5.3281 7.1991E+03
         0.     5.3393 4.0064E+03
         0.     5.3477 3.1736E+03
         0.     5.3505 2.8682E+03
         0.     5.3534 2.9237E+03
         0.     5.3618 2.8682E+03
         0.     5.3758  2.896E+03
         0.     5.3814 2.9515E+03
         0.     5.3842 3.0903E+03
         0.     5.3955 3.1736E+03
         0.     5.4067 3.2847E+03
         0.     5.4151 3.5068E+03
         0.     5.4236 3.6456E+03
         0.     5.4376 3.7844E+03
         0.     5.4488 3.6733E+03
         0.     5.4573 3.6456E+03
         0.     5.4769 3.7289E+03
         0.     5.4966 4.7838E+03
         0.     5.5078 5.0337E+03
         0.     5.5134 4.7283E+03
         0.     5.5303 3.7289E+03
         0.     5.5359 3.1737E+03
         0.     5.5443 2.7572E+03
         0.      5.564  2.202E+03
         0.     5.5837 2.0632E+03
         0.     5.5921 1.8689E+03
         0.     5.6061 1.8411E+03
         0.     5.6174 1.8689E+03
         0.     5.6314 1.8966E+03
         0.     5.6426 1.9799E+03
         0.     5.6511 2.2298E+03
         0.     5.6679 2.3964E+03
         0.     5.6735 2.6185E+03
         0.     5.6904 3.2292E+03
         0.     5.7016 3.8122E+03
         0.     5.7128 4.5618E+03
         0.     5.7241 5.5057E+03
         0.     5.7325 6.1998E+03
         0.     5.7381 6.5607E+03
         0.     5.7437 7.4768E+03
         0.     5.7493 8.0043E+03
         0.     5.7521 8.7539E+03
         0.     5.7634   9.67E+03
         0.     5.7718  1.042E+04
         0.      5.783 1.0198E+04
         0.     5.7943 1.0003E+04
         0.     5.7999 9.6978E+03
         0.     5.8111  9.087E+03
         0.     5.8224 8.5318E+03
         0.     5.8336  8.282E+03
         0.      5.842 7.8378E+03     83.286
         0.     5.8504 7.5324E+03
         0.     5.8617 7.4491E+03
         0.     5.8701  7.227E+03
         0.     5.8785  7.116E+03
         0.     5.8898 7.0882E+03
         0.      5.901 7.1993E+03
         0.     5.9122 7.4214E+03
         0.     5.9207 7.6435E+03
         0.     5.9291 8.1432E+03
         0.     5.9347 8.6151E+03
         0.     5.9459 9.6979E+03
         0.       5.96 9.1426E+03
         0.      5.974  7.005E+03
         0.     5.9768 6.1166E+03
         0.     5.9965 4.8951E+03
         0.     6.0077 4.3954E+03
         0.     6.0246 4.1455E+03
         0.     6.0358 4.3954E+03
         0.      6.047 4.7285E+03
         0.     6.0555 5.5614E+03
         0.     6.0611 7.1438E+03
         0.     6.0779 9.5036E+03
         0.     6.0835 1.3029E+04
         0.     6.0863 1.5583E+04
         0.     6.0863 1.1447E+04
         0.     6.0891 1.7971E+04
         0.      6.106 2.2663E+04
         0.       6.12  2.158E+04
         0.     6.1341  1.525E+04
         0.     6.1453 1.2863E+04
         0.     6.1537 1.1364E+04
         0.      6.165 1.0336E+04
         0.     6.1734 9.6702E+03
         0.     6.1846 8.8651E+03
         0.     6.1931 8.3654E+03
         0.     6.1959 8.5875E+03
         0.     6.2099  8.643E+03
         0.      6.224 8.4487E+03
         0.      6.238  9.226E+03
         0.      6.252 9.9478E+03
         0.     6.2633 1.0392E+04
         0.     6.2829 1.0781E+04
         0.     6.3054 1.2113E+04
         0.     6.3138 1.2863E+04
         0.     6.3222 1.3474E+04
         0.     6.3307 1.4445E+04
         0.     6.3419 1.5056E+04
         0.     6.3503  1.575E+04
         0.     6.3644 1.6389E+04
         0.      6.384 1.5611E+04
         0.     6.3925 1.4917E+04
         0.     6.3981  1.439E+04
         0.     6.4121 1.3335E+04
         0.     6.4262 1.2918E+04
         0.      6.443 1.2474E+04
         0.     6.4542 1.2308E+04
         0.     6.4627 1.2169E+04
         0.     6.4739 1.2558E+04
         0.     6.4823  1.228E+04
         0.     6.5048  1.253E+04     166.57
         0.     6.5132 1.2558E+04
         0.     6.5217 1.2613E+04
         0.     6.5329  1.228E+04
         0.     6.5441  1.228E+04
         0.     6.5554 1.2308E+04
         0.     6.5666 1.2197E+04
         0.     6.5694 1.2447E+04
         0.     6.5947 1.2335E+04
         0.     6.6031 1.2447E+04
         0.     6.6143 1.2585E+04
         0.     6.6143 1.2724E+04
         0.     6.6256 1.2669E+04
         0.      6.634  1.303E+04
         0.     6.6452 1.3057E+04
         0.     6.6565 1.3168E+04
         0.     6.6649 1.3307E+04
         0.     6.6874 1.3585E+04
         0.     6.6986 1.3835E+04
         0.     6.7042 1.4085E+04
         0.     6.7182 1.4279E+04
         0.      6.721 1.4584E+04
         0.     6.7295 1.4751E+04
         0.     6.7351 1.5112E+04
         0.     6.7407   1.55E+04
         0.     6.7547 1.5778E+04
         0.     6.7604 1.6111E+04
         0.     6.7744 1.6861E+04
         0.       6.78 1.7305E+04
         0.     6.8053 1.9221E+04
         0.     6.8249 2.1553E+04
         0.     6.8334 2.2413E+04
         0.     6.8586 2.5856E+04
         0.     6.8811 2.7272E+04
         0.     6.8979 2.5578E+04
         0.     6.9176 2.2191E+04
         0.     6.9345 1.9915E+04
         0.     6.9457 1.8998E+04
         0.     6.9485 1.8499E+04
         0.     6.9569 1.8804E+04
         0.     6.9626 1.8193E+04
         0.     6.9654 1.8499E+04
         0.     6.9738 1.8443E+04
         0.      6.985  1.836E+04
         0.     6.9963 1.8527E+04     138.81
         0.     7.0159 1.8082E+04
         0.     7.0272 1.8304E+04
         0.     7.0384 1.9026E+04
         0.     7.0468 1.9498E+04
         0.     7.0581 1.9804E+04
         0.     7.0693 1.8471E+04
         0.     7.0777 1.7805E+04
         0.     7.0862 1.5639E+04
         0.     7.0946 1.4751E+04
         0.     7.1058 1.4335E+04
         0.     7.1199  1.439E+04
         0.     7.1227 1.5251E+04
         0.     7.1367 1.9304E+04
         0.     7.1479 1.5639E+04
         0.     7.1592 1.3391E+04
         0.     7.1704 1.2669E+04
         0.      7.176 1.2252E+04
         0.     7.1873 1.2086E+04
         0.     7.2069 1.1392E+04
         0.     7.2154 1.1253E+04
         0.     7.2154 1.1475E+04
         0.     7.2238 1.1142E+04
         0.     7.2322 1.0948E+04
         0.     7.2434 1.0809E+04
         0.     7.2463 1.0698E+04
         0.     7.2659 1.0781E+04
         0.     7.2771 1.0892E+04
         0.     7.2856 1.1003E+04
         0.      7.294 1.1086E+04
         0.     7.3052  1.142E+04
         0.     7.3137 1.1753E+04
         0.     7.3333 1.3224E+04
         0.     7.3417 1.4001E+04
         0.      7.353 1.4113E+04
         0.      7.367 1.4279E+04
         0.     7.3726 1.5001E+04
         0.     7.3839 1.5334E+04
         0.     7.3923 1.4973E+04
         0.     7.4007 1.4668E+04
         0.     7.4119 1.4696E+04
         0.     7.4232 1.5029E+04
         0.     7.4316 1.5223E+04
         0.       7.44 1.5723E+04
         0.     7.4484 1.6195E+04
         0.     7.4625 1.6667E+04
         0.     7.4709 1.7166E+04
         0.     7.4709 1.7028E+04
         0.     7.4793 1.7277E+04
         0.      7.485 1.7694E+04
         0.     7.5102 1.8083E+04
         0.     7.5215 1.7972E+04
         0.     7.5299 1.7916E+04     166.57
         0.     7.5411 1.7638E+04
         0.     7.5495 1.7944E+04
         0.      7.558 1.7777E+04
         0.      7.572  1.725E+04
         0.     7.5889 1.6861E+04
         0.     7.5945  1.675E+04
         0.     7.5973 1.6583E+04
         0.     7.6085 1.6223E+04
         0.      7.617 1.6583E+04
         0.     7.6254 1.6833E+04
         0.     7.6394 1.7749E+04
         0.     7.6478 1.8582E+04
         0.     7.6591 2.1719E+04
         0.     7.6703 2.3718E+04
         0.     7.6787 2.5856E+04
         0.     7.6927 2.7994E+04
         0.     7.7012  2.841E+04
         0.     7.7096 3.0714E+04
         0.     7.7208 3.1658E+04
         0.      7.732  3.188E+04
         0.     7.7461 3.1964E+04
         0.     7.7601 3.0104E+04
         0.     7.7798 2.8188E+04
         0.     7.7882 2.7411E+04
         0.     7.7995 2.7078E+04
         0.     7.8107   2.68E+04
         0.     7.8191 2.6106E+04
         0.     7.8276 2.6272E+04
         0.     7.8332 2.6411E+04
         0.     7.8416 2.7216E+04
         0.     7.8528 2.7383E+04
         0.     7.8669 2.7522E+04
         0.     7.8725 2.8077E+04
         0.     7.8865 2.8133E+04
         0.     7.8921 2.7827E+04     194.33
         0.     7.9118 2.8716E+04
         0.      7.923 2.9993E+04
         0.     7.9371 2.9715E+04
         0.     7.9427 2.6967E+04
         0.     7.9511 2.4218E+04
         0.     7.9624  2.258E+04
         0.      7.968 2.1831E+04
         0.     7.9792 2.0637E+04
         0.     7.9905 1.9221E+04
         0.     8.0017 1.8222E+04
         0.     8.0073 1.7361E+04
         0.     8.0242 1.6833E+04
         0.     8.0326 1.6722E+04
         0.     8.0495 1.6667E+04
         0.     8.0607 1.6611E+04
         0.     8.0719 1.6389E+04
         0.     8.0776 1.6695E+04
         0.     8.0832 1.6722E+04
         0.     8.1028 1.7278E+04
         0.     8.1112 1.8555E+04
         0.     8.1253 2.0165E+04
         0.     8.1309 2.1498E+04
         0.     8.1421 2.2386E+04
         0.     8.1534  2.333E+04
         0.      8.173 2.2441E+04
         0.     8.1843 2.1886E+04
         0.     8.1927 2.1081E+04
         0.     8.2039 2.0276E+04     194.33
         0.      8.232 2.0415E+04
         0.     8.2404 2.0609E+04
         0.     8.2517 2.1137E+04
         0.     8.2657 2.0804E+04
         0.     8.2713 2.0193E+04
         0.     8.2854 2.0054E+04
         0.      8.291  1.936E+04
         0.     8.3022  1.886E+04
         0.     8.3135 1.8749E+04
         0.     8.3303 1.8305E+04
         0.     8.3444 1.8222E+04
         0.     8.3528  1.836E+04
         0.      8.364 1.8249E+04
         0.     8.3752 1.8166E+04
         0.     8.3865 1.9138E+04
         0.     8.3949 1.9804E+04
         0.     8.4061 2.0304E+04
         0.     8.4117 2.1192E+04
         0.      8.423 2.2108E+04
         0.     8.4342 2.1886E+04
         0.     8.4398 2.2691E+04
         0.     8.4539 2.3052E+04
         0.     8.4651 2.3219E+04
         0.     8.4848 2.3302E+04
         0.     8.4932 2.3552E+04
         0.     8.4988 2.3719E+04
         0.     8.5072 2.4218E+04
         0.     8.5128  2.469E+04
         0.     8.5297 2.5523E+04
         0.     8.5465 2.5662E+04
         0.      8.555 2.6051E+04
         0.     8.5634 2.6356E+04
         0.     8.5718 2.6745E+04
         0.     8.5859 2.7078E+04
         0.     8.5971 2.7466E+04
         0.     8.6111 2.7605E+04
         0.     8.6167 2.7189E+04
         0.     8.6252   2.68E+04
         0.     8.6364 2.6689E+04
         0.     8.6448 2.5912E+04
         0.     8.6561  2.494E+04
         0.     8.6589 2.4024E+04
         0.     8.6785 2.4024E+04
         0.     8.6842 2.3108E+04
         0.     8.6898 2.2331E+04
         0.     8.7066 2.2469E+04
         0.     8.7179 2.2719E+04
         0.     8.7235  2.222E+04
         0.     8.7347  2.197E+04     166.57
         0.     8.7375 2.1553E+04
         0.     8.7488 2.1387E+04
         0.       8.76 2.0859E+04
         0.     8.7712 2.1526E+04
         0.     8.7853 2.4829E+04
         0.     8.7937 2.4413E+04
         0.     8.8021 2.1581E+04
         0.     8.8106 2.0693E+04
         0.      8.819 1.9665E+04
         0.     8.8302 1.9471E+04
         0.     8.8415 1.8971E+04
         0.     8.8527 1.8833E+04
         0.     8.8611 1.8611E+04
         0.     8.8695   1.85E+04
         0.      8.878 1.8111E+04
         0.     8.8864  1.775E+04
         0.     8.9004 1.7445E+04
         0.     8.9089 1.7028E+04
         0.     8.9201 1.6834E+04
         0.     8.9257 1.6445E+04
         0.     8.9398 1.5945E+04
         0.      8.951 1.5307E+04
         0.     8.9622 1.5029E+04
         0.     8.9707 1.4502E+04
         0.     8.9791 1.4252E+04
         0.     8.9903 1.3947E+04
         0.     8.9988 1.3502E+04
         0.       9.01 1.2975E+04
         0.      9.024 1.2975E+04
         0.     9.0297 1.2753E+04
         0.     9.0437 1.2614E+04
         0.     9.0493 1.2003E+04
         0.     9.0605 1.2031E+04
         0.     9.0746 1.2059E+04
         0.      9.083 1.1976E+04
         0.     9.0971 1.2031E+04
         0.     9.1055 1.2114E+04
         0.     9.1111 1.2559E+04
         0.     9.1364 1.2559E+04
         0.      9.142 1.2836E+04
         0.      9.156 1.3419E+04
         0.     9.1701 1.3836E+04
         0.     9.1813 1.4419E+04
         0.     9.1925 1.5002E+04
         0.      9.201 1.5779E+04
         0.     9.2122 1.5946E+04
         0.     9.2206 1.6695E+04
         0.      9.229 1.7195E+04
         0.     9.2403 1.7722E+04
         0.     9.2571   1.85E+04
         0.     9.2655 1.9249E+04
         0.      9.274 2.0387E+04
         0.     9.2824 2.1387E+04
         0.     9.2936 2.3053E+04
         0.     9.2936 2.2109E+04
         0.     9.3048 2.3552E+04
         0.     9.3105 2.4024E+04
         0.     9.3217 2.4496E+04
         0.     9.3329 2.3719E+04
         0.     9.3385 2.3219E+04
         0.     9.3526 2.2803E+04
         0.      9.361 2.2442E+04
         0.     9.3723 2.2608E+04
         0.     9.3807 2.2442E+04
         0.     9.3891 2.2581E+04
         0.     9.4003 2.2997E+04
         0.     9.4116 2.3858E+04
         0.     9.4228 2.4219E+04
         0.      9.434 2.4996E+04
         0.     9.4453 2.6079E+04
         0.     9.4509 2.7134E+04
         0.     9.4705 2.7744E+04
         0.     9.4818 2.8189E+04
         0.     9.4874 2.7967E+04
         0.     9.5042 2.7967E+04
         0.     9.5155 2.6884E+04
         0.     9.5239 2.6301E+04
         0.     9.5323 2.5357E+04
         0.     9.5464 2.4552E+04
         0.      9.552 2.3691E+04
         0.     9.5773 2.2553E+04
         0.     9.5857 2.1942E+04
         0.     9.5969 2.1748E+04
         0.     9.6026 2.1304E+04
         0.     9.6138 2.0665E+04
         0.      9.625 1.9916E+04
         0.     9.6335 1.9416E+04
         0.     9.6447 1.9138E+04
         0.     9.6503 1.8222E+04
         0.     9.6615 1.7778E+04
         0.     9.6728  1.689E+04
         0.     9.6812 1.6584E+04
         0.     9.6953  1.639E+04
         0.     9.7037 1.5724E+04
         0.     9.7205 1.4891E+04
         0.     9.7346 1.4946E+04
         0.     9.7458 1.5057E+04
         0.     9.7542  1.478E+04
         0.     9.7627 1.4974E+04
         0.     9.7711 1.5168E+04
         0.     9.7795  1.503E+04
         0.     9.7823  1.539E+04
         0.     9.7992 1.5446E+04
         0.     9.8048  1.589E+04
         0.     9.8188 1.5974E+04
         0.     9.8273 1.5668E+04
         0.     9.8329 1.6085E+04
         0.     9.8441 1.5974E+04
         0.     9.8553  1.639E+04
         0.     9.8638 1.6168E+04
         0.     9.8778 1.6196E+04
         0.     9.8834  1.639E+04
         0.     9.8919 1.6668E+04
         0.     9.9059 1.6806E+04
         0.     9.9171 1.6529E+04
         0.     9.9368 1.7084E+04
         0.     9.9424 1.7195E+04
         0.     9.9536 1.7084E+04
        45.     5.1062     341.77
        45.     5.1259     452.83
        45.     5.1455      480.6
        45.     5.1708     563.89
        45.     5.1877     674.95
        45.     5.2073     702.72
        45.      5.227     786.01
        45.     5.2466     813.78
        45.     5.2663     813.79
        45.     5.2888 1.0081E+03
        45.     5.3084 1.9798E+03
        45.     5.3253 3.2569E+03
        45.     5.3365 1.9243E+03
        45.     5.3449 1.4523E+03
        45.     5.3562 1.3968E+03
        45.     5.3702 1.3691E+03
        45.     5.3814 1.3691E+03
        45.     5.3871 1.4801E+03
        45.     5.4039 1.7855E+03
        45.     5.4236 2.1187E+03
        45.      5.432 2.2852E+03
        45.     5.4404 2.5073E+03
        45.     5.4516 2.6739E+03
        45.     5.4629 3.0348E+03
        45.     5.4741 3.4512E+03
        45.     5.4825 4.0343E+03
        45.     5.4938 4.4229E+03
        45.     5.5022 4.2286E+03
        45.     5.5162 3.6456E+03
        45.     5.5275 3.0071E+03
        45.     5.5359 2.4518E+03
        45.     5.5443 1.9799E+03
        45.      5.564 1.7023E+03
        45.     5.5837 1.3969E+03
        45.     5.6033 1.2581E+03
        45.      5.623 1.2026E+03
        45.     5.6426 1.2026E+03
        45.     5.6567 1.4247E+03
        45.     5.6848 1.5635E+03
        45.     5.7044 2.1743E+03
        45.     5.7185 3.0627E+03
        45.     5.7381 4.7006E+03
        45.     5.7465 5.3947E+03
        45.     5.7606 6.1443E+03
        45.     5.7662 6.5885E+03
        45.     5.7774 6.8383E+03
        45.     5.7887 6.4497E+03
        45.     5.8027 6.4219E+03
        45.     5.8083 6.0332E+03
        45.     5.8196 5.9222E+03
        45.     5.8392 5.4502E+03
        45.     5.8589 5.3392E+03
        45.     5.8757 5.3947E+03
        45.     5.8982 5.5613E+03
        45.     5.9178 6.1443E+03
        45.     5.9291 6.7829E+03
        45.     5.9375 7.5602E+03
        45.     5.9459 7.4491E+03
        45.     5.9572 6.3387E+03
        45.     5.9656 5.9222E+03
        45.     5.9768 5.3948E+03
        45.     5.9965 4.5897E+03
        45.     6.0162 3.9512E+03
        45.     6.0442  3.618E+03
        45.     6.0583 4.4787E+03
        45.     6.0723 7.3659E+03
        45.     6.0863 9.7257E+03
        45.     6.0919 1.4029E+04
        45.     6.0976 1.6555E+04
        45.     6.1144 1.5722E+04
        45.     6.1256 1.3446E+04
        45.     6.1341 1.1447E+04
        45.     6.1425  1.017E+04
        45.     6.1538 9.1982E+03
        45.     6.1762 7.9212E+03
        45.     6.1931 7.3382E+03
        45.     6.2099 7.3382E+03
        45.      6.224 7.3937E+03
        45.     6.2408  7.477E+03
        45.     6.2521 7.4493E+03
        45.     6.2745 7.3382E+03
        45.      6.297 7.8657E+03
        45.     6.3166 8.8929E+03
        45.     6.3307 1.0031E+04
        45.     6.3644 1.0586E+04
        45.      6.384 9.9756E+03
        45.     6.4037 8.7264E+03
        45.     6.4262 7.6437E+03
        45.     6.4458 6.9496E+03
        45.     6.4599 6.6442E+03
        45.     6.4795 6.4222E+03
        45.     6.4824  6.672E+03
        45.     6.4936 6.4777E+03
        45.     6.5048 6.5887E+03
        45.     6.5189 6.5055E+03
        45.     6.5301 6.5332E+03
        45.     6.5413 6.3667E+03
        45.     6.5582 6.4499E+03
        45.     6.5863 6.6443E+03
        45.     6.6031 6.5332E+03
        45.     6.6228 6.6165E+03
        45.     6.6481 6.6443E+03
        45.     6.6649 6.7831E+03
        45.     6.6874 6.8387E+03
        45.      6.707 7.1441E+03
        45.     6.7267 7.3662E+03
        45.     6.7435 7.8104E+03
        45.     6.7632 8.3378E+03
        45.     6.7829 8.8376E+03
        45.     6.8081 9.7259E+03
        45.      6.825  1.092E+04
        45.     6.8474 1.2474E+04
        45.     6.8559 1.3252E+04
        45.     6.8643 1.3668E+04
        45.     6.8755 1.4057E+04
        45.     6.8839 1.4196E+04
        45.     6.8924  1.389E+04
        45.      6.912 1.3085E+04
        45.     6.9289 1.2225E+04
        45.     6.9485 1.2252E+04
        45.     6.9682 1.2058E+04
        45.     6.9794 1.2585E+04
        45.     6.9879 1.2641E+04
        45.     6.9935 1.2724E+04
        45.     7.0019 1.2919E+04
        45.     7.0216 1.2946E+04
        45.       7.03 1.2586E+04
        45.     7.0384 1.2946E+04
        45.      7.044  1.303E+04
        45.     7.0497 1.3113E+04
        45.     7.0553 1.3141E+04
        45.     7.0637 1.2114E+04
        45.     7.0777 1.1697E+04
        45.      7.089 1.1503E+04
        45.     7.0946 1.1281E+04
        45.     7.1086 1.1225E+04
        45.     7.1171 1.1614E+04
        45.     7.1255 1.3724E+04
        45.     7.1339    1.6E+04
        45.     7.1451 1.2586E+04
        45.     7.1564 1.1531E+04
        45.     7.1676 1.1142E+04
        45.     7.1789 1.0975E+04
        45.     7.1873 1.0753E+04
        45.     7.1985 1.0726E+04
        45.     7.2182 1.0642E+04
        45.      7.235 1.0448E+04
        45.     7.2547 1.0559E+04
        45.     7.2772 1.0281E+04
        45.      7.294 1.0476E+04
        45.     7.3137 1.1114E+04
        45.     7.3361 1.2502E+04
        45.     7.3445  1.278E+04
        45.     7.3502 1.2724E+04
        45.     7.3586 1.2641E+04
        45.     7.3642 1.2891E+04
        45.     7.3754 1.3363E+04
        45.     7.3867 1.3252E+04
        45.     7.3951 1.3002E+04
        45.     7.4063 1.2947E+04
        45.     7.4148 1.3002E+04
        45.     7.4288 1.3058E+04
        45.       7.44 1.3307E+04
        45.     7.4513 1.3391E+04
        45.     7.4709 1.3863E+04
        45.     7.4934 1.4002E+04
        45.     7.5131 1.4085E+04
        45.     7.5327 1.3863E+04
        45.     7.5411 1.3807E+04
        45.     7.5468 1.3696E+04
        45.      7.572 1.3446E+04
        45.     7.5945 1.2947E+04
        45.     7.6114 1.2197E+04
        45.      7.631 1.2475E+04
        45.     7.6507 1.3752E+04
        45.     7.6731 1.5612E+04
        45.     7.6928 1.7666E+04
        45.     7.7124 1.9387E+04
        45.     7.7152 2.0165E+04
        45.     7.7293  2.047E+04
        45.     7.7433 2.0026E+04
        45.     7.7546 1.9387E+04
        45.     7.7602  1.886E+04
        45.     7.7798 1.8083E+04
        45.     7.7967 1.7305E+04
        45.     7.8192    1.7E+04
        45.     7.8388 1.6944E+04
        45.     7.8529 1.7333E+04
        45.     7.8613 1.7444E+04
        45.     7.8697 1.7278E+04
        45.     7.8838 1.7555E+04
        45.     7.8922 1.7333E+04
        45.      7.895 1.7555E+04
        45.     7.9034 1.7666E+04
        45.     7.9118 1.8027E+04
        45.     7.9231 1.9027E+04
        45.     7.9399 1.7028E+04
        45.     7.9484 1.6084E+04
        45.     7.9652 1.4918E+04
        45.     7.9765 1.3446E+04
        45.     7.9933 1.3502E+04
        45.     8.0102 1.2947E+04
        45.     8.0298 1.2086E+04
        45.     8.0523 1.1725E+04
        45.     8.0748 1.1614E+04
        45.     8.0944  1.192E+04
        45.     8.1113  1.278E+04
        45.     8.1309 1.4446E+04
        45.     8.1422 1.4779E+04
        45.     8.1478 1.4668E+04
        45.      8.159 1.4946E+04
        45.     8.1702 1.4474E+04
        45.     8.1702 1.4751E+04
        45.     8.1843 1.4113E+04
        45.     8.2011  1.378E+04
        45.     8.2096 1.3696E+04
        45.     8.2264 1.3669E+04
        45.      8.232  1.328E+04
        45.     8.2405 1.4418E+04
        45.     8.2545 1.4613E+04
        45.     8.2601 1.4474E+04
        45.     8.2742 1.4529E+04
        45.     8.2742 1.4751E+04
        45.     8.2938 1.4363E+04
        45.     8.3107 1.4446E+04
        45.     8.3331 1.3946E+04
        45.     8.3528 1.3474E+04
        45.     8.3753 1.3363E+04
        45.     8.3949 1.3502E+04
        45.     8.4118 1.3974E+04
        45.     8.4258 1.3891E+04
        45.     8.4314 1.3974E+04
        45.     8.4455 1.3946E+04
        45.     8.4539 1.3863E+04
        45.     8.4651  1.378E+04
        45.     8.4736 1.3863E+04
        45.     8.4876 1.3752E+04
        45.      8.496 1.4085E+04
        45.     8.5101 1.4002E+04
        45.     8.5213  1.428E+04
        45.     8.5325 1.4502E+04
        45.      8.555 1.4918E+04
        45.     8.5719 1.5112E+04
        45.     8.5999  1.514E+04
        45.     8.6168 1.4696E+04
        45.     8.6308 1.4307E+04
        45.     8.6505 1.3669E+04     166.57
        45.      8.673 1.3586E+04
        45.     8.6842  1.353E+04
        45.     8.6954 1.3586E+04
        45.     8.7039 1.3502E+04
        45.     8.7095 1.3697E+04
        45.     8.7235 1.3835E+04
        45.     8.7348  1.378E+04
        45.     8.7432 1.3724E+04
        45.     8.7516 1.3364E+04
        45.     8.7713 1.4252E+04
        45.     8.7769 1.4502E+04
        45.     8.7909 1.4696E+04
        45.     8.7994 1.3391E+04
        45.     8.8106  1.328E+04
        45.     8.8246 1.2947E+04
        45.     8.8302 1.2892E+04
        45.     8.8359 1.2781E+04
        45.     8.8668 1.2697E+04
        45.     8.8864 1.2531E+04
        45.     8.9117 1.2087E+04
        45.     8.9257  1.167E+04
        45.     8.9342 1.1392E+04
        45.     8.9426 1.1309E+04
        45.     8.9538 1.0921E+04
        45.     8.9651 1.0615E+04
        45.     8.9735 1.0421E+04
        45.     8.9819  1.031E+04
        45.     9.0016 9.6157E+03
        45.     9.0212 9.3659E+03
        45.     9.0381  9.116E+03
        45.     9.0634 8.7551E+03
        45.     9.0858 8.6996E+03
        45.     9.1055 8.8107E+03
        45.     9.1223 8.8384E+03
        45.      9.128 8.7274E+03     166.57
        45.     9.1476 9.1438E+03
        45.     9.1673 9.4215E+03
        45.     9.1813  9.588E+03
        45.      9.201 1.0116E+04
        45.     9.2206 1.0865E+04
        45.     9.2403 1.1753E+04
        45.     9.2628 1.2975E+04
        45.     9.2796 1.4224E+04
        45.     9.3021 1.5307E+04
        45.     9.3217 1.5668E+04
        45.     9.3414 1.5307E+04
        45.     9.3639 1.4696E+04
        45.     9.3835 1.4807E+04
        45.     9.4032 1.5196E+04
        45.     9.4228 1.5862E+04
        45.     9.4425 1.7028E+04
        45.     9.4621 1.7584E+04
        45.     9.4706 1.8139E+04
        45.     9.5043 1.7695E+04
        45.     9.5239 1.6695E+04
        45.     9.5408 1.5862E+04
        45.     9.5548  1.539E+04
        45.     9.5745 1.4891E+04
        45.     9.5942 1.4308E+04     138.81
        45.     9.6138 1.3364E+04
        45.     9.6335 1.2864E+04
        45.      9.656 1.2031E+04
        45.     9.6728 1.1504E+04
        45.     9.6981 1.0782E+04
        45.     9.7177  1.056E+04
        45.     9.7374 1.0671E+04
        45.     9.7543 1.0865E+04
        45.     9.7767 1.1171E+04
        45.     9.7992 1.1476E+04
        45.     9.8132 1.1698E+04
        45.     9.8357 1.1865E+04
        45.     9.8554  1.217E+04
        45.      9.875 1.2476E+04
        45.     9.8975 1.2392E+04
        45.     9.9171 1.2614E+04
        45.      9.934 1.3031E+04
        45.     9.9593 1.3003E+04
        45.     9.9789 1.3531E+04
        45.     9.9958 1.3753E+04
        45.     10.015 1.3836E+04
        45.     10.035 1.4197E+04
        45.     10.058 1.4114E+04
        45.     10.072  1.453E+04
        45.     10.097 1.5141E+04
        45.     10.117 1.5307E+04
        45.     10.139 1.6168E+04
        45.     10.153 1.6446E+04
        45.     10.176 1.6224E+04
ENDDATA            811
ENDSUBENT          828
SUBENT        F0993003   20091119   20100128   20100127       F037
BIB                  4          7
REACTION   (6-C-13(A,N)8-O-16,PAR,DA)
CORRECTION Corrections have been applied for dead-time losses and
           gamma-ray absorption in the target backing.
ERR-ANALYS (ERR-SYS,,20.) Probable error in the absolute cross
           section is less than 20%.
           (ERR-S)  Error from the graphic bars
STATUS     (CURVE) Fig.4
ENDBIB               7
COMMON               2          3
EN-ERR-DIG ERR-DIG
MEV        MB/SR
 0.002      0.036
ENDCOMMON            3
DATA                 5       1589
E-LVL      ANG        EN         DATA       ERR-S
MEV        ADEG       MEV        MB/SR      MB/SR
       6.13         0.     4.9897     2.7084
       6.13         0.     5.0046     2.7085
       6.13         0.     5.0105     1.9751
       6.13         0.     5.0105     2.3136
       6.13         0.     5.0195     2.0315
       6.13         0.     5.0284     2.2008
       6.13         0.     5.0373     1.9752
       6.13         0.     5.0403     2.4266
       6.13         0.     5.0492     1.9753
       6.13         0.     5.0611     1.9753
       6.13         0.     5.0701     1.8061
       6.13         0.      5.079     1.8062
       6.13         0.     5.0879     1.6934
       6.13         0.     5.0969      1.637
       6.13         0.     5.1088     1.6371
       6.13         0.     5.1207     1.8628
       6.13         0.     5.1296     1.9193
       6.13         0.     5.1355     2.2578
       6.13         0.     5.1445     2.3707
       6.13         0.     5.1594     2.4836
       6.13         0.     5.1683     2.7657
       6.13         0.     5.1742      2.935
       6.13         0.     5.1861     3.1607
       6.13         0.      5.198     2.9915
       6.13         0.      5.207     3.3865
       6.13         0.     5.2129     3.1609
       6.13         0.     5.2248     3.2173
       6.13         0.     5.2338      3.443
       6.13         0.     5.2457     3.3867
       6.13         0.     5.2546     3.4432
       6.13         0.     5.2635     3.3868
       6.13         0.     5.2725     3.5561
       6.13         0.     5.2844     3.5561
       6.13         0.     5.2933     4.1768
       6.13         0.     5.2992     5.6437
       6.13         0.     5.3081     11.624
       6.13         0.     5.3199     12.978
       6.13         0.     5.3349     7.3364
       6.13         0.     5.3409     5.7003
       6.13         0.     5.3439      5.531
       6.13         0.     5.3468      5.249
       6.13         0.     5.3558     5.0233
       6.13         0.     5.3647     5.0798
       6.13         0.     5.3736     5.2491
       6.13         0.     5.3826     5.4184
       6.13         0.     5.3915     5.7005
       6.13         0.     5.4004     5.7006
       6.13         0.     5.4123     6.0391
       6.13         0.     5.4212     6.3213
       6.13         0.     5.4331     6.6598
       6.13         0.     5.4391     6.2649
       6.13         0.      5.448      6.265
       6.13         0.      5.454     6.4907
       6.13         0.     5.4659     6.4343
       6.13         0.     5.4718     6.6036
       6.13         0.     5.4778     6.8293
       6.13         0.     5.4927     8.5783
       6.13         0.     5.5016     8.9169
       6.13         0.     5.5165     7.7886
       6.13         0.     5.5254     7.1116
       6.13         0.     5.5493     4.2345
       6.13         0.     5.5671     3.5011
       6.13         0.      5.579     3.4448
       6.13         0.      5.585     3.2755
       6.13         0.     5.5969     3.1628
       6.13         0.     5.6088     3.2192
       6.13         0.     5.6207     3.2757
       6.13         0.     5.6297     3.2193
       6.13         0.     5.6416     3.4451
       6.13         0.     5.6475     3.6708
       6.13         0.     5.6505     3.9529
       6.13         0.     5.6594     4.2914
       6.13         0.     5.6713     4.7428
       6.13         0.     5.6772     5.2506
       6.13         0.     5.6891      5.702
       6.13         0.      5.701      6.774
       6.13         0.     5.7129     7.9588
       6.13         0.     5.7218     9.8206
       6.13         0.     5.7278     11.231
       6.13         0.     5.7337     13.319
       6.13         0.     5.7456     15.688
       6.13         0.     5.7545     17.324
       6.13         0.     5.7634     18.622
       6.13         0.     5.7753     18.227
       6.13         0.     5.7842     17.889
       6.13         0.     5.7932     17.607
       6.13         0.      5.811     16.309
       6.13         0.      5.814     15.519
       6.13         0.     5.8259     15.068
       6.13         0.     5.8319     14.053
       6.13         0.     5.8438      13.77
       6.13         0.     5.8528     13.488
       6.13         0.     5.8647      13.15
       6.13         0.     5.8766     13.037
       6.13         0.     5.8915     13.037
       6.13         0.     5.9063     13.602
       6.13         0.     5.9242     14.786
       6.13         0.     5.9301     16.479
       6.13         0.      5.942      17.72
       6.13         0.     5.9569     15.689
       6.13         0.     5.9659     12.868
       6.13         0.     5.9719     11.119
       6.13         0.     5.9868      9.145
       6.13         0.     5.9927     8.7501
       6.13         0.     5.9957     8.2987
       6.13         0.     6.0017     7.9603
       6.13         0.     6.0255      7.509
       6.13         0.     6.0344     7.9604
       6.13         0.     6.0433     8.5811
       6.13         0.     6.0522     10.048
       6.13         0.     6.0611     13.038
       6.13         0.       6.07     17.439
       6.13         0.     6.0848     23.927
       6.13         0.     6.0936     33.631
       6.13         0.     6.1024     42.206
       6.13         0.     6.1143     40.288
       6.13         0.     6.1233     34.251
       6.13         0.     6.1324     28.215
       6.13         0.     6.1413     23.476
       6.13         0.     6.1503     20.486
       6.13         0.     6.1593     18.173
       6.13         0.     6.1682     16.819
       6.13         0.     6.1772     15.295
       6.13         0.     6.1831     14.506
       6.13         0.      6.198     14.675
       6.13         0.      6.207     14.675
       6.13         0.     6.2189      15.07
       6.13         0.     6.2308     15.691
       6.13         0.     6.2367     16.311
       6.13         0.     6.2516     17.045
       6.13         0.     6.2575     17.835
       6.13         0.     6.2664     18.286
       6.13         0.     6.2754     18.907
       6.13         0.     6.2754     18.342
       6.13         0.     6.2873     19.584
       6.13         0.     6.3021     20.994
       6.13         0.     6.3081     22.517
       6.13         0.      6.317      23.42
       6.13         0.     6.3288     25.226
       6.13         0.     6.3407      26.41
       6.13         0.     6.3437     27.821
       6.13         0.     6.3615     28.667
       6.13         0.     6.3705      27.99
       6.13         0.     6.3764     27.313
       6.13         0.     6.3854     25.677
       6.13         0.     6.3973     25.226
       6.13         0.     6.4063     23.195
       6.13         0.     6.4152     22.123
       6.13         0.     6.4242      21.39
       6.13         0.     6.4361     20.995
       6.13         0.      6.442     20.261
       6.13         0.     6.4569     20.205
       6.13         0.     6.4658       20.6
       6.13         0.     6.4778     20.092
       6.13         0.     6.4867     20.939    0.39492
       6.13         0.     6.4897     20.487
       6.13         0.     6.5016     20.375
       6.13         0.     6.5194     20.488
       6.13         0.     6.5284     19.698
       6.13         0.     6.5373     19.416
       6.13         0.     6.5432     19.698
       6.13         0.     6.5581      19.19
       6.13         0.     6.5611     19.754
       6.13         0.      6.573     19.529
       6.13         0.     6.5849     19.303
       6.13         0.     6.5909     19.698
       6.13         0.     6.5938     19.529
       6.13         0.     6.6028     20.093
       6.13         0.     6.6147     20.093
       6.13         0.     6.6236     20.657
       6.13         0.     6.6385     20.657
       6.13         0.     6.6444     20.883
       6.13         0.     6.6504     21.278
       6.13         0.     6.6653     21.222
       6.13         0.     6.6712     21.842
       6.13         0.     6.6831     21.899
       6.13         0.      6.695     22.519
       6.13         0.     6.7039     22.858
       6.13         0.     6.7129     23.253
       6.13         0.     6.7188     24.268
       6.13         0.     6.7366     25.171
       6.13         0.     6.7426     25.623
       6.13         0.     6.7545       26.3
       6.13         0.     6.7634     27.428
       6.13         0.     6.7723       28.5
       6.13         0.     6.7812     29.854
       6.13         0.     6.7961     32.111
       6.13         0.      6.802     33.803
       6.13         0.     6.8169     36.624
       6.13         0.     6.8228     38.035
       6.13         0.     6.8347     40.856
       6.13         0.     6.8435     43.902
       6.13         0.     6.8525     45.426
       6.13         0.     6.8673     46.441
       6.13         0.     6.8763     45.144
       6.13         0.     6.8852     42.605
       6.13         0.     6.8972     38.881
       6.13         0.     6.9032     35.891
       6.13         0.     6.9151     32.168
       6.13         0.     6.9241     30.024
       6.13         0.      6.942     25.454
       6.13         0.      6.954     23.254
       6.13         0.     6.9629     22.182
       6.13         0.     6.9808     21.618    0.45134
       6.13         0.     6.9927       21.9
       6.13         0.     7.0016     20.998
       6.13         0.     7.0105     21.393
       6.13         0.     7.0224     22.295
       6.13         0.     7.0314     23.819
       6.13         0.     7.0314     23.593
       6.13         0.     7.0433     23.932
       6.13         0.     7.0552     21.224
       6.13         0.     7.0641      19.87
       6.13         0.     7.0701     16.654
       6.13         0.     7.0791     14.961
       6.13         0.      7.091     14.905
       6.13         0.     7.0999     14.115
       6.13         0.     7.1119     13.551
       6.13         0.     7.1267     13.608
       6.13         0.     7.1327     12.536
       6.13         0.     7.1416     12.479
       6.13         0.     7.1565     12.536
       6.13         0.     7.1595     12.141
       6.13         0.     7.1774     12.141
       6.13         0.     7.1833     11.633     0.3385
       6.13         0.     7.1952     11.013
       6.13         0.     7.2071     11.013
       6.13         0.      7.222     10.336
       6.13         0.      7.222     11.069
       6.13         0.     7.2339      10.28
       6.13         0.     7.2429     10.562
       6.13         0.     7.2518      10.28
       6.13         0.     7.2607      10.11
       6.13         0.     7.2756     9.8848
       6.13         0.     7.2875     10.054
       6.13         0.     7.2935      9.772
       6.13         0.     7.2965     9.3771
       6.13         0.     7.2994     9.0951
       6.13         0.     7.3143     8.5874
       6.13         0.     7.3233     8.8695
       6.13         0.     7.3352      8.926
       6.13         0.     7.3382     8.7003
       6.13         0.     7.3441     8.5875
       6.13         0.     7.3471      9.321
       6.13         0.      7.356     10.731
       6.13         0.     7.3649     12.255
       6.13         0.     7.3947     11.578
       6.13         0.     7.4066     11.352
       6.13         0.     7.4155     11.578
       6.13         0.     7.4304     13.553
       6.13         0.     7.4452     14.004
       6.13         0.     7.4512     14.738
       6.13         0.     7.4631      14.85
       6.13         0.      7.472     15.866
       6.13         0.     7.4869     15.866
       6.13         0.     7.4988     16.938
       6.13         0.     7.5077     17.107
       6.13         0.     7.5166      16.43
       6.13         0.     7.5256       16.6
       6.13         0.     7.5375     16.148
       6.13         0.     7.5464     16.487
       6.13         0.     7.5554     15.302
       6.13         0.     7.5673     14.964
       6.13         0.     7.5762     15.302
       6.13         0.     7.5851     14.851
       6.13         0.     7.5941     13.892
       6.13         0.      7.609     13.779
       6.13         0.     7.6149     14.174
       6.13         0.     7.6268     13.667
       6.13         0.     7.6357     16.093
       6.13         0.     7.6476     18.011
       6.13         0.     7.6594     21.734
       6.13         0.     7.6683     25.232
       6.13         0.     7.6772     28.843
       6.13         0.     7.6891     33.357
       6.13         0.     7.7039     33.413
       6.13         0.     7.7098     38.265
       6.13         0.     7.7187     41.876
       6.13         0.     7.7306     42.496
       6.13         0.     7.7425     42.722
       6.13         0.     7.7514     42.045
       6.13         0.     7.7604     40.296
       6.13         0.     7.7723     38.547
       6.13         0.     7.7783     38.152
       6.13         0.     7.7902     36.009
       6.13         0.     7.8021     36.404
       6.13         0.      7.814     36.686
       6.13         0.       7.82     35.388
       6.13         0.     7.8319     36.686
       6.13         0.     7.8497     39.789
       6.13         0.     7.8586     40.184
       6.13         0.     7.8735     41.143
       6.13         0.     7.8884     41.482    0.39492
       6.13         0.     7.8973     41.933
       6.13         0.     7.9033     41.087
       6.13         0.     7.9241     43.908
       6.13         0.      7.933      42.61
       6.13         0.      7.954     33.866
       6.13         0.     7.9629     30.763
       6.13         0.     7.9719     29.014
       6.13         0.     7.9779     27.265
       6.13         0.     7.9898      25.46
       6.13         0.     8.0017     24.501
       6.13         0.     8.0107     23.316
       6.13         0.     8.0196     22.865
       6.13         0.     8.0345     23.824
       6.13         0.     8.0553     22.865
       6.13         0.     8.0642     23.034
       6.13         0.     8.0762     22.639
       6.13         0.     8.0821     23.655
       6.13         0.      8.094     23.373
       6.13         0.     8.1029     23.993
       6.13         0.     8.1088     26.532
       6.13         0.     8.1207     29.522
       6.13         0.     8.1266      31.44
       6.13         0.     8.1385     33.528
       6.13         0.     8.1534     34.826
       6.13         0.     8.1743     32.456
       6.13         0.     8.1862     32.174
       6.13         0.     8.1921      30.82
       6.13         0.     8.2011     29.523
       6.13         0.       8.21     29.184
       6.13         0.     8.2189     28.902
       6.13         0.     8.2308     29.579
       6.13         0.     8.2427     29.805
       6.13         0.     8.2546     31.159
       6.13         0.     8.2695     29.692
       6.13         0.     8.2785     27.831
       6.13         0.     8.2815     26.928
       6.13         0.     8.2934      25.01
       6.13         0.     8.3024     23.486
       6.13         0.     8.3143     23.261
       6.13         0.     8.3232     21.963
       6.13         0.     8.3262     20.722
       6.13         0.     8.3381     20.271
       6.13         0.       8.35     20.497
       6.13         0.      8.362      19.82
       6.13         0.     8.3709     18.579
       6.13         0.     8.3858      20.44
       6.13         0.     8.3917     21.794
       6.13         0.     8.4066     22.189
       6.13         0.     8.4125     23.882
       6.13         0.     8.4214     25.292
       6.13         0.     8.4333     25.631
       6.13         0.     8.4392     27.041
       6.13         0.     8.4541     27.154
       6.13         0.      8.463     27.719
       6.13         0.      8.472     28.452    0.45134
       6.13         0.     8.4809     27.662
       6.13         0.     8.4928     28.339
       6.13         0.     8.5047     29.976
       6.13         0.     8.5166     30.427
       6.13         0.     8.5344     31.781
       6.13         0.     8.5463     30.935
       6.13         0.     8.5493     32.007
       6.13         0.     8.5612     32.176
       6.13         0.     8.5731     32.176
       6.13         0.      8.585     32.063
       6.13         0.     8.6029     32.063
       6.13         0.     8.6178     32.007
       6.13         0.     8.6267     31.048
       6.13         0.     8.6357     30.484
       6.13         0.     8.6476     28.622
       6.13         0.     8.6655     25.801
       6.13         0.     8.6863      24.73
       6.13         0.     8.6953     23.545
       6.13         0.     8.7042     23.376
       6.13         0.     8.7161     23.996
       6.13         0.     8.7251     23.263
       6.13         0.      8.734     23.094
       6.13         0.     8.7459     22.135
       6.13         0.     8.7519     21.683
       6.13         0.     8.7757      21.74
       6.13         0.     8.7875     27.495
       6.13         0.     8.7994     26.874
       6.13         0.     8.8084     21.853
       6.13         0.     8.8174     20.386
       6.13         0.     8.8234     17.735
       6.13         0.     8.8293     17.227
       6.13         0.     8.8412     16.888
       6.13         0.     8.8531     16.663
       6.13         0.      8.865     16.268
       6.13         0.      8.874     15.873
       6.13         0.     8.8829     15.591
       6.13         0.     8.8978     15.365
       6.13         0.     8.8978     14.688
       6.13         0.     8.9008     14.181
       6.13         0.     8.9157     14.011
       6.13         0.     8.9187      13.56
       6.13         0.     8.9365     13.447
       6.13         0.     8.9425     12.996
       6.13         0.     8.9544     12.601
       6.13         0.     8.9604     12.093
       6.13         0.     8.9723     11.755
       6.13         0.     8.9872     11.191
       6.13         0.     8.9991     11.191    0.50776
       6.13         0.      9.008     11.022
       6.13         0.      9.008      10.74
       6.13         0.     9.0229     10.683
       6.13         0.     9.0259     10.909
       6.13         0.     9.0288     11.248
       6.13         0.     9.0467     10.796
       6.13         0.     9.0467     11.248
       6.13         0.     9.0497     10.345
       6.13         0.     9.0646     10.571
       6.13         0.     9.0675     10.796
       6.13         0.     9.0824     10.909
       6.13         0.     9.0913      11.53
       6.13         0.     9.1092     12.207
       6.13         0.     9.1241     11.981
       6.13         0.       9.13     12.715
       6.13         0.     9.1419     12.715
       6.13         0.     9.1508     13.448
       6.13         0.     9.1568     14.577
       6.13         0.     9.1717      14.69
       6.13         0.     9.1776      15.48
       6.13         0.     9.1865     15.931
       6.13         0.     9.1954     17.624
       6.13         0.     9.2133     17.736
       6.13         0.     9.2222     18.865
       6.13         0.     9.2341     19.711
       6.13         0.      9.246     21.065
       6.13         0.      9.246     22.194
       6.13         0.     9.2608     23.266
       6.13         0.     9.2757     25.748
       6.13         0.     9.2846     27.497
       6.13         0.     9.2935     28.287
       6.13         0.     9.2994     30.374
       6.13         0.     9.3054     31.334
       6.13         0.     9.3203     31.898
       6.13         0.     9.3352     30.939
       6.13         0.      9.353     29.021
       6.13         0.      9.362     28.795
       6.13         0.     9.3769     28.569
       6.13         0.     9.3888     28.175
       6.13         0.     9.4007     29.247
       6.13         0.     9.4007     29.641
       6.13         0.     9.4096     28.795
       6.13         0.     9.4155     30.657
       6.13         0.     9.4274     31.108
       6.13         0.     9.4393      31.56
       6.13         0.     9.4482      33.76
       6.13         0.     9.4512     35.509
       6.13         0.      9.466     36.243
       6.13         0.      9.469     37.258
       6.13         0.     9.4869     37.371
       6.13         0.     9.5107     36.807
       6.13         0.     9.5196     35.904
       6.13         0.     9.5286      34.55
       6.13         0.     9.5405     32.802
       6.13         0.     9.5495     31.673
       6.13         0.     9.5554     30.545
       6.13         0.     9.5673     29.755
       6.13         0.     9.5763      27.95
       6.13         0.     9.5912     27.724
       6.13         0.     9.5912     28.683
       6.13         0.     9.5971     27.047
       6.13         0.     9.6061     26.652
       6.13         0.      9.621     24.734
       6.13         0.     9.6329     23.775
       6.13         0.     9.6478     23.042
       6.13         0.     9.6538     21.631
       6.13         0.     9.6627     20.334
       6.13         0.     9.6717     19.488
       6.13         0.     9.6806     18.641
       6.13         0.     9.6985     18.585
       6.13         0.     9.7044      17.57
       6.13         0.     9.7164     16.498
       6.13         0.     9.7193     16.893
       6.13         0.     9.7312     16.216
       6.13         0.     9.7431     16.554
       6.13         0.      9.758     16.385
       6.13         0.      9.764     16.837
       6.13         0.     9.7759     17.175
       6.13         0.     9.7937     18.078
       6.13         0.     9.7937     17.288
       6.13         0.     9.8086     18.021
       6.13         0.     9.8205     18.642
       6.13         0.     9.8294     18.417
       6.13         0.     9.8354     18.755
       6.13         0.     9.8503     18.812
       6.13         0.     9.8652     18.586
       6.13         0.       9.88      18.53
       6.13         0.      9.889     18.755
       6.13         0.     9.9009     19.094
       6.13         0.     9.9098     18.981    0.39492
       6.13         0.     9.9247     19.038
       6.13         0.     9.9277     18.417
       6.13         0.     9.9425     19.094
       6.13         0.     9.9485     19.433
       6.13         0.     9.9634     19.376
       6.13        45.     5.1118    0.31152
       6.13        45.     5.1266    0.54903
       6.13        45.     5.1445    0.54919
       6.13        45.     5.1623    0.72738
       6.13        45.     5.1862     1.0243
       6.13        45.      5.207    0.96515
       6.13        45.     5.2219      1.084
       6.13        45.     5.2427     1.1435
       6.13        45.     5.2665     1.3217
       6.13        45.     5.2844      1.678
       6.13        45.     5.2992     3.5179
       6.13        45.       5.32     6.1887
       6.13        45.     5.3349     3.2214
       6.13        45.     5.3439      2.628
       6.13        45.     5.3528     2.4501
       6.13        45.     5.3647     2.3908
       6.13        45.     5.3766     2.4503
       6.13        45.     5.3856     2.6877
       6.13        45.     5.4034     3.1627
       6.13        45.     5.4212      3.875
       6.13        45.     5.4272     4.0531
       6.13        45.     5.4361     4.5279
       6.13        45.      5.451     4.8248
       6.13        45.     5.4629     5.5964
       6.13        45.     5.4718     6.3087
       6.13        45.     5.4837     7.5551
       6.13        45.     5.4985     7.9113
       6.13        45.     5.5015     8.6235
       6.13        45.     5.5105     6.7244
       6.13        45.     5.5224     5.5376
       6.13        45.     5.5284     4.6474
       6.13        45.     5.5403     3.5199
       6.13        45.     5.5612      3.164
       6.13        45.     5.5761     2.3333
       6.13        45.     5.5969     2.1554
       6.13        45.     5.6177     2.0963
       6.13        45.     5.6386     2.1558
       6.13        45.     5.6534     2.5713
       6.13        45.     5.6773     2.8683
       6.13        45.     5.6951     3.9367
       6.13        45.     5.7189      5.836
       6.13        45.     5.7367     8.9816
       6.13        45.     5.7426     10.347
       6.13        45.     5.7545     11.652
       6.13        45.     5.7634     12.661
       6.13        45.     5.7723     13.077
       6.13        45.     5.7842     12.424
       6.13        45.     5.7931     12.305
       6.13        45.      5.808     11.475
       6.13        45.       5.82     11.178
       6.13        45.     5.8349     10.525
       6.13        45.     5.8557     10.288
       6.13        45.     5.8736     10.288
       6.13        45.     5.8795     10.466
       6.13        45.     5.8854     10.704
       6.13        45.     5.9152     11.476
       6.13        45.     5.9211     13.019
       6.13        45.       5.93     14.443
       6.13        45.     5.9419     14.265
       6.13        45.     5.9539     12.069
       6.13        45.     5.9628     11.239
       6.13        45.     5.9718     10.289
       6.13        45.     5.9897     8.5683
       6.13        45.     6.0105     7.2628
       6.13        45.     6.0314     6.8476
       6.13        45.     6.0552     8.3908
       6.13        45.     6.0699     14.029
       6.13        45.     6.0758     18.717
       6.13        45.     6.0905     27.085
       6.13        45.     6.1023     32.071
       6.13        45.     6.1112     30.528
       6.13        45.     6.1233     25.958
       6.13        45.     6.1323     21.863
       6.13        45.     6.1383     19.311
       6.13        45.     6.1502     17.116
       6.13        45.     6.1681     14.386
       6.13        45.      6.189     13.496
       6.13        45.     6.2039     13.259
       6.13        45.     6.2158     13.318
       6.13        45.     6.2247     13.437
       6.13        45.     6.2277     13.674
       6.13        45.     6.2485     13.556
       6.13        45.     6.2664     13.259
       6.13        45.     6.2842     14.268
       6.13        45.      6.305     16.345
       6.13        45.     6.3258     18.304
       6.13        45.     6.3347     18.838
       6.13        45.     6.3556     19.491
       6.13        45.     6.3764     18.364
       6.13        45.     6.3943     15.931
       6.13        45.     6.4152     13.854
       6.13        45.     6.4331     12.311
       6.13        45.      6.454     11.658
       6.13        45.     6.4808     11.421
       6.13        45.     6.4897     11.303
       6.13        45.     6.4986     11.125
       6.13        45.     6.5135     11.303
       6.13        45.     6.5344      10.65
       6.13        45.     6.5582     10.294
       6.13        45.     6.5731     10.472
       6.13        45.     6.5939     10.532
       6.13        45.     6.6147     10.532
       6.13        45.     6.6326     10.829
       6.13        45.     6.6564     11.067
       6.13        45.     6.6713     11.304
       6.13        45.     6.6951     12.016
       6.13        45.     6.7099     12.195
       6.13        45.     6.7308     13.204
       6.13        45.     6.7486     13.916
       6.13        45.     6.7724     14.806
       6.13        45.     6.7902     16.409
       6.13        45.      6.814     18.842
       6.13        45.     6.8318     21.632
       6.13        45.     6.8526     24.065
       6.13        45.     6.8526     23.353
       6.13        45.     6.8615     24.184
       6.13        45.     6.8734       24.6
       6.13        45.     6.8853     23.709
       6.13        45.     6.8943     22.048
       6.13        45.     6.9122     19.674
       6.13        45.     6.9301     18.013
       6.13        45.      6.948     16.173
       6.13        45.     6.9599     16.173
       6.13        45.     6.9718     16.114
       6.13        45.     6.9807     15.876
       6.13        45.     6.9897     15.877
       6.13        45.     7.0016     15.936
       6.13        45.     7.0075     15.995
       6.13        45.     7.0164     16.114
       6.13        45.     7.0313     16.648
       6.13        45.     7.0373     16.174
       6.13        45.     7.0492     14.571
       6.13        45.     7.0582     13.978
       6.13        45.     7.0671     13.919
       6.13        45.      7.079      13.86
       6.13        45.     7.0879     14.038
       6.13        45.     7.0969     14.216
       6.13        45.     7.1058     15.818
       6.13        45.     7.1147     16.471
       6.13        45.     7.1266       15.7
       6.13        45.     7.1385     14.988
       6.13        45.     7.1504     14.513
       6.13        45.     7.1623      14.75
       6.13        45.     7.1772      14.81
       6.13        45.     7.1832     14.988
       6.13        45.     7.1862     14.276
       6.13        45.     7.1981     14.217
       6.13        45.     7.2159     14.157
       6.13        45.     7.2397      13.92
       6.13        45.     7.2636     13.208
       6.13        45.     7.2844      13.03
       6.13        45.     7.3023     12.674
       6.13        45.     7.3261     12.497
       6.13        45.      7.335     11.666
       6.13        45.     7.3439     12.556
       6.13        45.     7.3529     13.268
       6.13        45.     7.3648     14.099
       6.13        45.     7.3737     14.574
       6.13        45.     7.3886     13.209
       6.13        45.     7.4035     12.735
       6.13        45.     7.4184     12.497
       6.13        45.     7.4392     12.557
       6.13        45.     7.4422     12.913
       6.13        45.      7.466     12.438
       6.13        45.     7.4868     13.151
       6.13        45.     7.4868     13.507
       6.13        45.     7.4928     12.735
       6.13        45.     7.5077      12.38
       6.13        45.     7.5255     11.608
       6.13        45.     7.5464     11.608
       6.13        45.     7.5672     11.371
       6.13        45.     7.5881     10.362
       6.13        45.     7.6089     9.7098
       6.13        45.     7.6268     9.6506
       6.13        45.     7.6476     11.965
       6.13        45.     7.6684     13.805
       6.13        45.     7.6861      17.96
       6.13        45.     7.7009     21.758
       6.13        45.     7.7158     23.242
       6.13        45.     7.7277     24.726
       6.13        45.     7.7366      24.37
       6.13        45.     7.7456     23.005
       6.13        45.     7.7575     22.233
       6.13        45.     7.7754     21.343
       6.13        45.     7.7962     20.216
       6.13        45.     7.8141     20.453
       6.13        45.      7.829     21.225
       6.13        45.     7.8379     21.581
       6.13        45.     7.8468     22.293
       6.13        45.     7.8557     22.887
       6.13        45.     7.8646     22.353
       6.13        45.     7.8765     23.184
       6.13        45.     7.8855     22.768
       6.13        45.     7.8884     23.362    0.29674
       6.13        45.     7.8884     23.125
       6.13        45.     7.8974     23.303
       6.13        45.     7.9063     24.015
       6.13        45.     7.9122     25.261
       6.13        45.     7.9271     25.321
       6.13        45.     7.9391     22.532
       6.13        45.      7.948     20.276
       6.13        45.      7.963     17.547
       6.13        45.     7.9868     15.588
       6.13        45.     8.0047     14.698
       6.13        45.     8.0256     14.164
       6.13        45.     8.0434     13.571
       6.13        45.     8.0643      13.69
       6.13        45.     8.0851     14.818
       6.13        45.     8.1029     16.361
       6.13        45.     8.1296     19.447
       6.13        45.     8.1326     20.159
       6.13        45.     8.1445     19.981
       6.13        45.     8.1594      20.99
       6.13        45.     8.1683     20.516
       6.13        45.     8.1802     19.744
       6.13        45.     8.1981     19.448
       6.13        45.     8.2041     18.973
       6.13        45.     8.2189     18.795
       6.13        45.     8.2278     19.923
       6.13        45.     8.2368     19.329
       6.13        45.     8.2457     19.448
       6.13        45.     8.2606     18.202
       6.13        45.     8.2725     18.143
       6.13        45.     8.2904     16.719
       6.13        45.     8.3053     16.185
       6.13        45.     8.3292     15.295
       6.13        45.      8.353     13.989
       6.13        45.     8.3709     13.099
       6.13        45.     8.3917     14.286
       6.13        45.     8.4095      14.88
       6.13        45.     8.4185     15.058
       6.13        45.     8.4304     15.414
       6.13        45.     8.4423      15.83
       6.13        45.     8.4512     15.414
       6.13        45.     8.4542     15.711
       6.13        45.     8.4661     15.889
       6.13        45.      8.478     15.949
       6.13        45.     8.4869     16.067
       6.13        45.     8.4988     16.661
       6.13        45.     8.5107      16.78
       6.13        45.     8.5226     17.017
       6.13        45.     8.5345     17.314
       6.13        45.     8.5523      17.67
       6.13        45.     8.5702     17.967
       6.13        45.     8.5881     17.137
       6.13        45.     8.6119     17.018
       6.13        45.     8.6328     15.713
       6.13        45.     8.6536     14.407
       6.13        45.     8.6715     14.229
       6.13        45.     8.6804     14.051
       6.13        45.     8.6923     14.348
       6.13        45.     8.6923     13.873
       6.13        45.     8.7102     13.873
       6.13        45.     8.7132     14.348
       6.13        45.     8.7251      14.17
       6.13        45.      8.737     13.636
       6.13        45.     8.7459     13.043
       6.13        45.     8.7489     13.458
       6.13        45.     8.7668      13.34
       6.13        45.     8.7727     13.993
       6.13        45.     8.7816     16.485
       6.13        45.     8.7935     14.586
       6.13        45.     8.8055     12.272
       6.13        45.     8.8144       11.5
       6.13        45.     8.8263     11.085
       6.13        45.     8.8382     11.323
       6.13        45.     8.8442     11.026
       6.13        45.      8.865      10.67
       6.13        45.     8.8829     10.433
       6.13        45.     8.9186     10.314
       6.13        45.     8.9216      9.543
       6.13        45.     8.9276     9.1276
       6.13        45.     8.9365     9.4244
       6.13        45.     8.9514     9.1278
       6.13        45.     8.9603     8.8311
       6.13        45.     8.9722     8.9499
       6.13        45.     8.9812     8.1785
       6.13        45.      9.002     8.5941
       6.13        45.     9.0199     8.4162
       6.13        45.     9.0348      8.535
       6.13        45.     9.0407     8.9505
       6.13        45.     9.0615     8.8913
       6.13        45.     9.0824     8.8322
       6.13        45.     9.0972     9.5445
       6.13        45.      9.127     9.9601
       6.13        45.     9.1448     10.791
       6.13        45.     9.1746       11.8
       6.13        45.     9.1865       11.8
       6.13        45.     9.2043     12.928
       6.13        45.     9.2222     13.997
       6.13        45.       9.24     15.896
       6.13        45.     9.2608     17.973
       6.13        45.     9.2786     20.347
       6.13        45.     9.3023     22.543
       6.13        45.     9.3291     23.078
       6.13        45.      9.341     22.366
       6.13        45.     9.3708     21.119
       6.13        45.     9.3887     21.179
       6.13        45.     9.4036     21.654
       6.13        45.     9.4244      22.96
       6.13        45.     9.4422     24.444
       6.13        45.      9.469     25.809
       6.13        45.     9.4838     26.402
       6.13        45.     9.5047     25.275
       6.13        45.     9.5226     24.504
       6.13        45.     9.5435     22.011
       6.13        45.     9.5554     21.537
       6.13        45.     9.5762     20.231
       6.13        45.     9.5971     19.638
       6.13        45.      9.615     18.036
       6.13        45.     9.6358     17.086
       6.13        45.     9.6567     15.899
       6.13        45.     9.6746     14.594
       6.13        45.     9.6955     13.407
       6.13        45.     9.7133     12.873
       6.13        45.     9.7372     12.399
       6.13        45.      9.755     12.874
       6.13        45.     9.7758      13.17
       6.13        45.     9.7967     13.527
       6.13        45.     9.8205     13.646
       6.13        45.     9.8383     13.349
       6.13        45.     9.8532     13.765
       6.13        45.       9.88     13.824
       6.13        45.     9.9008     14.121
       6.13        45.     9.9217     13.884
       6.13        45.     9.9365     14.477
       6.13        45.     9.9633     14.478
       6.13        45.     9.9782     15.012
       6.13        45.     9.9871     15.309
       6.13        45.      9.999     15.131
       6.13        45.     10.017     14.953
       6.13        45.     10.044     15.903
       6.13        45.     10.062     15.784
       6.13        45.     10.079     15.962
       6.13        45.     10.106     16.793
       6.13        45.     10.121     17.743
       6.13        45.     10.124      18.04
       6.13        45.     10.127     17.387
       6.13        45.     10.148     19.583
       6.13        45.     10.166     21.008
       6.13        45.     10.186     20.236
         7.         0.      5.021    0.31955
         7.         0.     5.0446    0.31957
         7.         0.     5.0505    0.19177
         7.         0.     5.0623    0.51127
         7.         0.     5.0712    0.38348
         7.         0.      5.083    0.51129
         7.         0.     5.0948    0.25571
         7.         0.     5.1037    0.25571
         7.         0.     5.1125    0.12792
         7.         0.     5.1243    0.31963
         7.         0.     5.1421    0.38354
         7.         0.     5.1539    0.31965
         7.         0.     5.1627    0.31966
         7.         0.     5.1804    0.44746
         7.         0.     5.1893    0.31968
         7.         0.       5.21    0.44749
         7.         0.     5.2277     0.5114
         7.         0.     5.2454    0.44751
         7.         0.     5.2631    0.31973
         7.         0.     5.2779    0.31974
         7.         0.     5.2956    0.44755
         7.         0.     5.3074    0.31977
         7.         0.     5.3281    0.25588
         7.         0.     5.3488    0.51149
         7.         0.     5.3547    0.19201
         7.         0.     5.3665    0.19202
         7.         0.     5.3783    0.25592
         7.         0.     5.3872    0.38372
         7.         0.      5.399    0.31984
         7.         0.     5.4167    0.31985
         7.         0.     5.4315    0.25596
         7.         0.     5.4492    0.25598
         7.         0.     5.4669    0.25599
         7.         0.     5.4758    0.63938
         7.         0.     5.4817     0.3838
         7.         0.     5.4965     0.5116
         7.         0.     5.5083    0.31992
         7.         0.     5.5201    0.19213
         7.         0.     5.5319    0.51163
         7.         0.     5.5437    0.44774
         7.         0.     5.5614    0.51165
         7.         0.     5.5703    0.31997
         7.         0.      5.588    0.25608
         7.         0.     5.5998    0.44778
         7.         0.     5.6116       0.32
         7.         0.     5.6205    0.19221
         7.         0.     5.6353    0.25612
         7.         0.       5.65    0.38392
         7.         0.     5.6648    0.19224
         7.         0.     5.6825    0.19226
         7.         0.     5.7091    0.25617
         7.         0.     5.7268    0.32009
         7.         0.     5.7386    0.51179
         7.         0.     5.7563    0.76739
         7.         0.     5.7741    0.76741
         7.         0.     5.7947    0.83132
         7.         0.     5.8036    0.70353
         7.         0.     5.8184    0.76744
         7.         0.     5.8243    0.51185
         7.         0.     5.8361    0.63966
         7.         0.      5.842    0.38407
         7.         0.     5.8509    0.57577
         7.         0.     5.8627    0.57578
         7.         0.     5.8715     0.2563
         7.         0.     5.8833     0.3841
         7.         0.     5.8922    0.38411
         7.         0.      5.904    0.38412
         7.         0.     5.9188    0.25633
         7.         0.     5.9395    0.25635
         7.         0.     5.9483    0.38415
         7.         0.     5.9601    0.32026
         7.         0.     5.9719    0.32027
         7.         0.     5.9838    0.44808
         7.         0.     5.9985    0.32029
         7.         0.     6.0133    0.25641
         7.         0.     6.0251    0.25642
         7.         0.     6.0399    0.32032
         7.         0.     6.0635    0.32034
         7.         0.      6.093    0.38426
         7.         0.     6.1078    0.44817
         7.         0.     6.1226    0.57598
         7.         0.     6.1373    0.57599
         7.         0.     6.1521      0.576
         7.         0.     6.1639    0.63991
         7.         0.     6.1816     1.0233
         7.         0.     6.1934     1.0233
         7.         0.     6.2053     1.0872
         7.         0.       6.22     1.0872
         7.         0.     6.2318     1.0872
         7.         0.     6.2436     1.4706
         7.         0.     6.2466     1.1512
         7.         0.     6.2614     1.2151
         7.         0.     6.2732     1.4707
         7.         0.      6.282      1.279
         7.         0.     6.2939     1.2151
         7.         0.     6.3027     1.4707
         7.         0.     6.3086      1.279
         7.         0.     6.3204     1.5346
         7.         0.     6.3293      1.279
         7.         0.     6.3382     1.6624
         7.         0.     6.3529     1.7263
         7.         0.     6.3588     1.5346
         7.         0.     6.3706     1.5985
         7.         0.     6.3825     1.8541
         7.         0.     6.3913     2.0458
         7.         0.     6.3972     1.7902
         7.         0.     6.4061     2.0458
         7.         0.     6.4179     1.5986
         7.         0.     6.4268     1.8542
         7.         0.     6.4386     1.7903
         7.         0.     6.4504     2.1737
         7.         0.     6.4592     1.9181
         7.         0.     6.4651     2.2376
         7.         0.     6.4829     2.4932
         7.         0.     6.4829     2.1737
         7.         0.     6.4917     2.3654
         7.         0.     6.5065     2.3015
         7.         0.     6.5154      2.621
         7.         0.     6.5272      2.621
         7.         0.      6.536     2.6849
         7.         0.     6.5478      2.621
         7.         0.     6.5597     2.9405
         7.         0.     6.5656     2.6849
         7.         0.     6.5744     3.0683
         7.         0.     6.5862     3.0044
         7.         0.      6.598     2.8128
         7.         0.      6.604     3.1323
         7.         0.     6.6158     3.0684
         7.         0.     6.6246     3.2601
         7.         0.     6.6335     3.0684
         7.         0.     6.6423     3.1323
         7.         0.     6.6542     3.0684
         7.         0.      6.666     3.2601
         7.         0.     6.6748     3.0684
         7.         0.     6.6866     3.0684
         7.         0.     6.6955     3.0684
         7.         0.     6.7073      3.324
         7.         0.     6.7162      3.324
         7.         0.     6.7221     3.1962
         7.         0.     6.7309     3.4518
         7.         0.     6.7369     3.1963
         7.         0.     6.7487     3.3241
         7.         0.     6.7605     3.4519
         7.         0.     6.7723     3.4519
         7.         0.     6.7812     3.7075
         7.         0.       6.79     3.5797
         7.         0.     6.8018      3.388
         7.         0.     6.8136     3.5158
         7.         0.     6.8195     3.7714
         7.         0.     6.8314     3.5158
         7.         0.     6.8432     3.6436
         7.         0.      6.852     3.8353
         7.         0.     6.8579     4.2187
         7.         0.     6.8727     4.4743
         7.         0.     6.8845     4.4104
         7.         0.     6.8904     4.8577
         7.         0.     6.9022     4.7938
         7.         0.     6.9111      5.305
         7.         0.       6.92     5.2411
         7.         0.     6.9318     6.1996
         7.         0.     6.9495     7.3498
         7.         0.     6.9613     8.3721
         7.         0.     6.9672     9.2667
         7.         0.      6.979     10.481
         7.         0.     6.9879     11.311
         7.         0.     7.0026      11.12
         7.         0.     7.0085     10.672
         7.         0.     7.0233     11.056    0.25559
         7.         0.      7.041     11.248
         7.         0.     7.0469       10.8
         7.         0.     7.0588      11.12
         7.         0.     7.0706     11.375
         7.         0.     7.0824     11.439
         7.         0.     7.0853     10.673
         7.         0.     7.1031     10.673
         7.         0.     7.1119     10.225
         7.         0.     7.1237     10.736
         7.         0.     7.1326      12.59
         7.         0.     7.1414     18.979
         7.         0.     7.1533     13.995
         7.         0.     7.1651     10.481
         7.         0.     7.1739     9.4586
         7.         0.     7.1798     8.8196
         7.         0.     7.1917     8.7557
         7.         0.     7.1976     8.3723
         7.         0.     7.2094      8.564
         7.         0.     7.2241     8.6279
         7.         0.     7.2301     7.9251
         7.         0.     7.2419     8.3085
         7.         0.     7.2537     8.0529
         7.         0.     7.2596     7.7973
         7.         0.     7.2684     8.1168
         7.         0.     7.2803     8.5641
         7.         0.     7.2891     8.8836
         7.         0.     7.3009     8.8836
         7.         0.     7.3127     9.5865
         7.         0.     7.3186     10.864
         7.         0.     7.3275     12.206
         7.         0.     7.3364     13.165
         7.         0.     7.3393     13.868
         7.         0.     7.3452     14.443
         7.         0.     7.3541     14.315
         7.         0.     7.3659     13.293
         7.         0.     7.3836     13.293
         7.         0.     7.3866     12.909
         7.         0.     7.3984     12.909
         7.         0.     7.4043     13.293
         7.         0.     7.4161     13.293
         7.         0.      7.425     13.804
         7.         0.     7.4368     13.612
         7.         0.     7.4427     13.676
         7.         0.     7.4486     13.293
         7.         0.     7.4545     13.676
         7.         0.     7.4663      13.74
         7.         0.     7.4752     14.315
         7.         0.     7.4899     13.996
         7.         0.     7.4958     15.018
         7.         0.     7.4958     14.635
         7.         0.     7.5017     14.954
         7.         0.     7.5017     14.251
         7.         0.     7.5047     13.996
         7.         0.     7.5165     14.123
         7.         0.     7.5313     14.443
         7.         0.     7.5342     14.187
         7.         0.      7.546     14.251
         7.         0.     7.5579     14.507
         7.         0.     7.5697     15.146
         7.         0.     7.5756     14.507
         7.         0.     7.5874     13.996
         7.         0.     7.5963     14.187
         7.         0.      7.611     14.443
         7.         0.     7.6169     13.996
         7.         0.     7.6287     14.187
         7.         0.     7.6376      14.89
         7.         0.     7.6494     14.507
         7.         0.     7.6583     14.251
         7.         0.     7.6671     16.424
         7.         0.      7.676     16.104
         7.         0.     7.6878     16.743
         7.         0.     7.6996     16.296
         7.         0.     7.7085     16.999
         7.         0.     7.7203     16.552
         7.         0.     7.7232     15.274
         7.         0.      7.738     15.082
         7.         0.     7.7557     13.932
         7.         0.     7.7705      14.06
         7.         0.     7.7794     13.868
         7.         0.     7.7882     12.782
         7.         0.     7.7882     13.229
         7.         0.        7.8     13.357
         7.         0.     7.8059     12.334
         7.         0.     7.8207     11.632
         7.         0.     7.8355     11.695
         7.         0.     7.8414     11.184
         7.         0.     7.8502     10.609
         7.         0.     7.8562     10.098
         7.         0.      7.865     9.8425
         7.         0.     7.8827     10.034
         7.         0.     7.8886     9.5869
         7.         0.     7.9005     9.3952
         7.         0.     7.9064     9.1396
         7.         0.     7.9182     9.9064
         7.         0.     7.9182     10.354
         7.         0.      7.927     10.929
         7.         0.     7.9388     11.504
         7.         0.     7.9477      10.29
         7.         0.     7.9566     9.9703
         7.         0.     7.9713     9.7148
         7.         0.     7.9772      10.29
         7.         0.     7.9832     9.0119
         7.         0.     7.9891     9.6509
         7.         0.     8.0009      8.948
         7.         0.     8.0097     8.1812
         7.         0.     8.0156     7.7979
         7.         0.     8.0393     7.0311
         7.         0.     8.0658     6.8394
         7.         0.     8.0806     6.7117
         7.         0.     8.0865     6.5839
         7.         0.     8.0983     6.3922
         7.         0.     8.1279      7.159
         7.         0.     8.1367     7.6063
         7.         0.     8.1456     7.2868
         7.         0.     8.1574     7.6702
         7.         0.     8.1692     7.9258
         7.         0.     8.1781     8.2453    0.31949
         7.         0.      8.184     7.9258
         7.         0.     8.1899     7.6702
         7.         0.     8.1987     7.4146
         7.         0.     8.2106     7.4146
         7.         0.     8.2253     7.2229
         7.         0.     8.2283     7.6702
         7.         0.     8.2401     7.4147
         7.         0.     8.2549     7.5425
         7.         0.     8.2903     9.2038
         7.         0.     8.2962      9.715
         7.         0.     8.3051     10.098
         7.         0.     8.3169     10.098
         7.         0.     8.3316     11.057
         7.         0.     8.3375     11.376
         7.         0.     8.3464      11.76
         7.         0.     8.3553     12.143
         7.         0.     8.3612     11.696
         7.         0.       8.37     12.079
         7.         0.      8.373      12.91
         7.         0.     8.3848      12.91
         7.         0.     8.3966      12.91
         7.         0.     8.4055     13.293
         7.         0.     8.4173     13.485
         7.         0.     8.4321     13.613
         7.         0.      8.435     13.038
         7.         0.     8.4527     13.102
         7.         0.     8.4616     13.741
         7.         0.     8.4675     13.293
         7.         0.     8.4793     13.166
         7.         0.     8.4882     13.613
         7.         0.     8.5118     13.166
         7.         0.     8.5177     13.613
         7.         0.     8.5384     13.741
         7.         0.     8.5472     14.571
         7.         0.     8.5531     14.188
         7.         0.     8.5709     14.635
         7.         0.     8.5768     15.274
         7.         0.     8.5856     15.722
         7.         0.     8.5974     15.913
         7.         0.     8.6063     16.552
         7.         0.     8.6181     16.041
         7.         0.      8.627     16.361
         7.         0.     8.6388     16.616
         7.         0.     8.6447     16.808
         7.         0.     8.6565        17.
         7.         0.     8.6683     16.361
         7.         0.      8.686     15.786
         7.         0.     8.6949      15.53
         7.         0.     8.7038     15.786
         7.         0.     8.7156     15.594
         7.         0.     8.7333     15.211    0.25559
         7.         0.     8.7569     15.466
         7.         0.     8.7658     15.083
         7.         0.     8.7717     15.722
         7.         0.     8.7894     16.297
         7.         0.     8.7983     15.977
         7.         0.     8.8101     15.658
         7.         0.     8.8189     15.466
         7.         0.     8.8278     15.913
         7.         0.     8.8426     16.169
         7.         0.     8.8485      15.53
         7.         0.     8.8603     15.722
         7.         0.     8.8662      15.53
         7.         0.      8.878      15.85
         7.         0.     8.8839      15.53
         7.         0.     8.9016     15.019
         7.         0.     8.9075     15.466
         7.         0.     8.9223     14.955
         7.         0.     8.9371     14.572
         7.         0.     8.9459     14.124
         7.         0.     8.9489     13.869
         7.         0.     8.9577     13.485
         7.         0.     8.9725     12.719
         7.         0.     8.9843     12.974
         7.         0.     8.9991     11.632
         7.         0.     9.0109     10.994
         7.         0.     9.0257     11.313
         7.         0.     9.0345     10.355
         7.         0.     9.0463     10.355
         7.         0.     9.0552     9.9712
         7.         0.     9.0582     9.7795
         7.         0.     9.0729     9.6517
         7.         0.     9.0818     9.5239
         7.         0.     9.0907     9.0766
         7.         0.     9.0995     9.0766
         7.         0.     9.1054     9.2044
         7.         0.     9.1143     9.2045
         7.         0.     9.1261      9.524
         7.         0.      9.135     8.8211
         7.         0.     9.1438     9.2045
         7.         0.     9.1527     9.6518
         7.         0.     9.1645     8.8211
         7.         0.     9.1733     9.2684
         7.         0.     9.1793     9.7157
         7.         0.      9.194     10.163
         7.         0.     9.1999     9.9074
         7.         0.     9.2147     10.035
         7.         0.     9.2206     10.355
         7.         0.     9.2354     10.546
         7.         0.     9.2413     10.291
         7.         0.      9.256     10.227
         7.         0.     9.2649     10.802
         7.         0.     9.2708     10.546
         7.         0.     9.2856     10.674
         7.         0.     9.2885     10.994
         7.         0.     9.3033     11.441
         7.         0.     9.3121     11.761
         7.         0.      9.324     12.144
         7.         0.     9.3358     11.761
         7.         0.     9.3358     11.441
         7.         0.     9.3476     11.633
         7.         0.     9.3624     11.313
         7.         0.     9.3624     11.569
         7.         0.     9.3771     11.761
         7.         0.     9.3889     11.569
         7.         0.     9.4007     11.952
         7.         0.     9.4126     12.016
         7.         0.     9.4244     12.975    0.25559
         7.         0.     9.4244     12.144
         7.         0.      9.445     12.975
         7.         0.      9.451     12.719
         7.         0.     9.4687     12.591
         7.         0.     9.4746     13.294
         7.         0.     9.4864     13.422
         7.         0.     9.4923     13.166
         7.         0.     9.5041     12.464
         7.         0.     9.5071     13.422
         7.         0.     9.5159     12.464
         7.         0.     9.5307     12.719
         7.         0.     9.5366     12.272
         7.         0.     9.5484     12.272
         7.         0.     9.5484     11.888
         7.         0.     9.5602     11.952
         7.         0.     9.5632     12.336
         7.         0.      9.575     12.208
         7.         0.     9.5779     11.377
         7.         0.     9.5868     11.761
         7.         0.     9.5957      11.25
         7.         0.     9.6134     11.505
         7.         0.     9.6163     11.058
         7.         0.     9.6223     10.547
         7.         0.     9.6341     10.802
         7.         0.     9.6488     10.675
         7.         0.     9.6606      10.93
         7.         0.     9.6636     10.163
         7.         0.     9.6665     11.058
         7.         0.     9.6784     10.291
         7.         0.     9.6931     10.163
         7.         0.      9.699       9.78
         7.         0.     9.7079     9.8439
         7.         0.     9.7138     9.9717
         7.         0.     9.7227     9.7161
         7.         0.     9.7227     9.4605
         7.         0.     9.7404     9.7161
         7.         0.     9.7492     9.3327
         7.         0.     9.7581     9.2049
         7.         0.     9.7729     9.0133
         7.         0.     9.7847     9.4606
         7.         0.     9.7906     9.0133
         7.         0.     9.8024     9.1411
         7.         0.     9.8142     9.5245
         7.         0.      9.826      9.205
         7.         0.     9.8319     9.5245
         7.         0.     9.8467     9.3328
         7.         0.     9.8467     9.6523
         7.         0.     9.8556     10.036
         7.         0.     9.8556     9.7801
         7.         0.     9.8674      9.844
         7.         0.     9.8762     9.9079
         7.         0.     9.8851     9.9079
         7.         0.      9.894     10.164
         7.         0.     9.9028     10.547
         7.         0.     9.9146     10.675
         7.         0.     9.9235     10.739
         7.         0.     9.9324     10.611
         7.         0.     9.9442     10.739
         7.         0.      9.953     10.611
         7.        45.     5.1421    0.14056
         7.        45.     5.1539 7.1824E-02
         7.        45.     5.1657 7.1816E-02
         7.        45.     5.1982 7.1797E-02
         7.        45.     5.2248 7.1781E-02
         7.        45.     5.2395 3.0436E-03
         7.        45.     5.2602  7.176E-02
         7.        45.     5.2779 7.1749E-02
         7.        45.     5.2956 3.0099E-03
         7.        45.     5.3163 7.1726E-02
         7.        45.      5.334    0.14044
         7.        45.     5.3547    0.14043
         7.        45.     5.3783 7.1689E-02
         7.        45.     5.3931  7.168E-02
         7.        45.     5.4079     0.1404
         7.        45.     5.4285 7.1659E-02
         7.        45.     5.4522    0.14037
         7.        45.     5.4669 7.1635E-02
         7.        45.     5.4846 7.1625E-02
         7.        45.     5.5053 7.1612E-02
         7.        45.     5.5437 7.1589E-02
         7.        45.     5.5585 2.8519E-03
         7.        45.     5.5792 7.1568E-02
         7.        45.     5.5998 6.5901E-02
         7.        45.     5.6323    0.14026
         7.        45.       5.65    0.14025
         7.        45.     5.6884    0.27769
         7.        45.      5.715 7.1486E-02
         7.        45.     5.7298    0.14021
         7.        45.     5.7475 7.1467E-02
         7.        45.     5.7652    0.14018
         7.        45.       5.78  6.601E-02
         7.        45.     5.7977    0.14017
         7.        45.     5.8125 7.1428E-02
         7.        45.      5.842    0.14014
         7.        45.     5.8568    0.14013
         7.        45.     5.8715    0.14012
         7.        45.     5.8833    0.14011
         7.        45.      5.904 7.1373E-02
         7.        45.     5.9247  7.136E-02
         7.        45.     5.9276 7.1359E-02
         7.        45.     5.9513 2.6159E-03
         7.        45.     5.9572    0.14007
         7.        45.     5.9719 2.6035E-03
         7.        45.     6.0133 2.5786E-03
         7.        45.     6.0369 2.5644E-03
         7.        45.     6.0517 6.6173E-02
         7.        45.     6.0812 2.5378E-03
         7.        45.     6.1048 6.6205E-02
         7.        45.     6.1226     0.2724
         7.        45.     6.1403    0.34114
         7.        45.     6.1551    0.27242
         7.        45.     6.1757    0.47862
         7.        45.     6.1994    0.54736
         7.        45.     6.2112     0.6161
         7.        45.     6.2318    0.61611
         7.        45.     6.2555     0.5474
         7.        45.     6.2702     0.5474
         7.        45.     6.2909     0.7536
         7.        45.     6.3145    0.82234
         7.        45.     6.3323    0.54744
         7.        45.     6.3529    0.82237
         7.        45.     6.3795    0.75366
         7.        45.     6.4002    0.68494
         7.        45.     6.4268    0.75368
         7.        45.     6.4386    0.41005
         7.        45.     6.4622    0.68498
         7.        45.     6.4799    0.82244
         7.        45.     6.4976    0.82245
         7.        45.     6.5154    0.95992
         7.        45.     6.5331     1.0287
         7.        45.     6.5419    0.89121
         7.        45.     6.5626     1.2349
         7.        45.     6.5744     1.0974
         7.        45.     6.5951     1.6473
         7.        45.     6.6158     1.5098
         7.        45.     6.6364     1.5786
         7.        45.     6.6571     1.4411
         7.        45.     6.6748     1.5786
         7.        45.     6.6926     1.3037
         7.        45.     6.7132     1.3724
         7.        45.     6.7339     1.4412
         7.        45.     6.7516     1.4412
         7.        45.     6.7752     1.7161
         7.        45.       6.79     1.7848
         7.        45.     6.8107     1.8536
         7.        45.     6.8343     1.8536
         7.        45.      6.852     2.0598
         7.        45.     6.8668     2.1285
         7.        45.     6.8816     2.5409
         7.        45.     6.9052     2.8846
         7.        45.     6.9288     3.2282
         7.        45.     6.9495     4.6028
         7.        45.     6.9702     5.9086
         7.        45.     6.9879     6.9396
         7.        45.     6.9938      7.077
         7.        45.     6.9967     7.6956
         7.        45.     7.0056     7.4894
         7.        45.     7.0233     7.7644
         7.        45.     7.0263     7.4894
         7.        45.     7.0292     7.2145
         7.        45.     7.0499     7.4207
         7.        45.     7.0588     7.9706
         7.        45.     7.0676     7.4895
         7.        45.     7.0794      7.352
         7.        45.     7.0853     7.1458
         7.        45.     7.0972     6.8709
         7.        45.     7.1119     6.3211
         7.        45.     7.1208     6.8709
         7.        45.     7.1267     9.2077
         7.        45.     7.1385     12.438
         7.        45.     7.1474     7.9019
         7.        45.     7.1592     6.2524
         7.        45.      7.171     5.7713
         7.        45.     7.1769     5.4964
         7.        45.     7.1828     5.2215
         7.        45.     7.1917     4.9466
         7.        45.     7.2035     4.9466
         7.        45.     7.2212      5.359
         7.        45.     7.2389     4.9466
         7.        45.     7.2596     5.2903
         7.        45.     7.2803     5.4965
         7.        45.     7.3009     5.9776
         7.        45.     7.3187     7.3522
         7.        45.     7.3364     9.9639
         7.        45.     7.3511     11.064
         7.        45.      7.357      10.17
         7.        45.     7.3748     9.9639
         7.        45.     7.3807     9.8952
         7.        45.     7.3866      9.689
         7.        45.     7.3925     9.4828
         7.        45.     7.3984     10.101
         7.        45.     7.4073     9.8952
         7.        45.      7.422     10.514
         7.        45.     7.4309      10.72
         7.        45.     7.4456     11.132
         7.        45.     7.4604     11.064
         7.        45.     7.4781     12.232
         7.        45.     7.4988      11.82
         7.        45.     7.5195     12.782
         7.        45.     7.5372     13.125
         7.        45.     7.5608     12.507
         7.        45.     7.5815     12.438
         7.        45.     7.6022     12.438
         7.        45.     7.6199      11.82
         7.        45.     7.6347     12.301
         7.        45.     7.6583     12.438
         7.        45.     7.6819     14.019
         7.        45.     7.6996     14.225
         7.        45.     7.7174     13.882
         7.        45.     7.7262     13.744
         7.        45.      7.741     13.057
         7.        45.     7.7469     12.713
         7.        45.     7.7646     12.713
         7.        45.     7.7735     12.507
         7.        45.     7.7882     11.889
         7.        45.     7.8089     11.545
         7.        45.     7.8266     10.858
         7.        45.     7.8443     9.8267
         7.        45.     7.8621     9.8954
         7.        45.      7.868     9.6205
         7.        45.     7.8857     9.5518
         7.        45.     7.8975     9.3456
         7.        45.     7.9123      10.17
         7.        45.     7.9211     9.6206
         7.        45.     7.9329      10.17
         7.        45.     7.9477     9.1395
         7.        45.     7.9566     9.3457
         7.        45.     7.9802     9.8268
         7.        45.     7.9979     9.0708
         7.        45.     8.0186     8.7959
         7.        45.     8.0334     7.6962
         7.        45.      8.057      7.765
         7.        45.     8.0747     7.4213
         7.        45.     8.1013     7.0777
         7.        45.     8.1131     7.2839
         7.        45.     8.1397     7.3527
         7.        45.     8.1545     7.2839
         7.        45.     8.1545     6.8028
         7.        45.     8.1663     6.8028
         7.        45.     8.1722     6.5279
         7.        45.     8.1899     6.5279
         7.        45.     8.2047     6.0468
         7.        45.     8.2224     6.4592
         7.        45.     8.2342     6.5967
         7.        45.      8.246     7.3527
         7.        45.     8.2578     7.4902
         7.        45.     8.2637     8.3149
         7.        45.     8.2785     8.6586
         7.        45.     8.2962     9.4146
         7.        45.     8.3169     10.171
         7.        45.     8.3376     9.9645
         7.        45.     8.3553     10.033
         7.        45.     8.3759     10.858
         7.        45.     8.3996     10.171
         7.        45.     8.4173     10.377
         7.        45.     8.4262     9.8958
         7.        45.     8.4409     9.8958
         7.        45.     8.4468     9.4834
         7.        45.     8.4586     9.7583
         7.        45.     8.4675     9.2085
         7.        45.     8.4882     8.9336
         7.        45.     8.4941     9.5522
         7.        45.     8.5059     8.8649
         7.        45.     8.5236     9.2086
         7.        45.     8.5384     9.1398
         7.        45.     8.5591     9.4148
         7.        45.     8.5797     9.6897
         7.        45.     8.6004     10.308
         7.        45.     8.6211     9.7584
         7.        45.     8.6388     10.102
         7.        45.     8.6624      10.24
         7.        45.     8.6772     10.102
         7.        45.     8.6949     10.652
         7.        45.     8.7185     10.102
         7.        45.     8.7274     10.583
         7.        45.     8.7392     10.996
         7.        45.     8.7481     11.545
         7.        45.     8.7569     10.515
         7.        45.     8.7658     11.064
         7.        45.     8.7776     11.545
         7.        45.     8.7924     11.133
         7.        45.     8.8042     11.889
         7.        45.     8.8249     11.752
         7.        45.     8.8367     11.339
         7.        45.     8.8544     11.752
         7.        45.     8.8692     11.546
         7.        45.     8.8869     11.752
         7.        45.     8.9135     11.133
         7.        45.     8.9312     11.133
         7.        45.     8.9371      10.79
         7.        45.     8.9459     10.377
         7.        45.     8.9548     9.8961
         7.        45.     8.9784     9.3463
         7.        45.     8.9814     9.8961
         7.        45.      9.005     8.3841
         7.        45.     9.0227     7.9717
         7.        45.     9.0434     7.0783
         7.        45.     9.0611     6.5972
         7.        45.     9.0848     6.6659
         7.        45.     9.1025     5.9787
         7.        45.     9.1261      5.635
         7.        45.     9.1409     5.4976
         7.        45.     9.1674     5.4289
         7.        45.     9.1763     5.3601
         7.        45.      9.194     5.2914
         7.        45.     9.2236     5.5664
         7.        45.     9.2442     5.5664
         7.        45.      9.259     5.9788
         7.        45.     9.2767     6.2537
         7.        45.     9.2974     5.9788
         7.        45.      9.321      6.185
         7.        45.     9.3417     6.0475
         7.        45.     9.3594     6.3225
         7.        45.     9.3801     6.4599
         7.        45.     9.3978     6.5974
         7.        45.     9.4185     6.8723
         7.        45.     9.4421     7.4222
         7.        45.     9.4598     7.3534
         7.        45.     9.4775     7.6971
         7.        45.     9.4982     7.9033
         7.        45.     9.5189     6.9411
         7.        45.     9.5425     7.6971
         7.        45.     9.5514     7.1473
         7.        45.     9.5721     7.4222
         7.        45.     9.5898     7.0099
         7.        45.     9.6104     6.8724
         7.        45.     9.6311     6.5975
         7.        45.     9.6547     6.1852
         7.        45.     9.6695     6.5288
         7.        45.     9.6931     6.1165
         7.        45.     9.7109     6.2539
         7.        45.     9.7315     6.7351
         7.        45.     9.7522     6.7351
         7.        45.     9.7729     7.0787
         7.        45.     9.7906     7.1475
         7.        45.     9.8083     7.9035
         7.        45.     9.8349     7.9722
         7.        45.     9.8467     8.1097
         7.        45.     9.8733     8.7283
         7.        45.      9.891     8.3159
         7.        45.     9.9117      8.797
         7.        45.     9.9324     9.1407
         7.        45.      9.953     8.9345
         7.        45.     9.9708     9.1407
         7.        45.     9.9944     9.6905
         7.        45.     10.015     10.172
         7.        45.     10.039      9.828
         7.        45.     10.056     9.6218
         7.        45.     10.074     10.309
         7.        45.     10.095     10.722
         7.        45.     10.118     10.103
         7.        45.     10.139     9.9655
         7.        45.      10.16     9.4844
         7.        45.     10.177     9.6219
ENDDATA           1591
ENDSUBENT         1607
SUBENT        F0993004   20091119   20100128   20100127       F037
BIB                  4          5
REACTION   (6-C-13(A,TOT),,WID)
FLAG       (1.) Lower limit is given
           (2.) Upper limit is given, the lower limit is 150 keV.
ERR-ANALYS (DATA-ERR)   Error in width definition
STATUS     (CURVE) Tbl.1, p. 358
ENDBIB               5
NOCOMMON             0          0
DATA                 4         17
EN-RES     DATA-CM    DATA-ERR   FLAG
MEV        KEV        KEV        NO-DIM
      5.317        14.         3.
      5.496        50.        20.
      5.771        85.        30.
      5.945        55.        20.
      6.107        45.        10.
      6.367       100.        30.
      6.878       120.        30.
      7.051        40.        25.
      7.136        12.         3.
       7.52       150.        50.
      7.736       100.        30.
      8.156        75.        30.
      8.253         0.        75.
       8.59       150.                    1.
      8.785        16.         4.
      9.319         0.       120.
      9.483       350.                    2.
ENDDATA             19
ENDSUBENT           29
ENDENTRY             4
