ENTRY            C0740   20001229   20010330
SUBENT        C0740001   20001229   20010330
BIB                 11         15
INSTITUTE  (1CANMNA)
REFERENCE  (J,NP/A,436,1,1985)
AUTHOR     (R.ARYAEINEJAD,W.R.FALK,N.E.DAVISON,J.N.KNUDSON,
           J.R.CAMPBELL)
TITLE      T=1/2 and 3/2 negative-parity states in 11B with the
            14C(p,alpha)11B reaction
FACILITY   (CYCLO,1CANMNA)
SAMPLE     Self-supporting target enriched to >95% 14C.  Areal
            density 524 microg/cm2.
METHOD     (EDE)
DETECTOR   (TELES,SOLST) 4 surface-barrier detector telescopes.
ERR-ANALYS (ERR-S) Statistical uncertainty given.
STATUS     Tabulated data received from W. Falk, 13 November 2000.
           (APRVD) Approved by W. Falk, 29 December 2000.
HISTORY    (20001114C) VM
ENDBIB              15
NOCOMMON             0          0
ENDSUBENT           18
SUBENT        C0740002   20001229   20010330
BIB                  2          2
REACTION   (6-C-14(P,A)5-B-11,PAR,DA)
MISC-COL   (MISC) Detector number
ENDBIB               2
COMMON               1          3
EN
MEV
 41.9
ENDCOMMON            3
DATA                 5        436
E-EXC      ANG-CM     DATA-CM    ERR-S      MISC
MEV        ADEG       MU-B/SR    MU-B/SR    NO-DIM
  0.0       11.65     504.811      3.270      1.
  0.0       17.46     426.997      3.226      2.
  0.0       23.26     374.315      3.829      1.
  0.0       29.02     225.727      2.376      2.
  0.0       34.76     143.149      1.680      1.
  0.0       40.46      70.234      1.284      2.
  0.0       46.13      46.118      0.958      1.
  0.0       46.13      39.580      1.216      2.
  0.0       46.13      39.645      0.860      3.
  0.0       51.74      20.291      0.697      2.
  0.0       51.74      21.618      0.391      3.
  0.0       57.30       9.825      0.614      2.
  0.0       57.30      10.641      0.439      3.
  0.0       62.81      10.333      0.276      3.
  0.0       68.26      16.370      0.761      2.
  0.0       68.26      15.656      0.539      3.
  0.0       73.65      22.045      0.394      3.
  0.0       78.97      21.572      0.896      2.
  0.0       78.97      21.902      0.630      3.
  0.0       78.97      22.272      0.384      3.
  0.0       84.22      16.451      0.349      3.
  0.0       84.22      16.651      0.389      4.
  0.0       89.40      10.430      0.271      3.
  0.0       94.51       5.280      0.226      4.
  0.0       99.54       2.646      0.136      3.
  0.0      104.51       1.783      0.132      4.
  0.0      109.40       2.146      0.120      3.
  0.0      109.40       2.404      0.143      4.
  0.0      114.21       2.581      0.156      4.
  0.0      118.96       3.603      0.179      4.
  0.0      128.25       3.203      0.161      4.
  0.0      132.80       3.200      0.222      4.
  0.0      137.29       2.755      0.157      4.
  0.0      141.73       2.222      0.184      4.
  0.0      150.45       1.348      0.141      4.
  0.0      159.01       2.138      0.190      4.
  2.125     11.70     137.764      1.737      1.
  2.125     17.53      53.372      1.155      2.
  2.125     23.35      15.482      0.596      1.
  2.125     29.14       6.363      0.418      2.
  2.125     34.90      13.482      0.530      1.
  2.125     40.62      13.684      0.569      2.
  2.125     46.30       9.841      0.457      1.
  2.125     46.30       9.559      0.622      2.
  2.125     46.30       9.118      0.419      2.
  2.125     51.93       3.351      0.300      2.
  2.125     51.93       4.551      0.177      3.
  2.125     57.51       1.909      0.267      2.
  2.125     57.51       1.935      0.190      2.
  2.125     63.04       2.074      0.126      3.
  2.125     68.50       2.850      0.325      2.
  2.125     68.50       2.796      0.215      2.
  2.125     73.90       3.650      0.162      3.
  2.125     79.23       3.611      0.372      2.
  2.125     79.23       3.293      0.240      2.
  2.125     79.23       4.103      0.168      3.
  2.125     84.49       3.935      0.167      3.
  2.125     84.49       4.065      0.194      4.
  2.125     89.67       3.381      0.157      3.
  2.125     94.78       2.719      0.166      4.
  2.125     99.82       2.450      0.130      3.
  2.125    104.78       1.692      0.122      4.
  2.125    109.67       1.420      0.099      3.
  2.125    109.67       1.610      0.118      4.
  2.125    114.48       0.948      0.098      4.
  2.125    119.22       0.761      0.080      4.
  2.125    128.49       1.068      0.094      4.
  2.125    133.03       1.522      0.160      4.
  2.125    137.50       1.965      0.133      4.
  2.125    141.92       2.729      0.219      4.
  2.125    150.61       4.209      0.253      4.
  2.125    159.13       3.871      0.255      4.
  4.445     11.76      27.087      0.954      1.
  4.445     17.62      44.774      1.096      2.
  4.445     23.46      50.700      1.053      1.
  4.445     29.28      43.026      1.047      2.
  4.445     35.06      34.930      0.837      1.
  4.445     40.81      18.568      0.655      2.
  4.445     46.51      14.710      0.551      1.
  4.445     46.51      13.268      0.764      2.
  4.445     46.51      12.643      0.505      3.
  4.445     52.17      12.487      0.551      2.
  4.445     52.17      13.364      0.317      3.
  4.445     57.77      17.834      0.835      2.
  4.445     57.77      15.800      0.547      3.
  4.445     63.31      16.616      0.354      3.
  4.445     68.79      13.033      0.682      2.
  4.445     68.79      13.166      0.500      3.
  4.445     74.20      10.466      0.272      3.
  4.445     79.54       8.055      0.520      2.
  4.445     79.54       8.097      0.387      3.
  4.445     79.54       7.518      0.235      3.
  4.445     84.81       7.819      0.239      3.
  4.445     84.81       8.144      0.276      4.
  4.445     90.00       8.109      0.243      3.
  4.445     95.11       7.429      0.275      4.
  4.445    100.15       6.026      0.205      3.
  4.445    105.11       4.540      0.208      4.
  4.445    109.99       3.468      0.014      3.
  4.445    109.99       3.491      0.169      4.
  4.445    114.80       3.003      0.167      4.
  4.445    119.53       2.755      0.153      4.
  4.445    128.78       3.624      0.172      4.
  4.445    133.30       4.992      0.291      4.
  4.445    137.76       5.778      0.223      4.
  4.445    142.15       6.772      0.374      4.
  4.445    150.80       7.331      0.384      4.
  4.445    159.27       6.285      0.357      4.
  5.02      11.77      47.755      1.096      1.
  5.02      17.64      35.198      0.999      2.
  5.02      23.49      31.262      0.841      1.
  5.02      29.31      23.978      0.777      2.
  5.02      35.10      18.622      0.621      1.
  5.02      40.86       9.513      0.473      2.
  5.02      46.57       4.285      0.315      1.
  5.02      46.57       4.173      0.472      2.
  5.02      46.57       3.858      0.307      3.
  5.02      52.23       1.604      0.229      2.
  5.02      52.23       2.021      0.141      3.
  5.02      57.83       2.086      0.304      2.
  5.02      57.83       2.637      0.245      3.
  5.02      63.38       3.082      0.169      3.
  5.02      68.86       2.624      0.323      2.
  5.02      68.86       2.607      0.232      3.
  5.02      74.27       1.768      0.126      3.
  5.02      79.62       0.891      0.259      2.
  5.02      79.62       1.179      0.202      3.
  5.02      79.62       0.972      0.140      3.
  5.02      84.89       1.233      0.108      3.
  5.02      84.89       1.381      0.129      4.
  5.02      90.08       1.452      0.114      3.
  5.02      95.20       1.271      0.128      4.
  5.02     100.24       1.213      0.096      3.
  5.02     105.20       0.986      0.113      4.
  5.02     110.08       0.855      0.093      3.
  5.02     110.08       0.985      0.102      4.
  5.02     114.88       0.760      0.098      4.
  5.02     119.61       0.829      0.099      4.
  5.02     128.85       1.320      0.104      4.
  5.02     133.37       1.991      0.226      4.
  5.02     137.82       2.655      0.134      4.
  5.02     142.21       3.360      0.289      4.
  5.02     150.85       3.852      0.290      4.
  5.02     159.30       4.160      0.309      4.
  6.743     11.82     542.477      3.406      1.
  6.743     17.71     571.127      3.705      2.
  6.743     23.58     695.546      3.839      1.
  6.743     29.43     625.552      3.906      2.
  6.743     35.24     601.621      3.413      1.
  6.743     41.02     412.212      3.046      2.
  6.743     46.74     324.129      2.539      1.
  6.743     46.74     289.025      3.245      2.
  6.743     46.74     286.169      2.275      3.
  6.743     52.42     208.500      2.187      2.
  6.743     52.42     207.036      1.221      3.
  6.743     58.04     158.493      2.450      2.
  6.743     58.04     156.626      1.723      3.
  6.743     63.60     113.802      0.923      3.
  6.743     69.10      79.914      1.679      2.
  6.743     69.10      82.062      1.207      3.
  6.743     74.53      65.706      0.682      3.
  6.743     79.88      57.500      1.443      2.
  6.743     79.88      57.547      1.030      3.
  6.743     79.88      61.093      0.381      3.
  6.743     85.16      55.827      0.637      3.
  6.743     85.16      59.631      0.764      4.
  6.743     90.36      58.110      0.655      3.
  6.743     95.48      50.679      0.706      4.
  6.743    100.52      45.320      0.568      3.
  6.743    105.47      34.757      0.604      4.
  6.743    110.35      27.948      0.443      3.
  6.743    110.35      28.333      0.509      4.
  6.743    115.15      21.130      0.454      4.
  6.743    119.87      16.765      0.407      4.
  6.743    129.09      14.577      0.364      4.
  6.743    133.59      13.565      0.506      4.
  6.743    138.03      11.215      0.333      4.
  6.743    142.41       9.445      0.465      4.
  6.743    151.00       5.949      0.356      4.
  6.743    159.42      10.643      0.542      4.
  8.559     11.87      43.101      1.342      1.
  8.559     17.79      22.569      1.029      2.
  8.559     23.69      12.431      0.765      1.
  8.559     29.56       9.590      0.693      2.
  8.559     35.40      11.937      0.612      1.
  8.559     41.20      10.689      0.667      2.
  8.559     46.95       9.718      0.582      1.
  8.559     46.95       9.596      0.752      2.
  8.559     46.95       8.593      0.552      3.
  8.559     52.64       5.999      0.430      2.
  8.559     52.64       5.706      0.284      3.
  8.559     58.29       3.560      0.449      2.
  8.559     58.29       3.389      0.335      3.
  8.559     63.86       2.208      0.168      3.
  8.559     69.37       3.549      0.423      2.
  8.559     69.37       3.803      0.254      3.
  8.559     74.81       4.520      0.348      3.
  8.559     80.18       5.193      0.448      2.
  8.559     80.18       5.462      0.358      3.
  8.559     80.18       5.910      0.448      3.
  8.559     85.46       4.710      0.369      3.
  8.559     85.46       4.433      0.369      4.
  8.559     90.67       3.328      0.206      3.
  8.559     95.79       2.483      0.265      4.
  8.559    100.83       1.903      0.164      3.
  8.559    105.79       1.418      0.152      4.
  8.559    110.67       1.376      0.150      3.
  8.559    110.67       1.812      0.212      4.
  8.559    115.46       1.842      0.188      4.
  8.559    120.17       2.461      0.228      4.
  8.559    129.36       2.998      0.209      4.
  8.559    133.85       3.419      0.329      4.
  8.559    138.27       1.875      0.208      4.
  8.559    142.63       1.807      0.347      4.
  8.559    151.18       1.557      0.246      4.
  8.559    159.55       1.746      0.366      4.
  8.92      11.88      20.757      1.075      1.
  8.92      17.81      20.824      0.981      2.
  8.92      23.71      21.142      0.929      1.
  8.92      29.59      16.806      0.859      2.
  8.92      35.43      15.164      0.687      1.
  8.92      41.23       9.585      0.621      2.
  8.92      46.99       9.568      0.601      1.
  8.92      46.99       8.295      0.572      2.
  8.92      46.99       8.758      0.497      3.
  8.92      52.69      10.987      0.546      2.
  8.92      52.69      10.654      0.319      3.
  8.92      58.34      13.997      0.823      2.
  8.92      58.34      12.515      0.558      3.
  8.92      63.92      15.485      0.408      3.
  8.92      69.43      12.899      0.817      2.
  8.92      69.43      13.137      0.529      3.
  8.92      74.87       9.920      0.298      3.
  8.92      80.24       8.556      0.553      2.
  8.92      80.24       6.138      0.458      3.
  8.92      80.24       8.008      0.286      3.
  8.92      85.53       8.657      0.303      3.
  8.92      85.53       8.649      0.386      4.
  8.92      90.74       8.993      0.320      3.
  8.92      95.86       5.810      0.373      4.
  8.92     100.90       3.630      0.239      3.
  8.92     105.86       2.687      0.209      4.
  8.92     110.73       2.790      0.216      3.
  8.92     110.73       2.401      0.187      4.
  8.92     115.52       1.961      0.128      4.
  8.92     120.23       1.722      0.146      4.
  8.92     129.42       2.092      0.157      4.
  8.92     133.91       2.206      0.263      4.
  8.92     138.32       3.649      0.181      4.
  8.92     142.68       5.360      0.696      4.
  8.92     151.22       9.379      0.542      4.
  8.92     159.58      12.967      1.134      4.
 10.33      11.93       9.948      1.651      1.
 10.33      17.88      10.769      1.924      2.
 10.33      23.80      10.390      1.230      1.
 10.33      29.70       9.979      1.612      2.
 10.33      35.57       8.516      0.911      1.
 10.33      41.39       7.011      0.640      2.
 10.33      47.16       4.379      0.459      3.
 10.33      69.67       3.080      0.849      2.
 10.33      69.67       2.991      0.545      3.
 10.33      75.12       3.580      0.587      3.
 10.33     106.13       4.427      0.512      4.
 10.33     111.00       4.000      0.518      3.
 10.33     111.00       3.987      0.931      4.
 10.33     115.79       3.272      0.865      4.
 10.33     120.49       3.323      0.906      4.
 10.33     129.66       3.425      0.660      4.
 10.33     134.13       6.647      1.574      4.
 10.33     138.53       5.990      0.896      4.
 10.33     142.87      10.092      1.194      4.
 10.33     151.38      12.206      0.597      4.
 10.33     159.69      22.825      0.624      4.
 11.6       11.98      73.206      2.698      1.
 11.6       17.95      54.600      1.702      2.
 11.6       23.89      48.532      1.547      1.
 11.6       29.81      37.102      1.342      2.
 11.6       35.70      16.356      1.055      1.
 11.6       41.54      19.961      1.183      2.
 11.6       47.33      12.806      2.852      1.
 11.6       47.33       7.031      0.848      2.
 11.6       47.33      11.517      0.966      3.
 11.6       53.07       7.245      0.828      2.
 11.6       53.07       8.999      0.514      3.
 11.6       58.74       8.710      1.037      2.
 11.6       58.74       4.991      0.663      3.
 11.6       64.35       2.655      0.339      3.
 11.6       69.89       3.386      0.776      2.
 11.6       69.89       2.945      0.543      3.
 11.6       75.36       3.046      0.385      3.
 11.6       80.74       5.103      0.808      2.
 11.6       80.74       2.134      0.493      3.
 11.6       80.74       3.396      0.378      3.
 11.6       86.05       2.187      0.281      3.
 11.6       86.05       6.105      0.439      4.
 11.6       91.26       3.805      0.291      3.
 11.6       96.39       5.016      0.373      4.
 11.6      101.44       6.259      0.282      3.
 11.6      106.39       5.480      0.342      4.
 11.6      111.26       5.741      0.375      3.
 11.6      111.26       5.727      0.428      4.
 11.6      116.04       4.520      0.369      4.
 11.6      120.74       4.119      0.369      4.
 11.6      129.88       3.720      0.478      4.
 11.6      134.34       4.055      0.751      4.
 11.6      138.73       2.092      0.351      4.
 11.6      143.06       3.928      0.743      4.
 12.9       12.03     191.009      4.143      1.
 12.9       18.02      91.904      2.624      2.
 12.9       23.99      54.880      2.039      1.
 12.9       29.93      52.059      3.318      2.
 12.9       35.84      62.862      2.095      1.
 12.9       41.70      55.056      1.828      2.
 12.9       47.52      46.333      2.264      1.
 12.9       47.52      42.378      2.177      2.
 12.9       47.52      41.642      1.692      3.
 12.9       53.27      29.392      1.623      2.
 12.9       53.27      25.867      2.635      3.
 12.9       58.97      13.640      1.438      2.
 12.9       58.97      21.102      1.722      3.
 12.9       64.59       9.722      1.601      3.
 12.9       70.15       8.257      1.265      2.
 12.9       70.15      10.964      0.960      3.
 12.9       75.62       9.582      0.590      3.
 12.9       81.02       9.998      1.208      2.
 12.9       81.02      11.173      1.019      3.
 12.9       81.02       8.158      0.761      3.
 12.9       86.33       9.004      0.416      3.
 12.9       86.33       9.129      0.576      4.
 12.9       91.55       8.932      0.560      3.
 12.9       96.69       5.616      0.412      4.
 12.9      101.73       7.569      0.515      3.
 12.9      106.68       8.926      0.714      4.
 12.9      111.55       4.166      0.448      3.
 12.9      111.55       4.395      0.498      4.
 12.9      116.32       4.007      0.441      4.
 12.9      121.01       3.741      0.471      4.
 12.9      130.14       4.279      0.820      4.
 12.9      138.95       4.756      0.789      4.
 14.53      18.12      16.700      4.220      2.
 14.53      24.13      17.600      3.596      1.
 14.53      30.10      23.127      3.353      2.
 14.53      36.04      12.375      1.853      1.
 14.53      41.93      17.313      1.898      2.
 14.53      47.77      10.993      1.697      1.
 14.53      47.77      19.562      4.281      2.
 14.53      47.77      12.971      3.701      3.
 14.53      53.55      10.940      3.441      2.
 14.53      53.55      13.800      2.297      3.
 14.53      59.27      11.677      3.185      2.
 14.53      59.27       8.094      2.437      3.
 14.53      64.92       6.357      1.463      3.
 14.53      70.49      10.343      2.866      2.
 14.53      70.49       8.560      2.292      3.
 14.53      75.98       5.424      1.601      3.
 14.53      81.39       9.307      2.884      2.
 14.53      81.39       8.451      2.176      3.
 14.53      81.39       5.783      1.715      3.
 14.53      86.71       5.474      1.275      3.
 14.53      86.71       4.596      1.997      4.
 14.53      91.94       5.003      1.247      3.
 14.53      97.08       4.694      1.454      4.
 14.53     102.13       7.471      1.197      3.
 14.53     107.08       6.785      1.603      4.
 14.53     111.94       5.548      1.003      3.
 14.53     111.94       9.206      1.250      4.
 14.53     116.71       6.637      1.319      4.
 14.53     121.38       6.873      1.200      4.
 15.3       12.13     119.109      6.413      1.
 15.3       18.17     120.217      4.399      2.
 15.3       24.19     115.572      4.152      1.
 15.3       30.18      65.476      5.407      2.
 15.3       36.14      40.958      3.041      1.
 15.3       42.04      31.998      2.876      2.
 15.3       47.90      22.809      4.224      1.
 15.3       47.90      28.416      2.564      2.
 15.3       47.90      36.073      2.410      3.
 15.3       53.69      18.233      1.560      2.
 15.3       53.69      24.213      2.267      3.
 15.3       59.42      17.359      1.750      2.
 15.3       59.42      29.483      2.120      3.
 15.3       65.08      26.407      2.418      3.
 15.3       70.67      21.885      1.847      2.
 15.3       76.17      13.797      0.792      3.
 15.3       81.58      12.281      1.931      2.
 15.3       81.58       7.823      1.286      3.
 15.3       86.91       7.014      0.852      3.
 15.3       86.91       9.282      1.029      4.
 15.3       92.14       7.572      0.836      3.
 15.3       97.29       8.230      0.825      4.
 15.3      102.33       6.767      0.627      3.
 15.3      107.28       6.125      0.679      4.
 15.3      116.90       5.130      0.676      4.
 16.5       12.19      24.680     13.190      1.
 16.5       18.26      24.062      2.869      2.
 16.5       24.31      27.232     11.066      1.
 16.5       30.32      29.580      2.714      2.
 16.5       36.30      38.902     19.890      1.
 16.5       42.23      28.298      2.193      2.
 16.5       48.11      23.575      3.615      1.
 16.5       48.11      26.730      5.607      2.
 16.5       48.11      16.700      4.461      3.
 16.5       53.93      17.936      3.535      2.
 16.5       53.93      15.557      1.704      3.
 16.5       59.68      28.165      5.220      2.
 16.5       59.68      18.804      3.080      3.
 16.5       65.36      13.704      1.733      3.
 16.5       70.96      13.703      1.943      2.
 16.5       70.96      12.843      2.775      3.
 16.5       76.47       6.689      1.210      3.
 16.5       81.90       5.626      2.107      3.
 16.5       87.24       5.472      1.872      3.
 16.5       87.24       5.601      1.836      4.
 16.5       92.48       6.151      2.329      3.
 16.5       97.62       3.369      0.786      4.
 16.5      102.67       4.364      1.696      3.
 16.5      107.62       2.950      1.388      4.
 16.5      112.47       2.476      1.015      3.
 16.5      117.23       3.957      1.451      4.
 19.1       12.32      33.263      7.858      1.
 19.1       18.46      33.303      5.505      2.
 19.1       24.58      35.826      7.096      1.
 19.1       30.66      22.282      4.000      2.
 19.1       36.70      23.452      7.997      1.
 19.1       42.69      20.423      2.906      2.
 19.1       48.62      22.532      6.741      1.
 19.1       48.62      22.351      8.588      2.
 19.1       48.62      10.383      2.520      3.
 19.1       54.49      13.189      5.756      2.
 19.1       54.49      12.709      3.526      4.
 19.1       60.29      17.117      5.754      2.
 19.1       60.29      18.591      5.327      3.
 19.1       66.01      11.375      3.347      4.
 19.1       71.65      14.623      3.673      2.
 19.1       71.65       9.159      4.708      3.
 19.1       77.20       8.175      2.615      4.
ENDDATA            438
ENDSUBENT          449
ENDENTRY             2
