ENTRY            C0754   20010119   20010330
SUBENT        C0754001   20010119   20010330
BIB                 10         14
INSTITUTE  (1USAFLA)
REFERENCE  (J,NP/A,198,505,1972)
AUTHOR     (W.R.OTT,H.R.WELLER)
TITLE      A Study of 15N by Means of the 11B(alpha,alpha)11B
            Reaction
FACILITY   (VDG,1USAFLA)
SAMPLE     Self-supporting boron films, enriched to 98% 11B.
DETECTOR   (SOLST)
MONITOR    Target thickness determined relative to energy loss of
            5.4-MeV alpha particles from the decay of 241Am.
           Beam energy calibrated using 7Li(p,n)7 Be threshold
            energy and 12C(alpha,alpha)12C resonance at 4.24 MeV.
STATUS     No reply from H.R. Weller to author proof.
HISTORY    (20001201C) VM
ENDBIB              14
COMMON               3          3
EN-ERR     EN-RSL     DATA-ERR
KEV        KEV        PER-CENT
 25.        20.        30.
ENDCOMMON            3
ENDSUBENT           21
SUBENT        C0754002   20001201   20010330
BIB                  4         10
REACTION   (5-B-11(A,EL)5-B-11,,DA,,RTH)
ERR-ANALYS (DATA-ERR) Absolute uncertainty; no information on
            contributions given.
           Statistical uncertainty 3%.
           Below 50 degrees, there is an uncertainty due to 12C
            contaminant in sample of 15%.
STATUS     (CURVE) Data downloaded from SIGMABASE Web site.
            Data for other angles at 50 and 140 degrees given in
            Fig. 3. Angular distributions given in Fig. 4
COMMENT    Multiple measurements at same energy.
ENDBIB              10
COMMON               1          3
ANG-CM
ADEG
160.5
ENDCOMMON            3
DATA                 2        169
EN         DATA-CM
MEV        NO-DIM
  4.022      1.34
  4.022      1.34
  4.022      1.34
  4.033      1.35
  4.044      1.44
  4.055      1.45
  4.055      1.45
  4.066      1.46
  4.078      1.38
  4.078      1.38
  4.100      1.48
  4.100      1.40
  4.111      1.49
  4.111      1.49
  4.122      1.59
  4.122      1.59
  4.155      2.33
  4.167      2.52
  4.167      2.43
  4.178      2.63
  4.189      2.64
  4.200      2.66
  4.211      2.76
  4.234      2.79
  4.245      2.81
  4.267      2.74
  4.412      3.95
  4.424      4.07
  4.424      4.07
  4.435      4.09
  4.435      4.09
  4.457      3.82
  4.468      3.95
  4.536      4.28
  4.558      4.54
  4.614      4.76
  4.772      2.38
  4.772      2.27
  4.772      2.38
  4.783      2.28
  4.783      2.16
  4.828      2.20
  4.850      2.47
  4.862      2.60
  4.873      2.61
  4.873      2.61
  4.884      2.62
  4.884      2.62
  4.895      2.64
  4.940      1.93
  4.974      1.83
  5.196      8.02
  5.253      4.62
  5.352      8.81
  5.352      8.67
  5.386      9.98
  5.397     10.17
  5.408     10.21
  5.408     10.21
  5.419     10.26
  5.419     10.26
  5.442     10.19
  5.486     10.98
  5.540     16.77
  5.551     17.00
  5.563     17.07
  5.563     17.07
  5.574     17.14
  5.574     17.14
  5.608     16.54
  5.620     12.52
  5.678      9.43
  5.689      9.47
  5.700      9.51
  5.711      9.71
  5.711      9.71
  5.722      9.92
  5.722      9.92
  5.733     10.30
  5.733     10.30
  5.733     10.13
  5.777     12.71
  5.800     12.29
  5.822     12.74
  5.833     12.79
  5.856     12.35
  5.900     16.15
  5.923     15.18
  5.945     15.30
  5.977     19.73
  6.000     18.76
  6.010     21.26
  6.105      6.67
  6.126      8.47
  6.138      6.36
  6.138      6.55
  6.138      6.75
  6.149      6.38
  6.149      6.38
  6.161      6.40
  6.172      6.82
  6.172      7.02
  6.172      6.63
  6.183      7.24
  6.216      9.73
  6.260     11.49
  6.283     11.78
  6.316     13.56
  6.372     13.81
  6.394     13.91
  6.484     12.78
  6.495     13.04
  6.506     13.75
  6.506     13.31
  6.517     14.23
  6.517     14.67
  6.528     15.39
  6.528     15.17
  6.539     15.66
  6.591     33.49
  6.602     34.28
  6.647     34.29
  6.670     32.45
  6.707     20.68
  6.752     19.55
  6.762     23.64
  6.784     26.18
  6.817     27.88
  6.874     26.39
  6.896     25.58
  6.907     25.66
  6.930     26.58
  6.930     26.08
  6.941     26.41
  6.964     25.08
  7.100     18.76
  7.121     21.51
  7.144     21.64
  7.166     22.05
  7.246     17.64
  7.257     18.24
  7.268     18.03
  7.268     18.03
  7.279     18.08
  7.290     18.14
  7.302     18.20
  7.302     18.20
  7.313     18.53
  7.313     18.25
  7.324     18.87
  7.324     18.87
  7.335     19.20
  7.335     18.93
  7.346     19.26
  7.369     19.66
  7.380     19.44
  7.413     22.18
  7.514     24.55
  7.525     23.75
  7.547     25.07
  7.581     25.60
  7.672     17.07
  7.683     17.12
  7.706     16.91
  7.760     24.03
  7.783     25.42
  7.805     23.99
  7.827     28.26
  7.838     27.07
ENDDATA            171
ENDSUBENT          190
ENDENTRY             2
