ENTRY            30756   20090908   20091224   20091223       3141
SUBENT        30756001   20090908   20091224   20091223       3141
BIB                 15         24
TITLE      Neutron cross section of gallium between 0.4669
           and 5151 eV.
AUTHOR     (R.E.Mayer,V.H.Gillette,J.R.Granada)
INSTITUTE  (3ARGCAB)
EXP-YEAR   (1986)
REFERENCE  (W,MAYER,19870923)
SAMPLE     Natural Ga
MONITOR    Absolute measurements
FACILITY   (LINAC,3ARGCAB) Pulsed 25 MeV electron linear acceler.
INC-SOURCE A lead target was located inside a polypropilene
           moderator with graphite reflector
METHOD     (TRN) Transmission measurements.
           (TOF) Flight path = 17.85 m.
           Sample-in sample-out method was used.
DETECTOR   (HE3SP) Seven He-3 counter, each 2.5 cm diam. and
                   15 cm active length,10 atm.filling gas pressure
CORRECTION Background, dead-time(negligible),mean-emission-time
           of neutron source, in-scattering and multiple
           scattering estimated negligible.
ERR-ANALYS (DATA-ERR) Quoted errors due to statistics and
           uncertainty of sample thickness.
STATUS     (TABLE) Data taken from priv.comm.Mayer 23 Sept.1987
HISTORY    (19871007C) DG.-
           (20090725A) SD:Updated to new date formats,lower case.
ENDBIB              24
NOCOMMON             0          0
ENDSUBENT           27
SUBENT        30756002   20090908   20091224   20091223       3141
BIB                  1          1
REACTION   (31-GA-0(N,TOT),,SIG)
ENDBIB               1
COMMON               2          3
TEMP       TEMP-ERR
K          K
278.       1.
ENDCOMMON            3
DATA                 3        209
EN         DATA       DATA-ERR
EV         B          B
  5.151E+03   8.756    0.340
  4.623E+03   9.178    0.479
  4.173E+03   9.155    0.363
  3.785E+03   8.925    0.526
  3.448E+03   8.057    0.195
  3.155E+03   8.807    0.407
  2.898E+03   8.292    0.336
  2.670E+03   8.052    0.411
  2.469E+03   8.576    0.488
  2.289E+03   8.384    0.300
  2.129E+03   7.705    0.301
  1.985E+03   8.386    0.296
  1.854E+03  10.010    0.457
  1.737E+03  10.320    0.289
  1.630E+03  10.260    0.273
  1.533E+03  10.240    0.382
  1.444E+03   9.514    0.450
  1.362E+03   7.652    0.471
  1.288E+03   7.618    0.403
  1.219E+03   6.522    0.424
  1.156E+03   7.047    0.491
  1.097E+03   6.556    0.377
  1.043E+03   7.106    0.437
  9.929E+02   8.315    0.599
  9.462E+02   7.905    0.245
  9.027E+02   8.276    0.486
  8.621E+02   7.577    0.333
  8.242E+02   7.914    0.212
  7.888E+02   9.175    0.441
  7.556E+02  11.780    0.490
  7.244E+02  12.920    0.496
  6.951E+02  12.970    0.373
  6.676E+02  11.650    0.458
  6.417E+02   9.969    0.515
  6.172E+02   9.125    0.388
  5.942E+02   8.973    0.357
  5.724E+02   9.607    0.342
  5.517E+02   9.452    0.354
  5.322E+02   9.504    0.437
  5.137E+02  10.600    0.397
  4.961E+02  12.010    0.524
  4.795E+02  13.090    0.446
  4.636E+02  12.540    0.456
  4.485E+02  13.320    0.649
  4.342E+02  13.600    0.457
  4.205E+02  16.960    0.555
  4.075E+02  20.430    0.611
  3.950E+02  28.190    0.515
  3.832E+02  32.460    1.179
  3.718E+02  31.330    0.803
  3.609E+02  29.540    0.594
  3.506E+02  28.370    0.596
  3.406E+02  25.870    0.472
  3.311E+02  31.810    0.613
  3.220E+02  38.720    0.603
  3.132E+02  44.210    1.081
  3.048E+02  55.200    1.815
  2.967E+02  67.820    2.235
  2.890E+02  75.410    1.544
  2.815E+02  68.790    2.172
  2.743E+02  50.420    1.036
  2.674E+02  35.930    0.907
  2.608E+02  25.930    0.838
  2.544E+02  18.540    0.718
  2.482E+02  15.500    0.709
  2.423E+02  12.030    0.575
  2.365E+02   9.860    0.379
  2.310E+02   8.942    0.440
  2.231E+02   6.734    0.310
  2.131E+02   6.747    0.242
  2.038E+02   6.009    0.211
  1.951E+02   5.535    0.315
  1.869E+02   5.462    0.317
  1.792E+02   5.868    0.306
  1.720E+02   5.688    0.257
  1.652E+02   6.108    0.342
  1.589E+02   6.085    0.421
  1.528E+02   5.845    0.388
  1.472E+02   6.793    0.365
  1.418E+02   6.135    0.217
  1.367E+02   5.832    0.329
  1.319E+02   6.100    0.384
  1.273E+02   6.309    0.442
  1.240E+02   7.749    0.364
  1.219E+02   7.835    0.488
  1.199E+02   9.228    0.361
  1.179E+02  10.410    0.683
  1.159E+02  12.230    0.542
  1.140E+02  18.370    0.599
  1.121E+02  21.580    0.841
  1.103E+02  21.040    1.021
  1.085E+02  16.790    0.628
  1.068E+02  11.090    0.569
  1.051E+02   8.576    0.399
  1.035E+02   8.840    0.355
  1.019E+02   9.812    0.524
  1.003E+02  11.810    0.650
  9.876E+01  18.180    0.766
  9.726E+01  24.230    0.305
  9.579E+01  25.830    0.556
  9.435E+01  22.420    0.778
  9.295E+01  14.980    0.358
  9.158E+01  11.460    0.408
  9.024E+01   9.211    0.432
  8.892E+01   8.503    0.511
  8.764E+01   7.138    0.551
  8.638E+01   6.949    0.751
  8.515E+01   5.843    0.507
  8.395E+01   6.386    0.558
  7.369E+01   6.127    0.156
  6.479E+01   6.253    0.166
  5.741E+01   6.711    0.140
  5.123E+01   6.651    0.162
  4.599E+01   6.732    0.156
  4.152E+01   6.809    0.148
  3.767E+01   6.475    0.162
  3.433E+01   6.371    0.145
  3.141E+01   6.651    0.168
  2.886E+01   7.037    0.153
  2.660E+01   6.826    0.162
  2.460E+01   6.934    0.154
  2.281E+01   6.639    0.156
  2.121E+01   6.661    0.138
  1.978E+01   6.808    0.118
  1.848E+01   6.800    0.155
  1.731E+01   7.069    0.161
  1.625E+01   6.707    0.158
  1.528E+01   7.053    0.166
  1.440E+01   6.701    0.200
  1.359E+01   6.638    0.167
  1.284E+01   6.971    0.160
  1.216E+01   6.896    0.149
  1.153E+01   6.868    0.186
  1.095E+01   7.033    0.193
  9.905E+00   7.224    0.116
  9.006E+00   6.950    0.112
  8.224E+00   6.994    0.117
  7.540E+00   7.027    0.117
  6.937E+00   6.863    0.129
  6.404E+00   7.111    0.118
  5.931E+00   7.063    0.116
  5.507E+00   7.206    0.082
  5.128E+00   7.063    0.110
  4.787E+00   7.092    0.117
  4.478E+00   7.068    0.113
  4.198E+00   7.232    0.119
  3.944E+00   7.151    0.139
  3.712E+00   7.188    0.125
  3.501E+00   7.304    0.119
  3.306E+00   7.215    0.113
  3.128E+00   7.112    0.119
  2.963E+00   7.202    0.122
  2.811E+00   7.193    0.136
  2.671E+00   7.262    0.104
  2.541E+00   7.206    0.121
  2.420E+00   6.935    0.119
  2.307E+00   7.407    0.119
  2.203E+00   7.543    0.125
  2.105E+00   7.453    0.122
  2.013E+00   7.480    0.140
  1.928E+00   7.317    0.127
  1.847E+00   7.059    0.120
  1.772E+00   7.276    0.128
  1.701E+00   7.439    0.135
  1.634E+00   7.423    0.141
  1.572E+00   7.441    0.133
  1.512E+00   7.383    0.113
  1.456E+00   7.167    0.108
  1.403E+00   7.420    0.118
  1.353E+00   7.470    0.139
  1.306E+00   7.345    0.139
  1.261E+00   7.425    0.141
  1.218E+00   7.288    0.145
  1.177E+00   7.274    0.154
  1.139E+00   7.456    0.133
  1.102E+00   7.361    0.137
  1.067E+00   7.321    0.149
  1.034E+00   7.280    0.144
  1.002E+00   7.510    0.152
  9.715E-01   7.353    0.129
  9.425E-01   7.540    0.134
  9.148E-01   7.661    0.149
  8.883E-01   7.506    0.151
  8.629E-01   7.729    0.134
  8.387E-01   7.579    0.135
  8.154E-01   7.354    0.155
  7.931E-01   7.431    0.146
  7.716E-01   7.697    0.145
  7.511E-01   7.556    0.143
  7.313E-01   7.667    0.151
  7.123E-01   7.267    0.150
  6.941E-01   7.478    0.148
  6.765E-01   7.521    0.143
  6.596E-01   7.681    0.158
  6.433E-01   7.516    0.176
  6.276E-01   7.407    0.181
  6.125E-01   7.128    0.154
  5.979E-01   7.611    0.161
  5.839E-01   7.411    0.178
  5.703E-01   7.710    0.183
  5.572E-01   7.232    0.177
  5.446E-01   7.741    0.206
  5.323E-01   7.248    0.208
  5.205E-01   7.661    0.162
  5.091E-01   7.614    0.176
  4.980E-01   7.609    0.205
  4.873E-01   7.624    0.199
  4.770E-01   7.464    0.211
  4.669E-01   7.571    0.203
ENDDATA            211
ENDSUBENT          221
ENDENTRY             2
