ENTRY            O2022   20120828   20121218   20121211       O049
SUBENT        O2022001   20120828   20121218   20121211       O049
BIB                 11         42
TITLE      High-resolution spectroscopy of Sn-112 through the
           Sn-114(p,t)Sn-112 reaction
AUTHOR     (P.Guazzoni, L.Zetta, A.Covello, A.Gargano, B.F.Bayman,
           G.Graw, R.Hertenberger, H.-F.Wirth, T.Faestermann,
           M.Jaskola)
INSTITUTE  (2ITYMIL)
           (2ITYNAP)
           (1USAMIN)
           (2GERMUN)
           (3POLIPJ)
REFERENCE  (J,PR/C,85,054609,2012)
HISTORY    (20120828C) sb
SAMPLE     The Sn-114 target, isotopic enrichment 71.0% with
           a thickness of 113 mug/cm**2 on a carbon backing of
            7.5 mug/cm**2. Contaminants  present in the target-
           Sn-112 0.27%, Sn-115 0.77%, Sn-116 12.23%,
           Sn-117 2.45%, Sn-118 6.30%, Sn-119 1.78%,
           Sn-120 5.89%, Sn-122 0.60%, Sn-124 0.61%.
           The Sn-124 target, isotopic enrichment 96.71% with a
           thickness of 80 mug/cm**2  on a carbon backing of
             10 mug/cm**2.
           In order to allow safe identification of the residual
           nucleus Sn-112 level energies and correct evaluation
           of the differential cross sections, a natural tin
           target Sn-nat, thickness 127 mug/cm**2 on a carbon
           backing of 10 mug/cm**2 was also used in the
           experiment, as reference. Contaminants  present in the
           target-Sn-112 1.00%, Sn-114 0.7%, Sn-115 0.4%,
           Sn-116 14.73%, Sn-117 7.7%, Sn-118 24.30%, Sn-119 8.6%,
           Sn-120 32.4%, Sn-122 4.6%, Sn-124 5.6%.
DETECTOR   (MAGSP) The Q3D magnetic spectrograph.
           (PROPC)
           (SCIN)
FACILITY   (VDGT,2GERMUN) MP tandem accelerator Technical
           University of Munich.
           (VDGT,2GERLMU) the HVEC MP Tandem accelerator of the
           Maier-Leibnitz Laboratory of the Ludwig Maximilians
METHOD     (BCINT)
STATUS     (TABLE).Table data were received from Dr.L.Zetta
           03.09.2012
           (APRVD).By Dr.L.Zetta
ERR-ANALYS (DATA-ERR).The errors is reported by author.
ENDBIB              42
NOCOMMON             0          0
ENDSUBENT           45
SUBENT        O2022002   20120828   20121218   20121211       O049
BIB                  3         30
REACTION   (50-SN-114(P,T)50-SN-112,PAR,DA)
EN-SEC     (E-LVL,50-SN-112)
LEVEL-PROP (50-SN-112,E-LVL=0.000,SPIN=0.,PARITY=+1.)
           (50-SN-112,E-LVL=1.257,SPIN=2.,PARITY=+1.)
           (50-SN-112,E-LVL=2.151,SPIN=2.,PARITY=+1.)
           (50-SN-112,E-LVL=2.248,SPIN=4.,PARITY=+1.)
           (50-SN-112,E-LVL=2.355,SPIN=3.,PARITY=-1.)
           (50-SN-112,E-LVL=2.476,SPIN=2.,PARITY=+1.)
           (50-SN-112,E-LVL=2.521,SPIN=4.,PARITY=+1.)
           (50-SN-112,E-LVL=2.549,SPIN=6.,PARITY=+1.)
           (50-SN-112,E-LVL=2.618,SPIN=0.,PARITY=+1.)
           (50-SN-112,E-LVL=2.722,SPIN=2.,PARITY=+1.)
           (50-SN-112,E-LVL=2.784,SPIN=4.,PARITY=+1.)
           (50-SN-112,E-LVL=2.927,SPIN=6.,PARITY=+1.)
           (50-SN-112,E-LVL=2.946,SPIN=4.,PARITY=+1.)
           (50-SN-112,E-LVL=2.966,SPIN=2.,PARITY=+1.)
           (50-SN-112,E-LVL=2.988,SPIN=0.,PARITY=+1.)
           (50-SN-112,E-LVL=3.142,SPIN=5.,PARITY=-1.)
           (50-SN-112,E-LVL=3.248,SPIN=2.,PARITY=+1.)
           (50-SN-112,E-LVL=3.275,SPIN=4.,PARITY=+1.)
           (50-SN-112,E-LVL=3.286,SPIN=2.,PARITY=+1.)
           (50-SN-112,E-LVL=3.345,SPIN=2.,PARITY=+1.)
           (50-SN-112,E-LVL=3.400,SPIN=4.,PARITY=+1.)
           (50-SN-112,E-LVL=3.414,SPIN=6./4.,PARITY=+1.)
           (50-SN-112,E-LVL=3.445,SPIN=4.,PARITY=+1.)
           (50-SN-112,E-LVL=3.481,SPIN=4.,PARITY=+1.)
           (50-SN-112,E-LVL=3.510,SPIN=5.,PARITY=-1.)
           (50-SN-112,E-LVL=3.554,SPIN=3.,PARITY=-1.)
           (50-SN-112,E-LVL=3.586,SPIN=2.,PARITY=+1.)
           (50-SN-112,E-LVL=3.624,SPIN=4.,PARITY=+1.)
ENDBIB              30
COMMON               1          3
EN
MEV
22.
ENDCOMMON            3
DATA                 4        224
E-LVL      ANG-CM     DATA-CM    DATA-ERR
MEV        ADEG       MU-B/SR    MU-B/SR
0.000      10.19      1833.000   13.812
0.000      15.29      526.089    6.288
0.000      20.38      385.339    3.926
0.000      28.02      1185.210   12.268
0.000      35.64      852.772    8.906
0.000      43.25      217.050    3.030
0.000      50.85      49.427     0.843
0.000      58.44      183.308    2.144
1.257      10.22      146.007    2.051
1.257      15.32      166.380    3.694
1.257      20.43      152.400    1.605
1.257      28.08      101.122    0.991
1.257      35.71      39.839     0.835
1.257      43.34      43.623     0.582
1.257      50.95      56.592     0.471
1.257      58.55      46.024     0.473
2.151      10.23      2.858      0.570
2.151      15.34      2.537      0.500
2.151      20.44      2.052      0.400
2.151      28.10      1.027      0.200
2.151      35.75      0.732      0.140
2.151      43.38      1.010      0.200
2.151      51.00      1.013      0.200
2.151      58.60      0.509      0.100
2.248      10.23      19.291     3.375
2.248      15.34      23.149     3.473
2.248      20.45      26.201     2.085
2.248      28.10      30.841     2.224
2.248      35.75      29.708     2.164
2.248      43.38      19.519     1.368
2.248      51.00      12.194     0.940
2.248      58.60      13.565     0.809
2.355      10.23      54.779     5.686
2.355      15.34      51.606     5.185
2.355      20.45      45.460     2.746
2.355      28.11      41.759     2.587
2.355      35.75      32.506     2.263
2.355      43.39      20.955     1.417
2.355      51.01      18.347     1.153
2.355      58.61      15.679     0.870
2.476      10.23      1.623      0.400
2.476      15.34      1.813      0.400
2.476      20.45      1.218      0.300
2.476      28.11      0.719      0.200
2.476      35.76      0.500      0.150
2.476      43.39      0.718      0.200
2.476      51.01      0.898      0.240
2.476      58.61      0.728      0.200
2.521      10.23      2.527      0.600
2.521      15.34      3.515      0.700
2.521      20.45      3.565      0.769
2.521      28.11      4.845      0.881
2.521      35.76      4.444      0.837
2.521      43.40      3.039      0.540
2.521      51.01      2.024      0.383
2.521      58.62      1.696      0.286
2.549      10.23      4.425      1.000
2.549      15.34      4.361      1.000
2.549      20.45      5.353      1.000
2.549      28.11      5.541      1.000
2.549      35.76      8.146      1.500
2.549      43.40      8.343      1.500
2.549      51.02      7.658      1.500
2.549      58.62      5.956      1.200
2.618      10.23      0.736      0.300
2.618      15.34      0.586      0.200
2.618      20.46      1.224      0.300
2.618      28.11      2.165      0.300
2.618      35.76      1.494      0.300
2.618      43.40      0.212      0.100
2.618      51.02      0.105      0.040
2.618      58.62      0.268      0.114
2.722      10.23      21.703     3.578
2.722      15.35      18.370     3.092
2.722      20.46      12.922     1.463
2.722      28.12      7.971      1.130
2.722      35.77      5.460      0.927
2.722      43.40      6.517      0.790
2.722      51.03      6.446      0.684
2.722      58.63      4.148      0.447
2.784      10.23      5.048      1.000
2.784      15.35      5.967      1.000
2.784      20.46      7.199      1.092
2.784      28.12      9.159      1.211
2.784      35.77      9.351      1.213
2.784      43.41      6.812      0.808
2.784      51.03      3.352      0.493
2.784      58.63      3.918      0.435
2.927      10.24      2.947      0.700
2.927      15.35      3.902      0.700
2.927      20.46      4.348      0.849
2.927      28.12      4.804      0.877
2.927      35.78      6.494      1.000
2.927      43.41      7.447      1.200
2.927      51.04      6.528      1.000
2.927      58.64      4.892      0.800
2.946      10.24      2.163      0.500
2.946      15.35      2.513      0.500
2.946      20.46      2.378      0.500
2.946      28.13      2.740      0.500
2.946      35.78      3.181      0.500
2.946      43.42      2.200      0.459
2.946      51.04      1.064      0.278
2.946      58.64      1.446      0.264
2.966      10.24      28.607     1.730
2.966      15.35      23.390     1.500
2.966      20.46      16.963     1.297
2.966      28.13      8.922      0.939
2.966      35.78      7.253      0.736
2.966      43.42      11.086     0.913
2.966      51.04      10.223     0.790
2.966      58.64      4.776      0.422
2.988      10.24      6.536      0.827
2.988      15.35      5.578      0.733
2.988      20.46      18.334     1.800
2.988      28.13      33.654     3.000
2.988      35.78      23.615     2.500
2.988      43.42      5.221      0.626
2.988      51.04      2.698      0.406
2.988      58.65      7.962      1.000
3.142      10.24      2.613      0.523
3.142      15.35      3.306      0.564
3.142      20.47      4.459      0.665
3.142      28.13      5.322      0.725
3.142      35.79      5.030      0.750
3.142      43.43      5.046      0.750
3.142      51.05      3.523      0.600
3.142      58.65      2.398      0.350
3.248      10.24      7.948      0.911
3.248      15.36      6.003      0.760
3.248      20.47      3.315      0.573
3.248      28.14      1.966      0.441
3.248      35.79      1.439      0.328
3.248      43.43      2.465      0.430
3.248      51.06      2.412      0.384
3.248      58.66      1.471      0.234
3.275      10.24      1.622      0.412
3.275      15.36      1.750      0.410
3.275      20.47      2.123      0.459
3.275      28.14      2.865      0.532
3.275      35.79      2.561      0.437
3.275      43.43      1.784      0.366
3.275      51.06      0.992      0.246
3.275      58.66      1.167      0.209
3.286      10.24      3.198      0.578
3.286      15.36      2.685      0.508
3.286      20.47      1.480      0.300
3.286      28.14      1.230      0.250
3.286      35.79      0.821      0.160
3.286      43.43      0.909      0.180
3.286      51.06      0.953      0.190
3.286      58.66      0.538      0.100
3.345      10.24      4.842      0.711
3.345      15.36      3.395      0.571
3.345      20.47      2.087      0.455
3.345      28.14      1.399      0.372
3.345      35.79      1.260      0.307
3.345      43.44      1.932      0.381
3.345      51.06      2.028      0.352
3.345      58.67      1.030      0.196
3.400      10.24      4.415      0.800
3.400      15.36      6.591      1.000
3.400      20.48      7.503      1.000
3.400      28.14      9.253      1.200
3.400      35.80      8.621      1.200
3.400      43.44      5.854      0.750
3.400      51.06      3.950      0.600
3.400      58.67      4.194      0.600
3.414      10.24      1.061      0.333
3.414      15.36      1.445      0.373
3.414      20.48      1.337      0.364
3.414      28.14      1.250      0.351
3.414      35.80      1.148      0.293
3.414      43.44      1.029      0.278
3.414      51.07      1.003      0.247
3.414      58.67      1.077      0.280
3.445      10.24      0.783      0.200
3.445      15.36      0.738      0.200
3.445      20.48      0.852      0.200
3.445      28.14      0.934      0.200
3.445      35.80      1.008      0.200
3.445      43.44      0.649      0.150
3.445      51.07      0.408      0.100
3.445      58.67      0.342      0.070
3.481      10.24      1.044      0.200
3.481      15.36      1.201      0.200
3.481      20.48      1.313      0.200
3.481      28.14      1.429      0.200
3.481      35.80      1.105      0.150
3.481      43.44      0.815      0.150
3.481      51.07      0.423      0.080
3.481      58.68      0.441      0.060
3.510      10.24      0.849      0.150
3.510      15.36      0.901      0.150
3.510      20.48      1.152      0.200
3.510      28.15      1.470      0.200
3.510      35.80      1.625      0.200
3.510      43.44      1.462      0.200
3.510      51.07      1.070      0.150
3.510      58.68      0.762      0.100
3.554      10.24      3.509      0.600
3.554      15.36      3.267      0.500
3.554      20.48      3.093      0.500
3.554      28.15      2.400      0.350
3.554      35.80      1.625      0.200
3.554      43.45      0.891      0.150
3.554      51.07      1.348      0.200
3.554      58.68      1.348      0.200
3.586      10.24      2.208      0.300
3.586      15.36      1.665      0.300
3.586      20.48      1.113      0.200
3.586      28.15      0.594      0.150
3.586      35.81      0.380      0.100
3.586      43.45      0.624      0.120
3.586      51.08      0.722      0.120
3.586      58.68      0.436      0.100
3.624      10.24      1.828      0.350
3.624      15.36      2.347      0.350
3.624      20.48      2.722      0.350
3.624      28.15      2.976      0.350
3.624      35.81      2.763      0.350
3.624      43.45      1.777      0.250
3.624      51.08      0.953      0.150
3.624      58.69      1.293      0.200
ENDDATA            226
ENDSUBENT          265
ENDENTRY             2
