ENTRY            C1032   20090721   20090724   20090724       C090
SUBENT        C1032001   20090721   20090724   20090724       C090
BIB                  8         12
INSTITUTE  (1USARIC)
REFERENCE  (J,PR,112,547,1958)
AUTHOR     (E.Kashy,P.D.Miller,J.R.Risser)
TITLE      Energy Levels in F18 from the N14(alpha,alpha)N14 and
            N14(alpha,p)O17 Reactions
FACILITY   (VDG,1USARIC)
SAMPLE     N2 gas target.
DETECTOR   (CSICR)
HISTORY    (20040420C) VM
           (20090720A) SD: Data units were changed from mb/sr
                           on b/sr in both subents (002,003)
                           according to the ref.
ENDBIB              12
NOCOMMON             0          0
ENDSUBENT           15
SUBENT        C1032002   20090721   20090724   20090724       C090
BIB                  3          7
REACTION   (7-N-14(A,EL)7-N-14,,DA)
ERR-ANALYS Systematic uncertainties in data assumed to be 5%.
           Statistical uncertainty <1% for 168 degree data and
            ~3% for other angles.
           (EN-ERR-DIG) Digitizing error
           (ERR-DIG)    Digitizing error
STATUS     (CURVE) Scanned from Fig. 1 in reference at IAEA-NDS.
ENDBIB               7
COMMON               2          3
EN-ERR-DIG ERR-DIG
MEV        MB/SR
 0.005       0.002
ENDCOMMON            3
DATA                 3        488
ANG-CM     EN         DATA-CM
ADEG       MEV        B/SR
 54.73       2.698      1.255
 54.73       2.711      1.239
 54.73       2.716      1.234
 54.73       2.726      1.217
 54.73       2.736      1.196
 54.73       2.750      1.184
 54.73       2.761      1.184
 54.73       2.769      1.191
 54.73       2.786      1.177
 54.73       2.796      1.156
 54.73       2.806      1.156
 54.73       2.814      1.134
 54.73       2.827      1.113
 54.73       2.837      1.089
 54.73       2.848      1.055
 54.73       2.854      1.010
 54.73       2.871      0.957
 54.73       2.884      0.928
 54.73       2.893      0.885
 54.73       2.904      0.888
 54.73       2.906      0.914
 54.73       2.922      0.934
 54.73       2.929      0.943
 54.73       2.939      0.951
 54.73       2.945      0.943
 54.73       2.954      0.944
 54.73       2.964      0.946
 54.73       2.973      0.946
 54.73       2.980      0.946
 54.73       2.993      0.932
 54.73       2.998      0.922
 54.73       3.008      0.915
 54.73       3.018      0.901
 54.73       3.020      0.891
 54.73       3.028      0.865
 54.73       3.040      0.841
 54.73       3.042      0.829
 54.73       3.055      0.798
 54.73       3.062      0.777
 54.73       3.067      0.770
 54.73       3.082      0.729
 54.73       3.085      0.717
 54.73       3.100      0.729
 54.73       3.103      0.717
 54.73       3.110      0.724
 54.73       3.123      0.746
 54.73       3.129      0.746
 54.73       3.133      0.775
 54.73       3.154      0.785
 54.73       3.179      0.821
 54.73       3.198      0.840
 54.73       3.220      0.850
 54.73       3.245      0.848
 54.73       3.271      0.848
 54.73       3.288      0.827
 54.73       3.307      0.825
 54.73       3.319      0.820
 54.73       3.360      0.794
 54.73       3.377      0.784
 54.73       3.398      0.782
 54.73       3.420      0.785
 54.73       3.458      0.783
 54.73       3.468      0.771
 54.73       3.488      0.761
 54.73       3.524      0.759
 54.73       3.539      0.745
 54.73       3.565      0.736
 54.73       3.600      0.703
 54.73       3.602      0.717
 54.73       3.612      0.719
 54.73       3.631      0.758
 54.73       3.636      0.772
 54.73       3.636      0.760
 54.73       3.646      0.746
 54.73       3.653      0.739
 54.73       3.658      0.729
 54.73       3.659      0.720
 54.73       3.670      0.677
 54.73       3.676      0.677
 54.73       3.678      0.634
 54.73       3.690      0.608
 54.73       3.693      0.596
 54.73       3.701      0.548
 54.73       3.711      0.541
 54.73       3.718      0.536
 54.73       3.726      0.548
 54.73       3.733      0.541
 54.73       3.739      0.584
 54.73       3.749      0.613
 54.73       3.759      0.642
 54.73       3.770      0.644
 54.73       3.787      0.647
 54.73       3.802      0.649
 54.73       3.808      0.652
 54.73       3.817      0.645
 54.73       3.830      0.635
 54.73       3.840      0.633
 54.73       3.853      0.633
 54.73       3.863      0.636
 54.73       3.874      0.633
 54.73       3.886      0.629
 54.73       3.901      0.624
 54.73       3.908      0.612
 54.73       3.919      0.598
 54.73       3.929      0.586
 54.73       3.941      0.576
 54.73       3.947      0.555
 54.73       3.961      0.533
 54.73       3.974      0.497
 54.73       3.979      0.483
 54.73       3.989      0.476
 54.73       3.994      0.440
 54.73       3.999      0.426
 54.73       4.004      0.435
 54.73       4.012      0.421
 54.73       4.017      0.404
 54.73       4.025      0.428
 54.73       4.037      0.469
 54.73       4.040      0.462
 54.73       4.050      0.496
 54.73       4.057      0.498
 54.73       4.068      0.486
 54.73       4.083      0.460
 54.73       4.090      0.448
 54.73       4.101      0.453
 54.73       4.113      0.470
 54.73       4.123      0.492
 54.73       4.139      0.504
 54.73       4.160      0.535
 54.73       4.179      0.552
 54.73       4.202      0.548
 54.73       4.223      0.524
 54.73       4.241      0.500
 54.73       4.265      0.483
 54.73       4.273      0.488
 54.73       4.291      0.481
 54.73       4.304      0.498
 54.73       4.329      0.496
 54.73       4.345      0.506
 54.73       4.372      0.513
 54.73       4.405      0.528
 54.73       4.428      0.526
 54.73       4.451      0.526
 54.73       4.468      0.516
 54.73       4.479      0.469
 54.73       4.499      0.466
 54.73       4.519      0.539
 54.73       4.540      0.560
 54.73       4.561      0.551
 54.73       4.576      0.537
 54.73       4.591      0.537
 54.73       4.601      0.510
 54.73       4.624      0.472
 54.73       4.638      0.434
 54.73       4.658      0.408
 54.73       4.671      0.394
 54.73       4.696      0.375
 54.73       4.721      0.368
 54.73       4.755      0.373
 54.73       4.775      0.371
 54.73       4.790      0.373
 54.73       4.813      0.373
 54.73       4.830      0.371
 54.73       4.846      0.369
 54.73       4.859      0.357
 54.73       4.883      0.333
 54.73       4.916      0.288
 90.00       2.853      0.209
 90.00       2.910      0.202
 90.00       2.931      0.202
 90.00       2.956      0.200
 90.00       2.976      0.193
 90.00       3.002      0.199
 90.00       3.025      0.202
 90.00       3.047      0.200
 90.00       3.065      0.199
 90.00       3.088      0.192
 90.00       3.112      0.183
 90.00       3.133      0.179
 90.00       3.155      0.177
 90.00       3.178      0.167
 90.00       3.201      0.163
 90.00       3.228      0.161
 90.00       3.248      0.156
 90.00       3.271      0.160
 90.00       3.301      0.150
 90.00       3.312      0.149
 90.00       3.325      0.151
 90.00       3.363      0.152
 90.00       3.383      0.146
 90.00       3.410      0.138
 90.00       3.430      0.137
 90.00       3.463      0.135
 90.00       3.476      0.136
 90.00       3.498      0.127
 90.00       3.499      0.129
 90.00       3.506      0.121
 90.00       3.519      0.123
 90.00       3.528      0.114
 90.00       3.549      0.114
 90.00       3.567      0.115
 90.00       3.582      0.116
 90.00       3.594      0.114
 90.00       3.602      0.106
 90.00       3.609      0.104
 90.00       3.618      0.107
 90.00       3.629      0.094
 90.00       3.634      0.097
 90.00       3.639      0.093
 90.00       3.645      0.086
 90.00       3.655      0.084
 90.00       3.662      0.089
 90.00       3.662      0.092
 90.00       3.670      0.093
 90.00       3.678      0.100
 90.00       3.678      0.108
 90.00       3.686      0.112
 90.00       3.694      0.127
 90.00       3.697      0.123
 90.00       3.707      0.129
 90.00       3.714      0.142
 90.00       3.717      0.144
 90.00       3.730      0.141
 90.00       3.740      0.134
 90.00       3.762      0.130
 90.00       3.782      0.121
 90.00       3.807      0.119
 90.00       3.828      0.116
 90.00       3.850      0.107
 90.00       3.873      0.107
 90.00       3.891      0.103
 90.00       3.913      0.104
 90.00       3.934      0.102
 90.00       3.961      0.100
 90.00       3.980      0.107
 90.00       4.000      0.116
 90.00       4.025      0.110
 90.00       4.041      0.106
 90.00       4.063      0.108
 90.00       4.086      0.110
 90.00       4.107      0.114
 90.00       4.134      0.116
 90.00       4.145      0.112
 90.00       4.159      0.108
 90.00       4.182      0.101
 90.00       4.202      0.095
 90.00       4.227      0.092
 90.00       4.245      0.088
 90.00       4.266      0.087
 90.00       4.285      0.084
 90.00       4.304      0.085
 90.00       4.328      0.083
 90.00       4.351      0.079
 90.00       4.371      0.076
 90.00       4.384      0.074
 90.00       4.407      0.068
 90.00       4.425      0.067
 90.00       4.450      0.055
 90.00       4.470      0.057
 90.00       4.483      0.059
 90.00       4.505      0.068
 90.00       4.528      0.066
 90.00       4.541      0.063
 90.00       4.561      0.061
 90.00       4.582      0.057
 90.00       4.601      0.050
 90.00       4.626      0.044
 90.00       4.646      0.042
 90.00       4.660      0.045
 90.00       4.673      0.052
 90.00       4.700      0.057
 90.00       4.719      0.064
 90.00       4.739      0.063
 90.00       4.754      0.068
 90.00       4.775      0.065
 90.00       4.790      0.064
 90.00       4.812      0.059
 90.00       4.830      0.056
 90.00       4.848      0.053
 90.00       4.865      0.053
 90.00       4.881      0.054
 90.00       4.903      0.049
 90.00       4.918      0.043
168.40       2.681      0.051
168.40       2.692      0.048
168.40       2.702      0.044
168.40       2.711      0.043
168.40       2.724      0.043
168.40       2.737      0.039
168.40       2.744      0.040
168.40       2.755      0.038
168.40       2.762      0.034
168.40       2.777      0.033
168.40       2.788      0.039
168.40       2.796      0.039
168.40       2.812      0.028
168.40       2.825      0.023
168.40       2.835      0.019
168.40       2.845      0.017
168.40       2.857      0.016
168.40       2.881      0.030
168.40       2.891      0.035
168.40       2.907      0.043
168.40       2.927      0.048
168.40       2.939      0.041
168.40       2.949      0.038
168.40       2.962      0.035
168.40       2.970      0.032
168.40       2.979      0.029
168.40       2.994      0.023
168.40       3.015      0.016
168.40       3.032      0.015
168.40       3.043      0.015
168.40       3.053      0.021
168.40       3.066      0.025
168.40       3.078      0.041
168.40       3.087      0.051
168.40       3.102      0.065
168.40       3.110      0.073
168.40       3.120      0.082
168.40       3.136      0.087
168.40       3.146      0.088
168.40       3.159      0.091
168.40       3.172      0.092
168.40       3.186      0.086
168.40       3.196      0.087
168.40       3.209      0.086
168.40       3.216      0.085
168.40       3.230      0.090
168.40       3.240      0.086
168.40       3.257      0.086
168.40       3.265      0.084
168.40       3.280      0.084
168.40       3.288      0.084
168.40       3.302      0.079
168.40       3.361      0.073
168.40       3.426      0.072
168.40       3.477      0.074
168.40       3.548      0.082
168.40       3.564      0.084
168.40       3.576      0.085
168.40       3.584      0.092
168.40       3.591      0.101
168.40       3.595      0.107
168.40       3.599      0.151
168.40       3.602      0.152
168.40       3.606      0.143
168.40       3.607      0.107
168.40       3.610      0.097
168.40       3.614      0.067
168.40       3.621      0.069
168.40       3.622      0.077
168.40       3.624      0.082
168.40       3.629      0.096
168.40       3.635      0.101
168.40       3.642      0.096
168.40       3.648      0.097
168.40       3.658      0.097
168.40       3.660      0.103
168.40       3.663      0.116
168.40       3.669      0.121
168.40       3.674      0.134
168.40       3.679      0.146
168.40       3.694      0.185
168.40       3.702      0.210
168.40       3.705      0.220
168.40       3.710      0.232
168.40       3.716      0.234
168.40       3.723      0.222
168.40       3.727      0.205
168.40       3.730      0.165
168.40       3.733      0.144
168.40       3.741      0.116
168.40       3.750      0.084
168.40       3.762      0.065
168.40       3.773      0.055
168.40       3.787      0.047
168.40       3.797      0.046
168.40       3.800      0.049
168.40       3.808      0.046
168.40       3.813      0.045
168.40       3.820      0.043
168.40       3.830      0.043
168.40       3.838      0.046
168.40       3.851      0.051
168.40       3.859      0.049
168.40       3.861      0.051
168.40       3.873      0.052
168.40       3.881      0.050
168.40       3.901      0.040
168.40       3.911      0.057
168.40       3.919      0.071
168.40       3.925      0.072
168.40       3.930      0.074
168.40       3.938      0.077
168.40       3.950      0.089
168.40       3.956      0.110
168.40       3.957      0.103
168.40       3.964      0.112
168.40       3.967      0.121
168.40       3.970      0.132
168.40       3.975      0.140
168.40       3.981      0.158
168.40       3.984      0.152
168.40       3.991      0.156
168.40       3.998      0.153
168.40       4.003      0.129
168.40       4.007      0.127
168.40       4.011      0.131
168.40       4.019      0.151
168.40       4.022      0.168
168.40       4.030      0.174
168.40       4.034      0.176
168.40       4.044      0.156
168.40       4.049      0.144
168.40       4.056      0.133
168.40       4.061      0.124
168.40       4.066      0.115
168.40       4.071      0.109
168.40       4.075      0.100
168.40       4.082      0.093
168.40       4.088      0.091
168.40       4.092      0.086
168.40       4.097      0.077
168.40       4.097      0.072
168.40       4.101      0.063
168.40       4.111      0.058
168.40       4.116      0.053
168.40       4.122      0.052
168.40       4.126      0.050
168.40       4.131      0.052
168.40       4.142      0.051
168.40       4.149      0.049
168.40       4.154      0.046
168.40       4.169      0.043
168.40       4.182      0.041
168.40       4.201      0.036
168.40       4.209      0.033
168.40       4.220      0.028
168.40       4.234      0.025
168.40       4.237      0.024
168.40       4.251      0.016
168.40       4.260      0.013
168.40       4.271      0.012
168.40       4.279      0.011
168.40       4.287      0.009
168.40       4.300      0.010
168.40       4.308      0.010
168.40       4.320      0.011
168.40       4.332      0.013
168.40       4.340      0.014
168.40       4.352      0.014
168.40       4.358      0.015
168.40       4.368      0.017
168.40       4.376      0.018
168.40       4.389      0.021
168.40       4.399      0.022
168.40       4.407      0.026
168.40       4.422      0.028
168.40       4.431      0.030
168.40       4.440      0.031
168.40       4.453      0.039
168.40       4.457      0.047
168.40       4.461      0.051
168.40       4.471      0.066
168.40       4.474      0.093
168.40       4.477      0.101
168.40       4.481      0.119
168.40       4.488      0.125
168.40       4.495      0.116
168.40       4.498      0.090
168.40       4.501      0.073
168.40       4.508      0.059
168.40       4.509      0.048
168.40       4.520      0.026
168.40       4.532      0.017
168.40       4.540      0.013
168.40       4.550      0.012
168.40       4.558      0.010
168.40       4.571      0.012
168.40       4.580      0.015
168.40       4.591      0.018
168.40       4.599      0.022
168.40       4.609      0.026
168.40       4.627      0.037
168.40       4.652      0.039
168.40       4.675      0.042
168.40       4.695      0.047
ENDDATA            490
ENDSUBENT          506
SUBENT        C1032003   20090721   20090724   20090724       C090
BIB                  3          8
REACTION   (7-N-14(A,P)8-O-17,PAR,DA)
ERR-ANALYS Systematic uncertainties in data varies from 30% at
            smallest cross sections to 3% for largest.
           Statistical uncertainty <1% for 168 degree data and
            ~3% for other angles.
           (EN-ERR-DIG) Digitizing error
           (ERR-DIG)    Digitizing error
STATUS     (CURVE) Scanned from Fig. 2 in reference at IAEA-NDS.
ENDBIB               8
COMMON               3          3
E-LVL      EN-ERR-DIG ERR-DIG
MEV        MEV        B/SR
  0.0        0.005      0.06
ENDCOMMON            3
DATA                 3        285
ANG-CM     EN         DATA-CM
ADEG       MEV        MB/SR
 89.00       3.550      0.538
 89.00       3.556      0.869
 89.00       3.562      1.065
 89.00       3.569      1.595
 89.00       3.572      1.127
 89.00       3.587      1.386
 89.00       3.599      1.514
 89.00       3.608      1.776
 89.00       3.618      1.638
 89.00       3.621      1.038
 89.00       3.628      1.633
 89.00       3.638      2.694
 89.00       3.641      2.093
 89.00       3.646      2.424
 89.00       3.653      3.552
 89.00       3.655      3.218
 89.00       3.662      3.615
 89.00       3.668      3.944
 89.00       3.677      4.340
 89.00       3.687      4.734
 89.00       3.689      5.133
 89.00       3.696      5.795
 89.00       3.699      4.795
 89.00       3.709      5.856
 89.00       3.713      6.853
 89.00       3.719      5.984
 89.00       3.724      5.050
 89.00       3.728      5.913
 89.00       3.731      5.246
 89.00       3.747      5.105
 89.00       3.755      3.437
 89.00       3.770      2.631
 89.00       3.780      1.761
 89.00       3.797      1.353
 89.00       3.815      1.212
 89.00       3.832      1.270
 89.00       3.855      1.059
 89.00       3.877      1.448
 89.00       3.900      1.637
 89.00       3.926      2.357
 89.00       3.946      2.880
 89.00       3.953      3.410
 89.00       3.965      3.870
 89.00       3.973      4.598
 89.00       3.986      7.322
 89.00       3.993      9.116
 89.00       4.000     11.243
 89.00       4.009     10.707
 89.00       4.012      9.707
 89.00       4.015      8.507
 89.00       4.018      8.106
 89.00       4.026      8.302
 89.00       4.033      8.498
 89.00       4.043      8.360
 89.00       4.048      7.892
 89.00       4.049      6.959
 89.00       4.051      7.158
 89.00       4.056      5.891
 89.00       4.065      5.486
 89.00       4.072      5.683
 89.00       4.079      4.615
 89.00       4.084      5.012
 89.00       4.090      5.275
 89.00       4.094      6.072
 89.00       4.101      7.866
 89.00       4.111      6.996
 89.00       4.118      6.128
 89.00       4.124      4.061
 89.00       4.130      3.192
 89.00       4.137      2.989
 89.00       4.138      2.522
 89.00       4.145      2.652
 89.00       4.153      1.716
 89.00       4.161      2.045
 89.00       4.167      2.442
 89.00       4.182      2.835
 89.00       4.190      3.030
 89.00       4.195      3.228
 89.00       4.204      4.156
 89.00       4.206      4.554
 89.00       4.211      5.018
 89.00       4.213      4.751
 89.00       4.219      4.947
 89.00       4.226      5.543
 89.00       4.235      6.072
 89.00       4.242      7.200
 89.00       4.243      6.401
 89.00       4.250      6.864
 89.00       4.257      7.393
 89.00       4.259      8.324
 89.00       4.265      7.988
 89.00       4.272      7.918
 89.00       4.275      8.183
 89.00       4.279      7.449
 89.00       4.285      7.313
 89.00       4.290      6.312
 89.00       4.297      6.908
 89.00       4.298      6.441
 89.00       4.302      6.639
 89.00       4.313      5.635
 89.00       4.320      5.832
 89.00       4.328      5.362
 89.00       4.337      5.225
 89.00       4.350      4.153
 89.00       4.354      3.152
 89.00       4.358      3.550
 89.00       4.376      3.874
 89.00       4.378      3.607
 89.00       4.384      2.738
 89.00       4.388      3.336
 89.00       4.394      2.734
 89.00       4.400      3.929
 89.00       4.403      3.595
 89.00       4.415      3.323
 89.00       4.425      3.718
 89.00       4.426      3.517
 89.00       4.433      3.447
 89.00       4.447      4.240
 89.00       4.455      4.768
 89.00       4.469      6.360
 89.00       4.480      9.284
 89.00       4.488     12.144
 89.00       4.492     15.936
 89.00       4.500     19.861
 89.00       4.508     17.727
 89.00       4.510     18.791
 89.00       4.511     17.392
 89.00       4.514     17.590
 89.00       4.516     16.258
 89.00       4.522     15.456
 89.00       4.523     14.790
 89.00       4.525     13.724
 89.00       4.528     14.188
 89.00       4.542     15.713
 89.00       4.552     15.575
 89.00       4.557     10.845
 89.00       4.571     12.570
 89.00       4.579     11.634
 89.00       4.587     10.631
 89.00       4.600      8.894
 89.00       4.610      7.758
 89.00       4.623      5.954
 89.00       4.629      6.017
 89.00       4.636      5.748
 89.00       4.646      5.210
 89.00       4.656      4.873
 89.00       4.669      5.399
 89.00       4.676      4.930
163.90       3.499      0.988
163.90       3.522      1.115
163.90       3.547      1.714
163.90       3.574      1.975
163.90       3.589      2.307
163.90       3.598      2.506
163.90       3.600      2.909
163.90       3.608      2.638
163.90       3.625      3.306
163.90       3.632      3.976
163.90       3.647      4.779
163.90       3.655      5.785
163.90       3.664      6.320
163.90       3.669      6.790
163.90       3.676      8.872
163.90       3.683     10.349
163.90       3.692     11.825
163.90       3.701     15.386
163.90       3.708     18.611
163.90       3.708     20.426
163.90       3.712     22.039
163.90       3.718     22.709
163.90       3.725     22.035
163.90       3.732     21.361
163.90       3.732     20.621
163.90       3.736     18.267
163.90       3.741     17.190
163.90       3.741     15.980
163.90       3.749     14.230
163.90       3.755     12.211
163.90       3.761      9.655
163.90       3.765     10.393
163.90       3.766      8.443
163.90       3.773      7.769
163.90       3.789      6.017
163.90       3.793      5.612
163.90       3.799      5.073
163.90       3.799      4.737
163.90       3.809      4.263
163.90       3.809      3.726
163.90       3.814      4.934
163.90       3.821      3.789
163.90       3.832      3.585
163.90       3.839      3.650
163.90       3.841      2.977
163.90       3.851      2.907
163.90       3.859      2.972
163.90       3.888      2.897
163.90       3.899      2.894
163.90       3.903      3.229
163.90       3.918      3.090
163.90       3.921      3.426
163.90       3.930      3.759
163.90       3.931      4.498
163.90       3.946      4.494
163.90       3.951      4.022
163.90       3.961      3.751
163.90       3.968      4.152
163.90       3.980      4.821
163.90       3.987      4.080
163.90       3.997      4.346
163.90       3.997      4.682
163.90       4.000      5.689
163.90       4.009      5.822
163.90       4.019      6.021
163.90       4.025      5.481
163.90       4.030      4.606
163.90       4.035      3.999
163.90       4.043      3.123
163.90       4.050      2.718
163.90       4.058      3.186
163.90       4.065      3.453
163.90       4.072      3.182
163.90       4.080      3.113
163.90       4.084      3.717
163.90       4.090      4.253
163.90       4.090      4.858
163.90       4.099      5.797
163.90       4.109      5.323
163.90       4.114      3.641
163.90       4.118      2.026
163.90       4.122      1.421
163.90       4.130      1.082
163.90       4.140      0.810
163.90       4.147      1.010
163.90       4.157      1.008
163.90       4.169      1.946
163.90       4.179      2.480
163.90       4.189      3.217
163.90       4.203      4.424
163.90       4.218      5.159
163.90       4.233      5.894
163.90       4.247      7.101
163.90       4.257      7.972
163.90       4.267      8.238
163.90       4.277      8.033
163.90       4.279      7.697
163.90       4.290      7.492
163.90       4.302      7.489
163.90       4.310      6.276
163.90       4.318      6.408
163.90       4.328      5.935
163.90       4.341      4.385
163.90       4.351      3.710
163.90       4.355      4.180
163.90       4.366      3.706
163.90       4.380      2.627
163.90       4.395      2.824
163.90       4.401      2.150
163.90       4.411      2.080
163.90       4.430      2.008
163.90       4.443      2.071
163.90       4.450      2.338
163.90       4.457      2.740
163.90       4.462      3.075
163.90       4.472      4.416
163.90       4.481      9.927
163.90       4.489     15.236
163.90       4.493     17.251
163.90       4.500     20.275
163.90       4.505     20.004
163.90       4.512     19.935
163.90       4.516     18.589
163.90       4.521     17.512
163.90       4.523     18.789
163.90       4.531     16.300
163.90       4.534     15.559
163.90       4.544     14.414
163.90       4.549     14.412
163.90       4.549     12.799
163.90       4.554     11.453
163.90       4.567      9.634
163.90       4.573      9.229
163.90       4.600      6.869
163.90       4.616      5.721
163.90       4.638      4.976
163.90       4.651      4.770
ENDDATA            287
ENDSUBENT          304
ENDENTRY             3
