ENTRY            12317     841005
SUBENT        12317001     841005              20050926       0000
BIB                  6         10
INSTITUTE  (1USAMTR)
REFERENCE  (J,BAP,1,327(G9),5612)
           (C,66WASH,,919,6603) RENORMALIZED DATA.
           (R,IDO-16366,5611) TABULATED DATA
AUTHOR     (E.H.MAGLEBY,J.R.SMITH,J.E.EVANS,M.S.MOORE)
TITLE      ENERGY DEPENDENCE OF ETA FOR URANIUM-233 IN THE REGION
           0.1 TO 4.0EV.
STATUS     (SCSRS)
HISTORY    (760804T) TRANSLATED FROM SCISRS
           (841005A) CONVERTED TO REACTION FORMALISM
ENDBIB              10
NOCOMMON             0          0
ENDSUBENT           13
SUBENT        12317002     841005              20050926       0000
BIB                  4          8
REACTION   (92-U-233(N,ABS),,ETA)
FACILITY   (SPECC)    CRYSTAL SPECTROMETER
MONITOR    (92-U-233(N,ABS),,ETA)
            NORMALIZED TO ETA = 2.298 AT 0.025 EV
            AND 2.288 AT 0.57 EV.
COMMENT    REAVERAGED AND RENORMALIZED TO MN BATH DATA OF
            IDO-17140,30(1966). SEE NEUTRON CROSS SECTION TECH.
            919(1966).
ENDBIB               8
NOCOMMON             0          0
DATA                 3        154
EN         DATA       DATA-ERR
MEV        NO-DIM     NO-DIM
 2.21   -08 2.288  +00 3.2    -02
 2.41   -08 2.293  +00 1.6    -02
 2.60   -08 2.295  +00 1.5    -02
 2.84   -08 2.307  +00 2.2    -02
 3.18   -08 2.299  +00 1.4    -02
 3.60   -08 2.293  +00 1.5    -02
 4.05   -08 2.301  +00 1.5    -02
 4.55   -08 2.283  +00 1.3    -02
 5.25   -08 2.287  +00 1.3    -02
 6.21   -08 2.296  +00 1.7    -02
 7.62   -08 2.299  +00 1.0    -02
 9.00   -08 2.291  +00 2.0    -02
 9.51   -08 2.277  +00 3.0    -02
 1.00   -07 2.282  +00 2.0    -02
 1.10   -07 2.274  +00 2.0    -02
 1.20   -07 2.255  +00 2.0    -02
 1.30   -07 2.247  +00 2.0    -02
 1.40   -07 2.247  +00 2.0    -02
 1.50   -07 2.243  +00 2.0    -02
 1.60   -07 2.241  +00 2.0    -02
 1.70   -07 2.250  +00 2.0    -02
 1.80   -07 2.262  +00 2.0    -02
 1.90   -07 2.264  +00 2.0    -02
 2.03   -07 2.282  +00 3.1    -02
 2.20   -07 2.311  +00 3.1    -02
 2.40   -07 2.342  +00 3.1    -02
 2.65   -07 2.321  +00 3.1    -02
 3.00   -07 2.326  +00 3.1    -02
 3.50   -07 2.326  +00 3.1    -02
 4.00   -07 2.322  +00 3.1    -02
 4.50   -07 2.285  +00 3.1    -02
 5.40   -07 2.302  +00 3.1    -02
 6.60   -07 2.257  +00 3.1    -02
 8.00   -07 2.299  +00 3.1    -02
 9.58   -07 2.292  +00 3.1    -02
 9.62   -07 2.272  +00 3.1    -02
 1.07   -06 2.260  +00 5.5    -02
 1.12   -06 2.255  +00 5.5    -02
 1.17   -06 2.283  +00 5.5    -02
 1.22   -06 2.230  +00 5.5    -02
 1.27   -06 2.239  +00 5.5    -02
 1.32   -06 2.168  +00 5.5    -02
 1.37   -06 2.219  +00 5.5    -02
 1.43   -06 2.136  +00 5.5    -02
 1.48   -06 2.134  +00 5.5    -02
 1.53   -06 2.090  +00 5.5    -02
 1.58   -06 2.050  +00 5.5    -02
 1.63   -06 2.021  +00 5.5    -02
 1.68   -06 2.043  +00 5.5    -02
 1.73   -06 2.019  +00 5.5    -02
 1.78   -06 2.025  +00 5.5    -02
 1.83   -06 2.051  +00 5.5    -02
 1.88   -06 2.053  +00 5.5    -02
 1.93   -06 2.035  +00 5.5    -02
 1.98   -06 2.058  +00 5.5    -02
 2.03   -06 2.049  +00 5.5    -02
 2.08   -06 1.995  +00 5.5    -02
 2.13   -06 1.944  +00 5.5    -02
 2.18   -06 1.836  +00 5.5    -02
 2.23   -06 1.662  +00 5.5    -02
 2.28   -06 1.535  +00 5.5    -02
 2.33   -06 1.356  +00 5.5    -02
 2.38   -06 1.360  +00 5.5    -02
 2.43   -06 1.402  +00 5.5    -02
 2.48   -06 1.548  +00 5.5    -02
 2.53   -06 1.723  +00 5.5    -02
 2.58   -06 1.829  +00 5.5    -02
 2.63   -06 1.989  +00 5.5    -02
 2.68   -06 2.048  +00 5.5    -02
 2.73   -06 2.062  +00 5.5    -02
 2.78   -06 2.092  +00 5.5    -02
 2.83   -06 2.138  +00 5.5    -02
 2.88   -06 2.215  +00 5.5    -02
 2.93   -06 2.224  +00 5.5    -02
 2.98   -06 2.232  +00 5.5    -02
 3.05   -06 2.265  +00 5.5    -02
 3.15   -06 2.263  +00 5.5    -02
 3.25   -06 2.260  +00 8.0    -02
 3.35   -06 2.232  +00 8.0    -02
 3.50   -06 1.986  +00 8.0    -02
 3.60   -06 1.864  +00 8.0    -02
 3.70   -06 1.948  +00 8.0    -02
 3.80   -06 1.959  +00 8.0    -02
 3.90   -06 2.146  +00 8.0    -02
 4.00   -06 2.231  +00 8.0    -02
 4.10   -06 2.295  +00 8.0    -02
 4.20   -06 2.319  +00 8.0    -02
 4.30   -06 2.373  +00 8.0    -02
 4.40   -06 2.355  +00 8.0    -02
 4.50   -06 2.374  +00 8.0    -02
 4.60   -06 2.345  +00 8.0    -02
 4.70   -06 2.228  +00 8.0    -02
 4.80   -06 2.113  +00 8.0    -02
 4.90   -06 2.148  +00 8.0    -02
 5.00   -06 1.965  +00 8.0    -02
 5.10   -06 1.964  +00 8.0    -02
 5.20   -06 1.976  +00 8.0    -02
 5.30   -06 1.993  +00 8.0    -02
 5.40   -06 2.043  +00 8.0    -02
 5.50   -06 2.046  +00 8.0    -02
 5.60   -06 2.201  +00 8.0    -02
 5.70   -06 2.292  +00 8.0    -02
 5.80   -06 2.171  +00 8.0    -02
 5.90   -06 2.223  +00 8.0    -02
 6.00   -06 2.169  +00 8.0    -02
 6.10   -06 2.242  +00 8.0    -02
 6.20   -06 2.156  +00 8.0    -02
 6.30   -06 2.182  +00 8.0    -02
 6.40   -06 2.082  +00 8.0    -02
 6.50   -06 2.066  +00 8.0    -02
 6.60   -06 1.983  +00 8.0    -02
 6.70   -06 1.900  +00 8.0    -02
 6.80   -06 1.732  +00 8.0    -02
 6.90   -06 1.772  +00 8.0    -02
 7.00   -06 1.801  +00 8.0    -02
 7.10   -06 1.887  +00 8.0    -02
 7.20   -06 1.852  +00 8.0    -02
 7.26   -06 1.917  +00 8.0    -02
 7.40   -06 1.964  +00 8.0    -02
 7.50   -06 2.076  +00 8.0    -02
 7.65   -06 2.125  +00 8.0    -02
 7.78   -06 2.219  +00 8.0    -02
 7.93   -06 2.254  +00 8.0    -02
 8.03   -06 2.103  +00 8.0    -02
 8.11   -06 2.251  +00 8.0    -02
 8.22   -06 2.375  +00 8.0    -02
 8.26   -06 2.261  +00 8.0    -02
 8.37   -06 2.339  +00 8.0    -02
 8.41   -06 2.320  +00 8.0    -02
 8.52   -06 2.338  +00 8.0    -02
 8.59   -06 2.364  +00 8.0    -02
 8.74   -06 2.245  +00 8.0    -02
 8.81   -06 2.333  +00 8.0    -02
 8.96   -06 2.240  +00 8.0    -02
 8.99   -06 2.358  +00 8.0    -02
 9.13   -06 2.127  +00 8.0    -02
 9.16   -06 2.307  +00 8.0    -02
 9.34   -06 2.268  +00 8.0    -02
 9.48   -06 2.188  +00 8.0    -02
 9.53   -06 2.193  +00 8.0    -02
 9.67   -06 2.222  +00 8.0    -02
 9.71   -06 2.252  +00 8.0    -02
 9.89   -06 2.157  +00 8.0    -02
 9.94   -06 2.107  +00 8.0    -02
 1.009  -05 2.147  +00 8.0    -02
 1.031  -05 2.116  +00 8.0    -02
 1.032  -05 2.104  +00 8.0    -02
 1.054  -05 2.108  +00 8.0    -02
 1.060  -05 1.919  +00 8.0    -02
 1.072  -05 2.130  +00 8.0    -02
 1.082  -05 2.070  +00 8.0    -02
 1.094  -05 2.225  +00 8.0    -02
 1.104  -05 2.112  +00 8.0    -02
 1.118  -05 2.318  +00 8.0    -02
ENDDATA            156
ENDSUBENT          169
SUBENT        12317003     841005              20050926       0000
BIB                  5          6
REACTION   (92-U-233(N,ABS),,ETA)
STATUS     (SPSDD)
FACILITY   (SPECC)    CRYSTAL SPECTROMETER
MONITOR    (92-U-233(N,ABS),,ETA)
            NORMALIZED TO ETA=2.28 AT 0.08 EV.
COMMENT    DATA PLOTTED IN IDO-16366.
ENDBIB               6
NOCOMMON             0          0
NODATA               0          0
ENDSUBENT           10
ENDENTRY             3
