ENTRY            10956   20190802   20191125   20191124       1456
SUBENT        10956001   20190802   20191125   20191124       1456
BIB                  7         15
TITLE      Neutron capture and total cross section of Thorium-232
           from 0.006 to 18 eV
AUTHOR     (R.C.Little,R.C.Block,D.R.Harris,R.E.Slovacek,
           O.N.Carlson)
REFERENCE  (J,NSE,79,175,1981)
           (J,ANS,32,748,1979) Preliminary results.
INSTITUTE  (1USARPI,1USAKAP,1USAIOW)
FACILITY   (LINAC,1USARPI) Rensselaer Gaerttner Laboratory
STATUS     (TABLE) Data were provided by R.C.Little in March 1981.
           (APRVD) Approved by R.C.Little, 1981/11/30.
HISTORY    (19810601C)
           (19811218A) BIB updates.
           (20190802A) BP: Updated to new date formats,lower
           case. corrections according last EXFOR rules and
           Dict. Corrected, added preliminary reference.
ENDBIB              15
NOCOMMON             0          0
ENDSUBENT           18
SUBENT        10956002   20190802   20191125   20191124       1456
BIB                  7         13
REACTION   (90-TH-232(N,TOT),,SIG,,AV)
SAMPLE     Two samples used, 0.05843 and 0.14910 atoms/barn
           metallic samples.
DETECTOR   (GLASD) Li-6 glass detector
METHOD     (TOF) Flight path is 26.68-meters. Computer
           controlled sample changer used. Background determined
           with sample package containing Cd,In,Au, and W.
CORRECTION Corrected for background and deadtime.
ERR-ANALYS (ERR-S) Statistical error
           (ERR-SYS,,1.) Systematic error resulting from
           uncertainties in background and sample thickness is
           estimated to be no more than 1%.
HISTORY    (19811218A) BIB corrections, additions.
ENDBIB              13
NOCOMMON             0          0
DATA                 4        118
EN-MIN     EN-MAX     DATA       ERR-S
EV         EV         B          B
    0.00617    0.00650      22.47       1.78
    0.00650    0.00687      22.97       1.53
    0.00687    0.00726      23.78       1.44
    0.00726    0.00769      21.00       1.06
    0.00769    0.00828      20.97      0.855
    0.00828    0.00894      21.35      0.782
    0.00894    0.00969      22.93      0.745
    0.00969     0.0105      23.23      0.626
     0.0105     0.0115      22.10      0.508
     0.0115     0.0126      21.38      0.416
     0.0126     0.0132      20.88      0.420
     0.0132     0.0138      20.33      0.365
     0.0138     0.0145      19.18      0.325
     0.0145     0.0153      19.42      0.313
     0.0153     0.0161      20.33      0.308
     0.0161     0.0170      20.75      0.301
     0.0170     0.0180      20.46      0.274
     0.0180     0.0190      19.74      0.243
     0.0190     0.0201      20.16      0.232
     0.0201     0.0214      19.54      0.207
     0.0214     0.0227      20.10      0.198
     0.0227     0.0242      19.60      0.182
     0.0242     0.0259      19.01      0.164
     0.0259     0.0277      18.58      0.152
     0.0277     0.0297      19.28      0.149
     0.0297     0.0319      19.00      0.140
     0.0319     0.0344      18.74      0.133
     0.0344     0.0372      18.42      0.126
     0.0372     0.0404      17.97      0.120
     0.0404     0.0440      18.03      0.118
     0.0440     0.0481      17.99      0.114
     0.0481     0.0528      17.59      0.111
     0.0528     0.0582      17.28      0.108
     0.0582     0.0645      17.16      0.106
     0.0645     0.0718      17.05      0.105
     0.0718     0.0805      16.60      0.103
     0.0805     0.0909      16.57      0.103
     0.0909      0.104      16.32      0.102
      0.104      0.107      16.11      0.123
      0.107      0.111      16.07      0.122
      0.111      0.115      16.09      0.123
      0.115      0.119      15.98      0.122
      0.119      0.123      15.83      0.123
      0.123      0.128      15.80      0.122
      0.128      0.133      15.64      0.123
      0.133      0.138      15.83      0.124
      0.138      0.143      15.53      0.123
      0.143      0.149      15.59      0.124
      0.149      0.155      15.39      0.124
      0.155      0.162      15.49      0.125
      0.162      0.169      15.32      0.125
      0.169      0.176      15.32      0.126
      0.176      0.184      15.29      0.126
      0.184      0.192      15.13      0.126
      0.192      0.202      15.25      0.127
      0.202      0.211      15.12      0.126
      0.211      0.222      14.93      0.126
      0.222      0.233      14.88      0.126
      0.233      0.245      14.92      0.126
      0.245      0.258      14.85      0.125
      0.258      0.272      14.64      0.124
      0.272      0.288      14.73      0.123
      0.288      0.304      14.68      0.122
      0.304      0.322      14.66      0.122
      0.322      0.342      14.66      0.120
      0.342      0.364      14.45      0.120
      0.364      0.388      14.27      0.118
      0.388      0.414      14.28      0.118
      0.414      0.443      14.17      0.111
      0.443      0.476      14.27      0.103
      0.476      0.512      14.02      0.080
      0.512      0.552      13.97      0.074
      0.552      0.597      13.84      0.069
      0.597      0.648      13.85      0.065
      0.648      0.705      13.76      0.063
      0.705      0.771      13.64      0.061
      0.771      0.846      13.55      0.060
      0.846      0.933      13.46      0.059
      0.933      0.981      13.44      0.065
      0.981       1.03      13.31      0.064
       1.03       1.09      13.33      0.064
       1.09       1.15      13.28      0.064
       1.15       1.22      13.21      0.064
       1.22       1.29      13.19      0.070
       1.29       1.37      13.21      0.070
       1.37       1.46      13.11      0.069
       1.46       1.56      12.97      0.068
       1.56       1.66      12.93      0.068
       1.66       1.78      12.95      0.067
       1.78       1.91      12.86      0.059
       1.91       2.05      12.74      0.058
       2.05       2.21      12.62      0.057
       2.21       2.39      12.68      0.056
       2.39       2.60      12.55      0.056
       2.60       2.83      12.56      0.056
       2.83       3.09      12.46      0.055
       3.09       3.39      12.44      0.055
       3.39       3.74      12.34      0.055
       3.74       4.15      12.17      0.056
       4.15       4.62      12.14      0.061
       4.62       4.89      12.19      0.067
       4.89       5.19      12.05      0.067
       5.19       5.51      12.02      0.066
       5.51       5.86      11.94      0.058
       5.86       6.24      11.86      0.057
       6.24       6.67      11.86      0.056
       6.67       7.14      11.72      0.056
       7.14       7.66      11.75      0.056
       7.66       8.24      11.71      0.055
       8.24       8.89      11.69      0.055
       8.89       9.62      11.48      0.055
       9.62      10.44      11.34      0.054
      10.44      11.37      11.31      0.054
      11.37      12.43      11.22      0.053
      12.43      13.65      11.13      0.053
      13.65      15.06      10.88      0.052
      15.06      16.70      10.70      0.052
      16.70      18.61      10.37      0.059
ENDDATA            120
ENDSUBENT          138
SUBENT        10956003   20190802   20191125   20191124       1456
BIB                 10         19
REACTION   (90-TH-232(N,TOT),,SIG,,,DERIV)
SAMPLE     Two samples used, 0.05843 and 0.14910 atoms/barn
           metallic samples.
DETECTOR   (GLASD) Li-6 glass detector
METHOD     (TOF) Flight path is 26.68-meters. Computer
           controlled sample changer used. Background determined
           with sample package containing Cd,In,Au, and W.
MONITOR    Average resonance parameters used in analysis of data
           taken from ENDF/B-V).
ANALYSIS   (MLA) Computer code MLEVL used to fit data.
CORRECTION Corrected for background and deadtime.
ERR-ANALYS (DATA-ERR) Data error given is statistical error plus
           systematics from background and sample thickness
           uncertainty. Uncertainty in sample thickness
           estimated from combination of area-weight and
           thickness-density methods.
STATUS     (DEP,10956002) Point-wise cross section
HISTORY    (19811218A) BIB corrections, additions.
           (20190802A) Error value corrected
ENDBIB              19
NOCOMMON             0          0
DATA                 3          1
EN         DATA       DATA-ERR
EV         B          B
     0.0253       19.1       0.4
ENDDATA              3
ENDSUBENT           27
SUBENT        10956004   20190802   20191125   20191124       1456
BIB                  8         14
REACTION   (90-TH-232(N,G)90-TH-233,,SIG,,AV)
SAMPLE     Approximately 25-grams of ThO(2).
DETECTOR   (SCIN) 1.25-Meter diameter liquid scintillator
           (NAICR) relative neutron flux determined with B(4)C-NaI
            detector placed at 28.32-meters.
MONITOR    Capture cross sections normalized to ENDF/B-V.
METHOD     (TOF) Flight path of 25.68-meters. Daughter product
           background reduced by 2-3 orders of magnitude by
           chemical separation. Measurements begun immediately
           after separation.
CORRECTION Corrected for multiple scattering, self-shielding in
           sample and background.
ERR-ANALYS (ERR-S) Statisitical error
HISTORY    (19811218A) BIB corrections, additions.
ENDBIB              14
COMMON               2          3
EN-NRM-MIN EN-NRM-MAX
EV         EV
        0.1        0.3
ENDCOMMON            3
DATA                 4        112
EN-MIN     EN-MAX     DATA       ERR-S
EV         EV         B          B
    0.00894    0.00969       8.58      0.282
    0.00969     0.0105       9.18      0.248
     0.0105     0.0115       7.91      0.186
     0.0115     0.0126       8.59      0.171
     0.0126     0.0132       8.72      0.210
     0.0132     0.0138       7.55      0.187
     0.0138     0.0145       7.79      0.171
     0.0145     0.0153       8.00      0.161
     0.0153     0.0161       7.69      0.141
     0.0161     0.0170       7.38      0.135
     0.0170     0.0180       7.63      0.125
     0.0180     0.0190       7.23      0.112
     0.0190     0.0201       7.36      0.104
     0.0201     0.0214       6.81      0.092
     0.0214     0.0227       6.87      0.086
     0.0227     0.0242       6.50      0.075
     0.0242     0.0259       6.41      0.070
     0.0259     0.0277       6.30      0.065
     0.0277     0.0297       6.15      0.059
     0.0297     0.0319       6.15      0.054
     0.0319     0.0344       5.88      0.049
     0.0344     0.0372       5.61      0.045
     0.0372     0.0404       5.45      0.041
     0.0404     0.0440       5.20      0.037
     0.0440     0.0481       5.05      0.034
     0.0481     0.0528       4.92      0.032
     0.0528     0.0582       4.65      0.029
     0.0582     0.0645       4.49      0.027
     0.0645     0.0718       4.38      0.026
     0.0718     0.0805       4.05      0.024
     0.0805     0.0909       3.84      0.023
     0.0909      0.104       3.72      0.024
      0.104      0.107       3.66      0.047
      0.107      0.111       3.58      0.047
      0.111      0.115       3.44      0.047
      0.115      0.119       3.43      0.048
      0.119      0.123       3.34      0.049
      0.123      0.128       3.48      0.050
      0.128      0.133       3.11      0.049
      0.133      0.138       3.02      0.050
      0.138      0.143       3.13      0.051
      0.143      0.149       3.09      0.053
      0.149      0.155       2.94      0.054
      0.155      0.162       2.93      0.056
      0.162      0.169       2.93      0.057
      0.169      0.176       2.78      0.058
      0.176      0.184       2.82      0.060
      0.184      0.192       2.58      0.061
      0.192      0.202       2.56      0.063
      0.202      0.211       2.73      0.065
      0.211      0.222       2.55      0.066
      0.222      0.233       2.46      0.065
      0.233      0.245       2.38      0.065
      0.245      0.258       2.34      0.064
      0.258      0.272       2.03      0.062
      0.272      0.288       2.08      0.061
      0.288      0.304       2.13      0.060
      0.304      0.322       1.90      0.057
      0.322      0.342       1.94      0.058
      0.342      0.364       1.96      0.057
      0.364      0.388       1.90      0.056
      0.388      0.414       1.85      0.055
      0.414      0.443       1.77      0.054
      0.443      0.476       1.61      0.053
      0.476      0.512       1.64      0.052
      0.512      0.552       1.57      0.051
      0.552      0.597       1.41      0.048
      0.597      0.648       1.55      0.047
      0.648      0.705       1.34      0.045
      0.705      0.771       1.23      0.030
      0.771      0.846       1.15      0.027
      0.846      0.933       1.08      0.025
      0.933      0.981       1.01      0.033
      0.981       1.03      0.964      0.031
       1.03       1.09       1.09      0.031
       1.09       1.15       1.03      0.030
       1.15       1.22      0.939      0.029
       1.22       1.29      0.874      0.028
       1.29       1.37      0.728      0.027
       1.37       1.46      0.901      0.026
       1.46       1.56      0.777      0.025
       1.56       1.66      0.783      0.024
       1.66       1.78      0.769      0.023
       1.78       1.91      0.672      0.023
       1.91       2.05      0.632      0.022
       2.05       2.21      0.627      0.021
       2.21       2.39      0.563      0.020
       2.39       2.60      0.662      0.020
       2.60       2.83      0.506      0.019
       2.83       3.09      0.552      0.019
       3.09       3.39      0.569      0.018
       3.39       3.74      0.447      0.017
       3.74       4.15      0.460      0.016
       4.15       4.62      0.322      0.016
       4.62       4.89      0.387      0.022
       4.89       5.19      0.336      0.021
       5.19       5.51      0.238      0.021
       5.51       5.86      0.347      0.021
       5.86       6.24      0.289      0.020
       6.24       6.67      0.228      0.019
       6.67       7.14      0.304      0.019
       7.14       7.66      0.211      0.018
       7.66       8.24      0.228      0.018
       8.24       8.89      0.363      0.017
       8.89       9.62      0.299      0.016
       9.62      10.44      0.133      0.016
      10.44      11.37      0.176      0.015
      11.37      12.43      0.171      0.015
      12.43      13.65      0.212      0.014
      13.65      15.06      0.178      0.014
      15.06      16.70      0.187      0.013
      16.70      18.61      0.180      0.013
ENDDATA            114
ENDSUBENT          137
ENDENTRY             4
