ENTRY            10963   20210827   20220419   20220419       1491
SUBENT        10963001   20210827   20220419   20220419       1491
BIB                 10         21
TITLE      Neutron capture cross section in 64Zn
AUTHOR     (J.B.Garg,V.K.Tikku,J.Halperin,R.Macklin)
INSTITUTE  (1USAORL,1USAALB)
REFERENCE  (J,PR/C,23,683,1981)
           #doi:10.1103/PhysRevC.23.683
REL-REF    (I,,R.L.Macklin,J,NIM,91,79,1971) Detectors details.
FACILITY   (LINAC,1USAORL) Oak Ridge electron linear accelerator.
SAMPLE     (30-ZN-64,ENR=0.9787) Circular disk of zinc oxide,
           1.3-cm radius, 0.6-cm thick. Mass is 6.73-grams,
           97.87% Zn-64.
DETECTOR   Pair of total energy gamma detectors placed on either
           side of sample
CORRECTION Corrections made for sample thickness, doppler
           broadening, energy resolution, and scattered neutron
           sensitivity of detectors.
HISTORY    (19820115C)
           (19821203A) Energy range moved to san 2.
           (20060309C) DR format updated and entries 3 (stat-W g)
                       4 (units and  assumed 5) corrected.
           (20210827A) BP: Updated entry, sample,  added doi,
                        digitized data.
ENDBIB              21
NOCOMMON             0          0
ENDSUBENT           24
SUBENT        10963002   20210827   20220419   20220419       1491
BIB                  3          3
REACTION   (30-ZN-64(N,G)30-ZN-65,,SIG)
STATUS     (CURVE) Figs. 1-5, pages 684-685.
HISTORY    (20210827A) BP: Digitized data.
ENDBIB               3
NOCOMMON             0          0
DATA                 2       1723
EN         DATA
KEV        MB
      2.659   2163.185
      2.710   1709.798
      2.722   1206.377
      2.753    904.145
      2.804    652.097
      2.855    400.049
      2.906    231.892
      2.997    147.325
      3.097     79.461
      3.208     78.636
      3.339     44.104
      3.430     43.428
      3.541     25.824
      3.662     41.702
      3.813     23.797
      3.893     39.975
      3.994     72.781
      4.044    240.187
      4.094    357.259
      4.111   1498.026
      4.152   5088.183
      4.182   1497.500
      4.203   1044.339
      4.235    440.099
      4.276    288.795
      4.367    204.228
      4.407    136.815
      4.470   3038.916
      4.478    119.512
      4.538     85.505
      4.649     51.123
      4.750     50.373
      4.851     49.622
      4.961     65.574
      5.082     64.673
      5.143     47.445
      5.173   7446.250
      5.203    114.107
      5.294     79.875
      5.405     79.048
      5.526     44.592
      5.667     43.541
      5.788     42.640
      5.908     58.517
      5.952   2709.096
      5.989     57.917
      6.080     40.462
      6.221     22.633
      6.341    122.402
      6.473     37.536
      6.594     36.634
      6.694    136.552
      6.795     18.355
      6.956      0.375
      7.118     15.953
      7.319    -19.106
      7.551     -4.053
      7.782     10.998
      7.964    -23.910
      8.135    -25.186
      8.246     -9.233
      8.377     40.125
      8.421   6146.935
      8.447     22.821
      8.578     21.846
      8.679    -12.461
      8.760      3.716
      8.780   3946.365
      8.823   6395.605
      8.833   2687.625
      8.850      3.041
      9.042      1.614
      9.193     17.266
      9.394     15.765
      9.546     14.638
      9.757     -3.716
      9.949    -21.921
     10.026     46.771
     10.173     33.408
     10.294     33.408
     10.414     60.134
     10.508     40.089
     10.615    126.949
     10.640    587.973
     10.682    220.490
     10.721    400.891
     10.788    628.062
     10.829    334.076
     10.869    200.445
     10.936    126.949
     11.056    273.942
     11.097     93.541
     11.204     80.178
     11.311     40.089
     11.499     40.089
     11.699     53.452
     11.833     46.771
     11.981     46.771
     12.023        42.
     12.044        57.
     12.086        50.
     12.093       675.
     12.096       195.
     12.098       332.
     12.099      1026.
     12.113      1292.
     12.117       111.
     12.120       934.
     12.123       500.
     12.133        43.
     12.150        43.
     12.171        28.
     12.208        28.
     12.239        36.
     12.255        36.
     12.276        29.
     12.302        37.
     12.323        37.
     12.344        37.
     12.367        37.
     12.386        52.
     12.412        83.
     12.437       152.
     12.444        83.
     12.465        68.
     12.498        84.
     12.519       122.
     12.533       183.
     12.554       183.
     12.577       206.
     12.584       267.
     12.601       336.
     12.619       390.
     12.633       443.
     12.654       519.
     12.675       657.
     12.696       558.
     12.708       489.
     12.727       451.
     12.732       406.
     12.750       352.
     12.767       284.
     12.788       254.
     12.807       231.
     12.830       178.
     12.854       155.
     12.875       148.
     12.896       133.
     12.917        95.
     12.936        49.
     12.950       110.
     12.973       103.
     12.994        27.
     13.013        65.
     13.031       118.
     13.048        65.
     13.076        58.
     13.109        35.
     13.141        20.
     13.169        51.
     13.200        44.
     13.226        44.
     13.254        44.
     13.277       128.
     13.284       318.
     13.285      1080.
     13.286       585.
     13.293      3412.
     13.296      1797.
     13.297      2566.
     13.302      3816.
     13.314      2239.
     13.314      3587.
     13.315      3267.
     13.315      1035.
     13.319       342.
     13.326        75.
     13.347        45.
     13.366        45.
     13.389        45.
     13.417        22.
     13.441        38.
     13.520    106.904
     13.600     66.815
     13.734     40.089
     13.841     53.452
     13.881     73.497
     13.967   2973.274
     14.002     66.815
     14.096     86.860
     14.149     46.771
     14.337     66.815
     14.471     40.089
     14.645     40.089
     14.778    100.223
     14.859     53.452
     14.979     86.860
     15.059    126.949
     15.113    273.942
     15.165    621.381
     15.218    881.960
     15.232    728.285
     15.286    400.891
     15.327    207.127
     15.434     93.541
     15.608     80.178
     15.702     73.497
     15.823     53.452
     15.956     53.452
     16.211     33.408
     16.385     33.408
     16.505     26.726
     16.693     40.089
     16.813     26.726
     16.934     33.408
     17.020   2759.465
     17.054    100.223
     17.108     46.771
     17.215     33.408
     17.402     20.045
     17.563     20.045
     17.750     20.045
     17.965     13.363
     18.152     20.045
     18.313     13.363
     18.366     66.815
     18.391    621.381
     18.454   2365.256
     18.472    507.795
     18.540     26.726
     18.594     73.497
     18.687     33.408
     18.902     46.771
     19.102     20.045
     19.357     20.045
     19.544     26.726
     19.758     13.363
     19.932     26.726
     20.188     33.632
     20.402     26.906
     20.722     26.906
     21.096     40.359
     21.271   1494.014
     21.338    497.758
     21.416     80.717
     21.604     20.179
     21.790     40.359
     21.978     13.453
     22.200   1735.426
     22.244     33.632
     22.404     33.632
     22.538    141.256
     22.648    497.758
     22.726     94.170
     22.832     53.812
     23.046     26.906
     23.126     94.170
     23.338     13.453
     23.660     20.179
     24.006     40.359
     24.300     13.453
     24.594     13.453
     24.888     33.632
     25.102     20.179
     25.342     13.453
     25.608     20.179
     25.664    269.058
     25.772    632.287
     25.824    188.341
     25.876     26.906
     26.062     33.632
     26.090    289.238
     26.200    625.561
     26.278    215.247
     26.330     20.179
     26.624     40.359
     26.890     20.179
     27.238     20.179
     27.532     13.453
     27.878     13.453
     28.146     20.179
     28.360    100.897
     28.442    645.740
     28.576    746.637
     28.626     26.906
     28.760      6.726
     28.946     60.538
     29.028    147.982
     29.082    437.220
     29.188    369.955
     29.214     40.359
     29.346     13.453
     29.454     40.359
     29.510    410.314
     29.616    343.049
     29.696    262.332
     29.748     67.265
     29.854     33.632
     30.094     33.632
     30.282     40.359
     30.470    147.982
     30.580   1008.969
     30.684    215.247
     30.792    538.117
     30.870    161.435
     30.896     67.265
     31.056    147.982
     31.190     26.906
     31.296     26.906
     31.456    100.897
     31.536     26.906
     31.696     26.906
     31.910     20.179
     32.070     60.538
     32.178    107.623
     32.312    181.614
     32.472    262.332
     32.552    181.614
     32.712    221.973
     32.792     94.170
     32.978     47.085
     33.298     40.359
     33.726     33.632
     34.046     53.812
     34.420     33.632
     34.740     13.453
     35.034     33.632
     35.146    726.457
     35.250    349.776
     35.302    107.623
     35.408     26.906
     35.516     26.906
     35.622     94.170
     35.706    645.740
     35.836     20.179
     36.024    134.529
     36.102     47.085
     36.262     47.085
     36.504     53.812
     36.664    161.435
     36.746    612.108
     36.798    255.605
     36.904     60.538
     37.038     47.085
     37.170     47.085
     37.278    114.350
     37.386    255.605
     37.518     33.632
     37.784     40.359
     38.052     33.632
     38.372     40.359
     38.560     33.632
     38.746     53.812
     39.094     40.359
     39.148    396.861
     39.258    840.807
     39.360    100.897
     39.494     26.906
     39.496    437.220
     39.628     13.453
     39.708    195.067
     39.762    363.229
     39.922     26.906
     40.158     20.777
     40.343     35.902
     40.531     17.066
     40.770     28.426
     40.793     68.053
     40.846    351.084
     41.007    619.038
     41.079    139.800
     41.191     73.780
     41.222     28.502
     41.356     20.977
     41.461     39.863
     41.596     21.017
     41.755     30.478
     41.969     21.079
     42.154     34.318
     42.366     43.788
     42.608     23.073
     42.759    115.552
     42.901     21.235
     42.976     72.192
     43.070    202.397
     43.136     68.445
     43.248     11.859
     43.434     11.890
     43.540     23.229
     43.666     98.722
     43.779     25.156
     43.829     62.900
     43.954    427.076
     44.046     23.313
     44.205     27.114
     44.393     12.050
     44.551     34.719
     44.613    217.750
     44.759    370.606
     44.925     12.139
     45.083     36.694
     45.185     83.882
     45.295     49.937
     45.352     12.211
     45.458      8.455
     45.535     40.544
     45.683    165.098
     45.798     82.097
     45.910     19.851
     46.018      8.548
     46.282     29.347
     46.338      4.828
     46.495     31.270
     46.657      8.655
     46.787     35.092
     46.989    440.791
     47.043    144.570
     47.135     23.830
     47.296     12.536
     47.425     48.407
     47.643    282.408
     47.794     91.865
     47.929     71.133
     48.059    103.230
     48.115     80.598
     48.274     86.285
     48.358     37.242
     48.493     22.170
     48.733     22.210
     48.919     20.354
     48.971     41.118
     49.106     16.612
     49.210     39.271
     49.319     16.647
     49.452     18.556
     49.636     46.889
     49.713     75.204
     49.798     20.501
     49.932      9.203
     50.090     26.210
     50.304     20.586
     50.568     45.158
     50.592     69.691
     50.697     94.237
     50.779     71.609
     50.835     43.316
     50.969     24.470
     51.077      9.394
     51.155     35.822
     51.303    160.376
     51.395     26.428
     51.557     11.361
     51.743     15.165
     51.900     35.947
     52.106    119.001
     52.270     73.745
     52.299     45.447
     52.406     36.031
     52.431     56.790
     52.562     83.228
     52.644     56.826
     52.701     13.439
     52.915     11.588
     53.127     15.397
     53.288      5.990
     53.473     21.115
     53.577     47.548
     53.614    221.141
     53.741    287.200
     53.811    106.078
     53.900      6.092
     53.951     32.516
     54.051    106.118
     54.058    317.442
     54.179    158.970
     54.243    328.794
     54.386    223.156
     54.430     42.030
     54.591     23.189
     54.620      2.439
     54.724     32.645
     54.772     87.370
     54.910     27.016
     54.966      2.496
     55.150     25.169
     55.312      4.441
     55.523     23.344
     55.738      8.286
     56.083     14.004
     56.429     15.949
     56.696     10.333
     56.854     31.114
     57.009     85.857
     57.176     10.413
     57.389      8.562
     57.573     27.461
     57.815     10.520
     57.975      4.886
     58.186     31.337
     58.348      4.948
     58.480     16.291
     58.495    142.710
     58.593    235.180
     58.711    105.010
     58.827      6.915
     58.986     12.602
     59.089     50.356
     59.158    165.463
     59.215    133.396
     59.246     78.684
     59.279     10.764
     59.546      7.035
     59.786      3.302
     60.135      7.318
     60.338      7.266
     60.609      8.668
     60.745     51.279
     60.880    155.652
     61.049      7.085
     61.151     15.882
     61.184     45.284
     61.286     89.374
     61.354     51.123
     61.523      6.963
     61.726    280.431
     61.895    224.508
     61.929     80.386
     62.030    283.295
     62.098    250.926
     62.267     92.064
     62.301     14.117
     62.606      5.216
     62.741     16.946
     63.012      5.112
     63.181     18.304
     63.350     41.789
     63.486     16.755
     63.689      3.469
     64.095      4.835
     64.399      4.758
     64.602      4.706
     64.772     13.486
     64.805     89.945
     64.873    214.923
     65.042     26.651
     65.212    176.603
     65.245     16.306
     65.448    113.309
     65.482     23.598
     65.651     73.553
     65.787     24.990
     65.787      7.344
     65.956      4.360
     66.058     20.510
     66.159     42.542
     66.294     14.567
     66.328      7.206
     66.430      5.709
     66.633      4.187
     66.768     32.092
     66.802     60.024
     66.937     29.108
     67.039     15.847
     67.208     58.450
     67.208    167.269
     67.377    193.696
     67.411    111.337
     67.547     76.009
     67.547    134.831
     67.716    231.843
     67.817     62.705
     67.885     21.513
     67.986      5.311
     68.156     21.444
     68.190     61.140
     68.257     92.004
     68.359     56.685
     68.393     15.501
     68.562      9.576
     68.731     30.120
     68.832     59.505
     68.866     88.907
     68.934    115.359
     69.036     59.453
     69.069     21.210
     69.306      3.503
     69.374     37.308
     69.475    125.515
     69.577    201.957
     69.679      1.938
     69.712     25.458
     69.848      0.424
     70.085      7.716
     70.355      9.117
     70.525     35.544
     70.660     10.510
     70.761     56.071
     70.897    113.387
     70.964     60.430
     71.066     11.877
     71.303      7.405
     71.472      4.420
     71.607     49.972
     71.709     24.947
     71.844     51.382
     71.980     18.996
     72.149     93.950
     72.183    126.293
     72.318     10.086
     72.352     93.898
     72.555      5.614
     72.589     23.252
     72.657     76.174
     72.724    177.624
     72.893     67.290
     72.961     27.568
     73.063     65.776
     73.130    102.522
     73.198     18.684
     73.333      3.945
     73.503     12.724
     73.503     52.429
     73.604     74.461
     73.706     50.907
     73.773      8.244
     73.909     12.621
     73.942     34.670
     74.179      8.140
     74.281     22.819
     74.382     43.381
     74.450    111.008
     74.585    112.444
     74.653     44.782
     74.788      5.043
     74.822     35.916
     75.025    168.212
     75.093    129.961
     75.127     41.720
     75.228     10.813
     75.330      0.493
     75.499     66.624
     75.601     72.480
     75.668     18.053
     75.838     -2.578
     76.074     13.538
     76.277     -1.220
     76.582      6.055
     76.717      8.962
     76.954     55.958
     77.157    163.256
     77.225    116.181
     77.327     44.099
     77.462     23.477
     77.597      5.796
     77.800     18.979
     77.936      4.239
     78.206      7.110
     78.240     46.806
     78.376    108.534
     78.443    123.222
     78.511     21.738
     78.680      4.048
     78.714     34.921
     78.849     89.296
     78.951      3.979
     78.985     21.617
     79.120    100.991
     79.255     58.311
     79.255      8.313
     79.526      3.832
     79.763     -0.640
     80.103     12.257
     80.374      7.809
     80.612      9.510
     80.749     22.636
     80.921     62.068
     81.059     89.228
     81.197    125.160
     81.364     84.773
     81.365    101.439
     81.469    141.763
     81.566     54.028
     81.597     13.672
     81.766     10.125
     81.868      6.594
     82.038      2.170
     82.208     13.534
     82.276      9.133
     82.582     14.326
     82.751      6.394
     82.853     16.896
     82.991     47.565
     83.028     91.413
     83.165    103.662
     83.230     57.159
     83.364     30.815
     83.401     75.541
     83.504     91.306
     83.536     64.107
     83.603     57.075
     83.741     92.129
     83.814    167.546
     83.906     20.166
     83.944     70.155
     83.974     10.502
     84.246     22.721
     84.347      5.155
     84.584      4.224
     84.653     19.997
     84.755     11.203
     84.859     55.913
     84.959     14.665
     84.960     37.470
     85.128      7.609
     85.332     15.457
     85.434      7.540
     85.739      4.840
     85.807     12.718
     85.977      3.909
     86.079     10.903
     86.215     17.012
     86.285     40.679
     86.387     54.690
     86.488     38.001
     86.522     33.608
     86.591     58.152
     86.728     73.909
     86.793     19.512
     86.795     56.351
     86.928     12.464
     87.065     24.713
     87.235     27.306
     87.371     30.784
     87.372     55.344
     87.609     36.870
     87.645     75.456
     87.751    142.094
     87.855    163.999
     87.951     78.018
     87.982     33.277
     88.185     16.565
     88.388      5.117
     88.592     10.333
     88.626     21.728
     88.729     30.476
     88.932     19.905
     89.068     29.522
     89.104     49.688
     89.273     40.879
     89.342     60.160
     89.481    111.003
     89.687    144.287
     89.752     91.644
     89.817     49.527
     89.886     69.685
     90.026    139.825
     90.198    164.346
     90.228    115.219
     90.296    102.924
     90.496     59.898
     90.630     18.643
     90.633     69.516
     90.765      6.332
     91.070      5.386
     91.274     13.234
     91.410      2.678
     91.478      6.171
     91.548     45.626
     91.684     50.858
     91.852     13.980
     91.887     28.006
     91.987      7.809
     92.157      4.263
     92.361      9.479
     92.568     69.955
     92.671     85.720
     92.705     83.081
     92.770     41.840
     92.938      7.594
     93.074     15.457
     93.278      9.271
     93.413      0.469
     93.617     14.457
     93.787     10.033
     93.990      2.970
     94.296     10.795
     94.433     20.412
     94.535     27.406
     94.672     43.164
     94.673     57.198
     94.844     74.702
     94.876     46.626
     95.047     67.639
     95.182     54.451
     95.213      5.324
     95.215     42.164
     95.484      0.877
     95.723     14.857
     95.825     23.605
     95.862     60.437
     96.101     79.680
     96.339     88.397
     96.408    100.662
     96.444    141.879
     96.612    114.650
     96.678     85.689
     96.775     10.233
     96.776     21.636
     96.910      3.185
     97.252     26.791
     97.353     18.874
     97.421     27.629
     97.524     39.009
     97.763     52.989
     97.863     32.792
     97.864     44.195
     97.964     23.998
     98.067     34.500
     98.133      6.417
     98.268     -2.385
     98.473      5.463
     98.608      2.801
     98.745     15.050
     98.914      0.100
     99.016      0.077
     99.085     16.727
     99.221     29.853
     99.393     55.251
     99.527     28.030
     99.627      4.324
     99.661     -0.069
     99.865      4.270
    100.086    120.354
    100.354    171.681
    100.366     38.348
    100.438    112.094
    100.559      5.310
    100.763      9.440
    100.815     14.749
    100.880     63.717
    101.086     75.516
    101.120     15.929
    101.375     21.829
    101.384     52.507
    101.685     41.888
    101.853     97.345
    102.083     16.519
    102.338     22.419
    102.689      8.850
    102.891      7.080
    103.056     54.277
    103.175    113.864
    103.279    121.534
    103.419     80.236
    103.509     42.478
    103.655     20.059
    103.821     69.617
    104.087    111.504
    104.113     28.909
    104.359      3.540
    104.521     38.348
    104.597    125.664
    104.753    136.283
    104.816      7.080
    105.215         9.
    105.273         6.
    105.377         6.
    105.421        12.
    105.499        18.
    105.509        26.
    105.562        43.
    105.603        60.
    105.657        74.
    105.736        76.
    105.789        51.
    105.806        31.
    105.877        20.
    105.949         7.
    106.041         6.
    106.076         4.
    106.143        12.
    106.188        15.
    106.232        22.
    106.304        10.
    106.320        36.
    106.388        39.
    106.403        67.
    106.436        75.
    106.484       109.
    106.527       118.
    106.601       144.
    106.620       116.
    106.627       130.
    106.704       102.
    106.773        57.
    106.838        27.
    106.866         9.
    106.958         5.
    107.095         7.
    107.175        11.
    107.289        13.
    107.325         6.
    107.447        22.
    107.462         7.
    107.528        17.
    107.553         9.
    107.632        16.
    107.657         6.
    107.724        12.
    107.779        21.
    107.841        47.
    107.848        23.
    107.925        33.
    107.939        69.
    108.018        70.
    108.109        75.
    108.122        70.
    108.191        67.
    108.240        58.
    108.275        53.
    108.330        20.
    108.354        13.
    108.490        21.
    108.540         6.
    108.587         2.
    108.677         6.
    108.779        10.
    108.826         7.
    108.941         4.
    108.975         7.
    109.030        15.
    109.074        24.
    109.143        21.
    109.183        46.
    109.214        58.
    109.262        48.
    109.306        57.
    109.367        42.
    109.394        27.
    109.420        14.
    109.491         6.
    109.569        14.
    109.570         9.
    109.611        28.
    109.687        43.
    109.720        52.
    109.772        71.
    109.792        83.
    109.842       111.
    109.894       130.
    109.964       126.
    109.968       109.
    110.032        86.
    110.085        56.
    110.141        17.
    110.186        22.
    110.304         9.
    110.370        19.
    110.403        25.
    110.436        29.
    110.481        34.
    110.535        44.
    110.595        36.
    110.634        19.
    110.694         8.
    110.764         2.
    110.844         3.
    110.945        12.
    111.073         3.
    111.118         6.
    111.257         4.
    111.276        17.
    111.379        16.
    111.393         8.
    111.434        26.
    111.487        42.
    111.538        68.
    111.552       100.
    111.592       124.
    111.632       145.
    111.708       160.
    111.749       135.
    111.780       147.
    111.816        97.
    111.928        65.
    111.930        57.
    111.996        24.
    112.019        69.
    112.055        61.
    112.131        79.
    112.157       110.
    112.161       138.
    112.251       144.
    112.354       100.
    112.371        80.
    112.403        48.
    112.490        20.
    112.667         1.
    112.735         4.
    113.796     41.888
    113.945     33.038
    114.150     40.118
    114.244     15.339
    114.494      2.950
    114.702     19.469
    115.002      7.670
    115.006     19.469
    115.318     48.378
    115.328     80.826
    115.668     30.088
    115.675     57.227
    115.885     79.646
    116.016      8.850
    116.021     25.369
    116.267      1.770
    116.524     14.159
    116.729     21.829
    116.942     55.457
    117.186     22.419
    117.300     66.667
    117.509     90.265
    117.603     64.897
    117.696     35.398
    117.844     20.649
    118.055     50.737
    118.268     86.136
    118.356     39.528
    118.668     66.667
    118.764     48.378
    118.903      4.130
    119.260     11.799
    119.410      3.540
    119.714      4.720
    119.972     20.649
    120.283     44.838
    120.488     51.327
    120.499     91.445
    120.658    113.864
    120.837     30.678
    121.048     62.537
    121.097     53.687
    121.143     37.758
    121.290     23.009
    121.349     49.558
    121.514     94.985
    121.629    143.363
    121.788    164.602
    121.917     86.136
    122.000     24.189
    122.151     20.649
    122.201     18.879
    122.301     14.749
    122.351     11.209
    122.469     66.667
    122.693    142.183
    122.837    113.864
    122.857      6.490
    122.975     65.487
    123.210      2.360
    123.415     10.029
    123.569     17.109
    123.717      4.130
    123.820     10.029
    124.125     12.389
    124.230     25.369
    124.341     57.227
    124.483     22.419
    124.579      4.130
    124.783      7.670
    124.787     21.829
    125.042     28.909
    125.201     53.687
    125.398     32.448
    125.495     16.519
    125.601     34.218
    125.760     57.227
    125.969     80.236
    126.103     17.699
    126.203     14.159
    126.303     10.029
    126.556      7.080
    126.760     11.799
    126.920     38.938
    126.977     61.947
    127.131     66.667
    127.224     38.938
    127.424     28.319
    127.472     18.879
    127.678     33.038
    128.028     14.749
    128.031     27.139
    128.136     39.528
    128.399     71.976
    130.206     20.876
    130.311     40.475
    130.468     63.483
    130.667     48.137
    130.765     31.090
    130.963      9.778
    131.215      3.380
    131.418      7.210
    131.827     27.655
    131.977     18.277
    132.131     30.631
    132.238     58.753
    132.439     53.209
    132.736     21.241
    132.740     43.826
    132.937     16.123
    132.990     28.053
    133.394     24.208
    133.444     19.520
    133.701     39.968
    133.803     44.227
    133.852     38.686
    134.001     21.211
    134.052     26.750
    134.356     27.168
    134.409     38.247
    134.511     44.210
    134.709     21.194
    134.860     16.077
    135.124     71.042
    135.369     34.815
    135.527     61.657
    135.680     69.750
    135.775     41.623
    135.870      8.382
    136.122      5.393
    136.426      7.517
    136.578      4.956
    137.033      4.519
    137.142     46.704
    137.297     60.337
    137.401     74.397
    137.549     56.069
    137.643     18.567
    137.691      8.765
    137.845     16.858
    137.999     30.490
    138.153     41.992
    138.252     29.632
    138.450      8.747
    138.453     23.661
    138.655     22.804
    138.709     36.439
    138.911     38.565
    138.957     12.996
    139.056      4.897
    139.259      4.466
    139.313     20.658
    139.415     27.900
    139.674     55.592
    139.922     34.706
    140.072     24.901
    140.128     52.598
    140.332     57.281
    140.380     46.200
    140.628     21.052
    140.784     43.634
    140.934     34.681
    140.940     61.102
    141.135     28.285
    141.298     82.400
    141.664    140.772
    141.816    144.177
    142.006     82.383
    142.045     23.149
    142.247     19.309
    142.347     15.898
    142.349     27.829
    142.505     44.445
    142.653     26.970
    142.959     39.747
    143.054      9.915
    143.266     59.341
    143.363     37.180
    143.611     10.754
    143.663     17.997
    143.918     29.496
    144.066     11.595
    144.221     26.080
    144.318      7.328
    144.625     20.957
    144.825     10.725
    144.978     17.113
    145.181     22.648
    145.335     30.741
    145.444     70.369
    145.550     92.525
    145.697     68.658
    145.702     95.078
    145.741     38.828
    145.894     43.938
    146.052     75.894
    146.203     70.351
    146.297     36.258
    146.395     17.079
    146.494      8.128
    146.847      5.137
    147.000     11.099
    147.103     20.471
    147.412     45.606
    147.564     47.733
    147.763     31.109
    148.013     15.336
    148.015     26.415
    148.069     41.755
    148.172     53.258
    148.376     61.776
    148.672     20.434
    148.721     12.336
    149.023      3.806
    149.125      8.917
    149.378     12.320
    149.633     19.132
    149.832      5.065
    149.935     11.455
    150.039     25.941
    150.196     51.505
    150.402     69.824
    150.653     59.591
    150.697     29.334
    150.946      9.726
    151.299      4.178
    151.301     13.553
    151.562     53.603
    151.814     50.614
    151.964     39.105
    152.115     33.562
    152.223     67.650
    152.426     71.054
    152.473     54.008
    152.622     39.941
    152.772     30.989
    152.972     20.757
    153.178     39.076
    153.476     10.518
    153.732     24.148
    153.841     64.628
    153.998     92.749
    154.148     81.240
    154.237     23.284
    154.293     50.981
    154.438     13.904
    154.540     21.572
    154.902     59.063
    155.263     91.441
    155.410     68.852
    155.609     52.654
    155.756     29.639
    155.854     12.165
    156.160     25.794
    156.517     38.144
    156.667     31.322
    156.767     22.371
    157.018     14.694
    157.276     38.552
    157.282     68.381
    157.381     59.856
    157.586     70.931
    157.835     50.896
    157.933     38.110
    158.080     12.112
    158.081     19.782
    158.382      5.287
    158.687     12.950
    158.740     23.602
    158.897     49.166
    159.001     64.079
    159.207     82.397
    159.303     58.105
    159.453     47.022
    159.602     33.382
    159.801     19.315
    160.003     13.246
    160.638     31.683
    160.651     41.487
    162.096     57.585
    162.836      3.424
    163.521     58.743
    164.142     67.610
    165.156     65.503
    165.688      7.609
    165.931     37.019
    166.570     58.491
    167.919      2.927
    167.956     30.938
    168.783     40.970
    169.034     76.450
    169.658     86.717
    170.612     40.025
    171.409     27.882
    171.585      7.806
    172.644     39.079
    172.888     69.657
    174.073     43.739
    175.482     32.759
    175.854      7.547
    176.083     26.687
    176.310     43.959
    176.978     87.373
    178.733     31.339
    178.910     11.963
    179.353     38.805
    180.137     16.858
    180.570     36.697
    181.249     88.281
    181.393     44.161
    181.773     24.318
    182.834     56.991
    183.258     70.294
    184.246     48.579
    184.792      0.956
    185.670     49.738
    187.706     51.359
    187.861     15.877
    189.124     47.382
    190.305     18.663
    190.558     56.011
    191.754     38.263
    192.321      6.046
    192.999     56.696
    194.161     13.738
    194.605     41.513
    195.250     67.187
    196.649     48.971
    196.800     10.220
    198.074     50.829
    198.628      8.575
    199.261     26.312
    199.458     21.175
    200.045      4.365
    200.899     34.939
    200.929     56.648
    201.550     65.281
    201.690     17.660
    202.715     23.957
    203.591     70.871
    205.201     58.956
    205.342     12.036
    206.010     55.683
    206.551      4.092
    207.017     48.441
    208.825     32.323
    209.012     20.183
    210.265     44.452
    211.043     18.537
    212.312     54.477
    213.070     13.856
    213.703     30.426
    214.296     17.817
    215.146     45.590
    215.725     22.243
    215.984     64.259
    217.182     47.445
    217.340     13.830
    218.345      5.187
    218.564     16.624
    219.192     30.159
    219.811     36.924
    220.627     39.020
    221.228     32.247
    221.438     37.381
    222.006      6.098
    222.026     21.038
    223.453     24.064
    224.671     22.422
    224.707     49.500
    225.059      8.414
    227.100     14.471
    227.289      3.498
    227.353     51.118
    228.552     35.938
    229.127      9.323
    229.600     59.508
    230.189     43.864
    231.162     10.945
    231.189     30.786
    232.821     35.445
    234.018     18.397
    234.657     39.869
    235.235     16.055
    236.449     11.846
    236.474     30.287
    236.846      4.607
    238.314     37.512
    239.092     11.363
    239.357     57.114
    240.593     69.711
    240.815     83.249
    241.782     46.361
    241.952     21.850
    242.616     61.529
    243.782     21.606
    244.172      8.998
    244.612     33.972
    245.598     11.324
    246.033     32.330
    246.884     60.569
    247.474     45.393
    248.250     18.077
    248.481     38.384
    249.107     50.285
    250.688     16.195
    250.915     33.934
    251.548     51.204
    252.185     71.275
    253.778     46.522
    253.922      1.936
    254.143     15.707
    254.580     37.880
    255.793     33.204
    256.166      7.758
    258.027     31.089
    258.405      9.611
    258.861     46.257
    260.083     48.351
    260.882     37.141
    261.055     14.964
    261.496     40.405
    262.512     39.699
    263.288     12.149
    263.302     22.187
    264.531     29.182
    265.326     15.872
    265.968     39.911
    266.177     43.878
    267.386     35.467
    268.384     21.922
    268.777     11.649
    269.595     15.146
    269.819     30.784
    270.650     43.851
    270.845     37.314
    272.051     27.269
    272.435     10.226
    274.283     23.987
    274.307     41.961
    274.496     31.222
    275.284     12.543
    276.136     41.250
    277.374     54.548
    277.969     43.573
    278.140     19.062
    278.365     35.167
    279.764     17.185
    280.164     12.747
    280.391     30.253
    281.035     55.226
    282.856     48.912
    283.251     40.273
    283.632     21.363
    284.069     44.003
    285.248     13.183
    286.099     40.956
    286.464     10.608
    287.298     25.776
    287.478      8.034
    288.338     43.276
    289.144     37.903
    289.554     40.234
    290.122      9.185
    290.375     45.832
    291.600     50.026
    291.974     25.747
    293.035     58.187
    294.000     20.366
    294.262     63.782
    294.426     34.836
    295.823     15.219
    295.872     51.634
    296.854     25.717
    297.079     42.056
    298.305     46.484
    298.878     18.936
    298.900     35.275
    299.275     11.697
    299.852     10.723
    303.229     58.738
    305.189     34.728
    308.003      7.687
    315.070     23.999
    315.437     55.467
    316.455     40.781
    320.417     47.305
    320.538     38.680
    322.912     42.874
    323.309     14.669
    323.916     29.121
    327.849     37.743
    329.283     51.029
    331.286     23.988
    332.654     41.936
    335.011     47.295
    339.256     33.773
    340.366     12.560
    342.463     36.335
    347.581     18.383
    347.806     59.874
    350.479     42.856
    353.577     53.110
    354.875     18.611
    357.845     37.956
    363.708     24.666
    365.946     38.417
    366.252     16.739
    366.612     48.673
    368.530     27.693
    371.107     17.435
    375.456     54.028
    377.715      8.806
    380.409     47.731
    384.014     22.088
    385.035      7.169
    391.793     45.392
    392.795     31.872
    394.696     12.058
    396.895     28.606
    400.164     26.739
    401.179     12.286
    403.368     29.534
    407.386     32.095
    407.662     12.515
    409.627     45.614
    413.209     21.602
    413.777     38.851
    420.240     40.478
    420.490     22.763
    420.903     50.967
    425.493     12.969
    426.671     44.437
    427.389     50.963
    431.647     36.508
    435.176     16.226
    435.589     44.431
    439.197     18.554
    439.818     32.074
    441.341     39.066
    443.697     44.425
    444.719     29.506
    448.608     41.159
    451.914     36.727
    452.128     21.576
    457.629     33.926
    459.451     19.706
    460.015     37.188
    463.232     39.051
    464.345     17.605
    467.933     50.703
    471.646     17.367
    472.981     37.646
    476.547     14.800
    477.850     37.409
    477.889     34.612
    482.833     29.015
    483.302     53.256
    485.068     42.999
    487.018     19.688
    488.702     15.258
    490.789     39.732
    491.020     23.415
    494.092     35.534
    495.110     20.848
    496.504     36.931
    498.868     41.824
    500.743     23.874
    502.223     33.897
    505.371     40.654
    507.295     19.208
    509.513     34.358
    511.877     39.251
    512.944     21.069
    513.534     36.686
    516.154     23.398
    517.533     40.646
    520.267     19.199
    521.715     31.553
    523.901     49.033
    528.949     35.977
    530.440     45.299
    531.674     15.229
    532.859     46.230
    534.806     23.152
    537.031     37.836
    537.297     18.955
    540.380     30.375
    543.794     18.251
    545.894     41.793
    546.942     25.009
    550.884     32.932
    551.111     16.848
    551.649     36.194
    554.252     24.072
    555.243     11.251
    557.554     19.874
    560.633     31.526
    563.305     14.509
    566.013     52.502
    568.942     17.302
    569.598     28.257
    572.218     14.969
    574.607     17.998
    576.767     37.343
    576.846     31.749
    580.322     15.197
    581.793     25.918
    585.138     18.690
    587.363     33.373
    588.401     17.289
    589.838     30.341
    591.503     27.310
    593.978     24.278
    594.555     40.828
    598.209     11.688
    600.310     35.229
    602.072     25.205
    602.952     20.309
    603.517     37.791
    607.534     40.353
    611.726     30.560
    611.835     22.868
    612.754     15.175
    615.718     34.986
    620.823     17.967
    621.328     39.644
    624.132     13.302
    625.563     26.821
    632.850     27.515
    636.271     14.926
    638.489     30.076
    642.648     22.614
    646.749     19.348
    649.817     31.700
    650.733     24.240
    655.516     30.064
    655.621     22.605
    659.491     35.656
    664.553     21.667
    664.632     16.072
    669.382     24.228
    671.689     33.084
    671.913     17.233
    674.184     28.653
    678.136     35.877
    680.756     22.588
    683.234     19.323
    683.933     27.248
    688.598     41.464
    690.545     18.386
    694.464     27.940
    700.894     31.899
    702.618     24.672
    707.591     16.976
    710.601     33.524
    710.677     28.163
    714.025     20.701
    718.719     32.819
    719.714     19.765
    723.653     27.921
    726.669     44.002
    729.266     32.346
    729.433     20.458
    731.705     31.878
    735.920     20.453
    737.351     33.972
    740.660     29.308
    744.839     20.448
    745.567     26.274
    748.751     30.468
    751.118     35.128
    754.348     36.059
    756.892     28.132
    757.752     24.635
    763.323     32.090
    763.477     21.134
    766.536     34.186
    769.074     26.725
    773.856     32.549
    775.514     29.984
    777.313     17.395
    780.284     36.741
    782.769     33.009
    785.972     35.804
    787.007     19.953
    788.487     29.975
    792.307     46.523
    795.679     37.429
    797.225     42.790
    799.257     13.651
    800.600     33.464
    800.807     18.778
    802.267     30.199
    808.836     24.367
    811.363     17.606
    811.809     43.479
    815.266     28.326
    819.139     41.143
    824.172     29.252
    824.238     24.590
    828.912     38.107
    830.602     33.210
    831.564     22.487
    832.300     27.848
    838.638     38.333
    842.134     20.382
    843.549     35.066
    850.269     18.512
    852.481     34.128
    860.549     36.920
    860.717     25.032
    866.317     30.389
    868.854     22.928
    872.767     32.949
    873.686     25.256
    875.137     37.376
    880.878     32.710
    882.625     23.852
    886.587     30.376
    889.758     35.502
    894.084     16.152
    894.708     29.438
    900.489     21.975
ENDDATA           1725
ENDSUBENT         1733
SUBENT        10963003   20220114   20220419   20220419       1491
BIB                  7         25
REACTION  1(30-ZN-64(N,0),,EN)
          2(30-ZN-64(N,0),,L)
          3(((30-ZN-64(N,EL),,WID,,G)*((30-ZN-64(N,G),,WID)+
           (30-ZN-64(N,EL),,WID,,FCT)))/(30-ZN-64(N,TOT),,WID))
           Factor in elastic widths is neutron sensitivity factor.
          4(30-ZN-64(N,G),,WID)
ANALYSIS   (SLA) Breit-Wigner
ERR-ANALYS (DATA-ERR) No comprehensive details on uncertainties.
           DATA-ERR description speaks only about the
           uncertainty in the resonance energy: The uncertainty
           in the resonance energies is estimated as +-E/1200,
           based on the assumption that the resonance peaks
           could be determined to about one-half the resolution
           width at all energies. From a comparison of the
           channel energies obtained in the present measurement
           with the energies from transmission measurements, we
           observed that the present energies are systematically
           lower than the transmission energies by about 0.1%.
           We tend to feel that the transmission values are more
           accurate in view of their higher energy resolution
           and consequently we have adopted these energy values.
ASSUMED    (ASSUM,30-ZN-64(N,EL),,WID,,G)
FLAG       (1.) May be doublet or multiplet
STATUS     (TABLE) Table I, page 686.
HISTORY    (20210827A) BP: Included ERR-ANALYS and STATUS.
ENDBIB              25
COMMON               1          3
STAT-W G
NO-DIM
         1.
ENDCOMMON            3
DATA                 7         35
DATA      1DATA      2DATA      3DATA-ERR  3DATA      4ASSUM
FLAG
EV         NO-DIM     MILLI-EV   MILLI-EV   MILLI-EV   EV
NO-DIM
      4170.         0.       662.         8.       676.       19.4

     10775.         0.       480.         7.       452.        96.

     13019.         0.       976.        17.       927.       190.

     15212.         0.       738.        17.       713.       110.

     21316.         0.       323.        10.       308.        67.

     22676.         0.       490.        12.       474.        78.

     29100.         0.       491.        13.       492.        56.

     29640.         0.       462.        14.       433.        79.

     30708.         0.       680.        35.       602.       201.

     32450.         0.      1663.        53.      1472.       490.

     39278.         0.       597.        22.       606.        23.

     41010.         0.       648.        20.       642.        52.

     47955.         0.       637.        28.       585.       219.

     50700.         0.       350.        21.       317.       125.

     52120.         0.       416.        24.       381.       128.

     54300.         0.       853.        30.       850.        64.

     60882.         0.       356.        20.       377.         6.

     67440.         0.       890.        46.       867.       169.

     68932.         0.       186.        27.       181.        39.

     73135.         0.       181.        11.       206.        1.5

     78345.         0.       558.        34.       564.        30.

     78738.         0.       213.        24.       205.        50.

     83570.         0.       574.        46.       533.       220.

     87350.         0.      1071.        75.      1042.       178.

     89520.         0.      1676.       116.      1600.       396.
         1.
     94832.         0.       571.        47.       535.       139.

     96555.         0.       652.        46.       657.        30.

    100220.         0.      1073.        60.                   1.5
         1.
    108080.         0.       770.        73.       743.       128.

    109970.         0.       991.        61.      1087.        10.

    111680.         0.      1298.        75.      1343.        33.

    114075.         0.       420.        41.       397.       108.

    120432.         0.       634.        87.       626.        65.

    121757.         0.      1044.       137.      1020.       160.

    125130.         0.       456.        48.       588.         2.

ENDDATA             74
ENDSUBENT          108
SUBENT        10963004   20220114   20220419   20220419       1491
BIB                  6         24
REACTION  1(30-ZN-64(N,0),,EN)
          2(30-ZN-64(N,0),,L)
          3(30-ZN-64(N,G),,WID/STR)
          4(30-ZN-64(N,EL),,WID,,G)
          5(30-ZN-64(N,G),,WID)
ANALYSIS   (SLA) Breit-Wigner
ERR-ANALYS (DATA-ERR) No comprehensive details on uncertainties.
           DATA-ERR description speaks only about the
           uncertainty in the resonance energy: The uncertainty
           in the resonance energies is estimated as +-E/1200,
           based on the assumption that the resonance peaks
           could be determined to about one-half the resolution
           width at all energies. From a comparison of the
           channel energies obtained in the present measurement
           with the energies from transmission measurements, we
           observed that the present energies are systematically
           lower than the transmission energies by about 0.1%.
           We tend to feel that the transmission values are more
           accurate in view of their higher energy resolution
           and consequently we have adopted these energy values.
ASSUMED   4(ASSUM1,30-ZN-64(N,G),,WID)
          5(ASSUM2,30-ZN-64(N,EL),,WID,,G)
STATUS     (TABLE) Table II, page 687.
HISTORY    (20210827A) BP: Included ERR-ANALYS and STATUS.
ENDBIB              24
NOCOMMON             0          0
DATA                11        193
DATA      1DATA-MIN  2DATA      3DATA-ERR  3DATA      4DATA-ERR  4
DATA      5DATA-ERR  5STAT-W G   ASSUM1    4ASSUM2    5
EV         NO-DIM     MILLI-EV   MILLI-EV   EV         EV
MILLI-EV   MILLI-EV   NO-DIM     MILLI-EV   EV
      4185.         1.        4.2        1.2      0.005      0.001
                               1.       220.
      4480.         1.       35.4        1.1      0.040      0.002
                               1.       220.
      5199.         1.      200.5        2.7
                               2.       220.       0.37
      5967.         1.       48.3        0.8
       248.        13.         1.                  0.06
      6345.         1.        3.9        0.3      0.004      0.001
                               1.       220.
      6705.         1.        5.0        0.3      0.005      0.001
                               1.       220.
      8411.         1.      213.4        2.6
       189.        11.         2.                  0.49
      8790.         1.      242.3        1.0       0.53       0.05
                               2.       220.
     10044.         1.        4.1        0.5      0.004      0.001
                               1.       220.
     10657.         1.        4.1        0.5      0.004      0.001
                               1.       220.
     10880.         1.        3.5        0.9      0.004      0.001
                               1.       220.
     11040.         1.       12.6        0.9      0.013      0.001
                               1.       220.
     12163.         1.       95.6        2.5       0.17       0.01
                               1.       220.
     12659.         1.        6.7        1.4      0.007      0.001
                               1.       220.
     13943.         1.      410.0        5.5
       347.         7.         2.                   1.0
     14763.         1.        5.7        1.6      0.006      0.002
                               1.       220.
     16990.         1.      399.0        6.4
       347.        10.         2.                  0.94
     18354.         1.        8.9        1.6      0.009      0.002
                               1.       220.
     18436.         1.      433.0        5.2
       355.         7.         2.                   1.1
     18600.         1.       15.7        1.6      0.017      0.001
                               1.       220.
     20159.         1.      487.8        6.1
       432.        10.         2.                   1.1
     21270.         1.      298.6        4.6       0.93       0.05
                               2.       220.
     21775.         1.       11.9        2.0      0.013      0.002
                               1.       220.
     22184.         1.      458.8        7.7
       267.         8.         2.                   3.3
     23127.         1.       28.4        2.6      0.003      0.003
                               1.       220.
     25750.         1.      191.0        5.3       0.34       0.02
                               1.       220.
     26178.         1.      254.5        7.1
       155.         5.         2.                   1.4
     28468.         1.      238.0        5.9
       154.         5.         2.                   1.0
     28540.         1.      297.7        5.2       0.92       0.05
                               2.       220.
     28850.         1.       12.1        3.0      0.013      0.003
                               1.       220.
     29540.         1.      129.3        5.5       0.31       0.03
                               1.       220.
     30590.         1.      346.4        6.5       1.60       0.01
                               2.       220.
     30775.         1.      228.3        9.3       0.47       0.04
                               2.       220.
     31025.         1.       93.6        6.9       0.16       0.02
                               1.       220.
     31415.         1.       62.8        5.9       0.09       0.01
                               1.       220.
     32660.         1.       34.3        9.3       0.04       0.01
                               1.       220.
     35160.         1.      364.5        4.5        2.1        0.2
                               2.       220.
     35255.         1.      182.3        4.1        1.1        0.1
                               1.       220.
     35667.         1.      428.6       12.5
       268.        16.         2.                   2.1
     35960.         1.       52.0        9.3       0.07       0.02
                               1.       220.
     36000.         1.       50.6        9.3       0.07       0.02
                               1.       220.
     36730.         1.      160.2       15.2        1.2        0.2
       184.        18.         1.
     36750.         1.      263.3       18.6       0.66       0.12
                               2.       220.
     37335.         1.      145.2        6.9       0.43       0.06
                               1.       220.
     38805.         1.       35.9        6.7       0.04       0.01
                               1.       220.
     39195.         1.       64.7       13.5       0.09       0.03
                               1.       220.
     39440.         1.      412.0        14.
       210.        14.         2.                   20.
     39805.         1.      279.1        7.9        1.0        0.3
       194.         6.         2.
     40825.         1.      238.5       10.6       0.52       0.05
                               1.       220.
     40905.         1.       61.7       11.5       0.09       0.02
                               1.       220.
     42725.         1.       63.6        8.8       0.09       0.02
                               1.       220.
     42775.         1.       37.8        8.5       0.05       0.01
                               1.       220.
     43020.         1.      172.0        5.4       0.79       0.11
                               1.       220.
     43605.         1.       73.7        7.8       0.11       0.02
                               1.       220.
     43848.         1.       456.        15.
       270.        10.         2.                   3.1
     44685.         1.       331.         6.        1.3        0.2
                               2.       220.
     45150.         1.        71.         8.       0.10       0.02
                               1.       220.
     45640.         1.       140.         7.       0.38       0.05
                               1.       220.
     45775.         1.        57.         7.       0.08       0.01
                               1.       220.
     46205.         1.        15.         6.       0.02       0.01
                               1.       220.
     46495.         1.        14.         5.       0.02       0.01
                               1.       220.
     46845.         1.        52.        11.       0.07       0.02
                               1.       220.
     46911.         1.       542.        20.
       284.        11.         2.                  11.8
     47035.         1.       131.         8.       0.32       0.05
                               1.       220.
     47360.         1.        10.         6.       0.01      0.006
                               1.       220.
     47630.         1.       279.        10.       0.76       0.07
                               2.       220.
     48270.         1.        29.         7.       0.03       0.01
                               1.       220.
     48970.         1.        19.         6.       0.02       0.01
                               1.       220.
     49690.         1.        55.        10.       0.07       0.02
                               1.       220.
     51245.         1.       194.         4.        1.6       0.25
                               1.       220.
     51875.         1.        30.         9.       0.04       0.01
                               1.       220.
     52425.         1.        56.        10.       0.08       0.02
                               1.       220.
     52560.         1.       114.        10.       0.23       0.04
                               1.       220.
     53709.         1.       575.        23.
       299.        12.         2.                   14.
     54075.         1.       332.        10.       1.35       0.16
                               2.       220.
     54760.         1.       100.        11.       0.19       0.04
                               1.       220.
     56950.         1.       158.         8.       0.56       0.09
                               1.       220.
     57455.         1.        18.         9.       0.02       0.01
                               1.       220.
     57590.         1.        63.        10.       0.07       0.02
                               1.       220.
     58190.         1.        68.        11.       0.10       0.02
                               1.       220.
     58625.         1.       351.         8.       1.74       0.18
                               2.       220.
     59190.         1.       291.        11.       0.86       0.09
                               2.       220.
     60045.         1.       271.        12.       0.70       0.08
                               2.       220.
     61310.         1.       162.         8.       0.62       0.12
                               1.       220.
     61763.         1.       614.        26.
       323.        14.         2.                   12.
     62135.         1.       392.         6.
       219.         6.         2.                   16.
     63375.         1.        92.        13.       0.16       0.04
                               1.       220.
     64890.         1.       478.        26.
       258.        14.         2.                    5.
     65160.         1.       539.        28.
       546.        28.         1.                   18.
     65621.         1.       268.        19.
       289.        22.         1.                   3.7
     65676.         1.       179.        17.
       218.        25.         1.                   1.0
     66220.         1.        83.        14.       0.13       0.03
                               1.       220.
     66875.         1.       114.        14.       0.23       0.06
                               1.       220.
     67700.         1.       701.        36.
       361.        19.         2.                   23.
     67850.         1.        72.        18.       0.11       0.04
                               1.       220.
     68320.         1.       197.         5.       0.70       0.02
                               1.       220.
     68975.         1.       175.        11.       0.85       0.25
                               1.       220.
     69554.         1.       508.        26.
       304.        17.         2.                    3.
     70915.         1.       265.        14.       0.66       0.09
                               2.       220.
     71675.         1.        62.        13.       0.09       0.03
                               1.       220.
     71875.         1.       145.        13.       0.43       0.11
                               1.       220.
     72270.         1.       340.        11.       1.50        0.2
                               2.       220.
     72800.         1.       550.        23.
       280.        30.         2.                   17.
     73075.         1.       103.        21.       0.19       0.07
                               1.       220.
     73635.         1.       266.        21.
       276.        25.         1.                    7.
     74540.         1.       306.        29.
       309.        29.         1.                   29.
     74625.         1.       164.        15.       0.64       0.22
                               1.       220.
     74890.         1.        44.        17.       0.06       0.03
                               1.       220.
     75032.         1.       583.        30.
       322.        16.         2.                    6.
     75200.         1.        73.        17.       0.11       0.04
                               1.       220.
     75510.         1.       104.        17.       0.20       0.06
                               1.       220.
     75635.         1.       180.         9.       0.99       0.26
                               1.       220.
     77116.         1.       623.        28.
       341.        15.         2.                    6.
     77385.         1.       110.        13.       0.22       0.05
                               1.       220.
     78215.         1.        24.        18.       0.03       0.02
                               1.       220.
     78640.         1.        20.        15.       0.03      0.017
                               1.       220.
     79100.         1.       401.        25.
       214.        13.         2.                    6.
     81060.         1.       186.         7.        1.2        0.3
                               1.       220.
     81245.         1.       415.        26.
       354.        20.         2.                    1.
     81461.         1.       466.        27.
       263.        15.         2.                    4.
     83129.         1.       383.        27.
       195.        14.         2.                   17.
     83715.         1.       108.        26.       0.21       0.09
                               1.       220.
     83845.         1.       334.        14.       1.38       0.23
                               2.       220.
     84210.         1.        29.        14.       0.03       0.02
                               1.       220.
     84885.         1.        68.        21.       0.10       0.04
                               1.       220.
     84970.         1.        59.        22.       0.08       0.04
                               1.       220.
     86340.         1.       164.        13.       0.64       0.19
                               1.       220.
     86500.         1.       129.        17.       0.31       0.10
                               1.       220.
     86717.         1.       325.        23.
       172.        12.         2.                    4.
     87430.         1.       118.        30.       0.16       0.06
                               2.       220.
     87814.         1.       198.        21.        2.0        0.6
                               1.       220.
     89100.         1.        46.        32.       0.06       0.04
                               1.       220.
     90260.         1.       842.        75.
       424.        38.         2.                   51.
     90345.         1.       328.        24.       1.29       0.37
                               2.       220.
     90545.         1.       216.        33.       0.42       0.13
                               2.       220.
     91745.         1.       257.        20.       0.62       0.12
                               2.       220.
     92682.         1.       546.        36.
       278.        19.         2.                   16.
     93145.         1.        65.        36.       0.09       0.04
                               1.       220.
     93680.         1.        66.        20.       0.09       0.04
                               1.       220.
     95080.         1.       280.        21.
       295.        25.         1.                   3.5
     95940.         1.       169.        18.       0.73       0.33
                               1.       220.
     96115.         1.       331.        18.       1.33       0.30
                               2.       220.
     96357.         1.       648.        45.
       332.        24.         2.                   28.
     97200.         1.       150.        18.       0.47       0.17
                               1.       220.
     97525.         1.       157.        17.       0.55       0.21
                               1.       220.
     97775.         1.       274.        22.       0.73       0.15
                               2.       220.
     98025.         1.       133.        23.       0.19       0.05
                               2.       220.
     98775.         1.        43.        26.       0.05       0.03
                               1.       220.
     99365.         1.       235.        29.       0.50       0.06
                               2.       220.
    100984.         1.       348.        19.       1.60       0.40
                               2.       220.
    101365.         1.       252.        27.       0.59       0.15
                               2.       220.
    101820.         1.       592.        50.
                                                    24.
    102305.         1.        74.        30.       0.11       0.07
                               1.       220.
    102525.         1.        65.        30.       0.09       0.05
                               1.       220.
    103055.         1.       214.        47.       0.42       0.18
                               2.       220.
    103345.         1.       709.        71.
                                                    1.0
    103475.         1.       243.        32.       0.54       0.16
                               2.       220.
    103920.         1.       578.        60.
                                                    0.9
    104600.         1.       939.        59.
                                                    1.5
    105710.         1.       521.        47.
       269.        25.         2.                    8.
    106542.         1.      1160.        68.
                                                    33.
    107925.         1.       105.        37.       0.20       0.14
                               1.       220.
    109275.         1.       313.        25.       1.09       0.30
                               2.       220.
    110600.         1.       235.        30.       0.50       0.14
                               2.       220.
    112300.         1.      1074.        66.
       683.        49.         2.                    5.
    113745.         1.       205.        25.       0.38       0.09
                               2.       220.
    115330.         1.       658.        44.
       334.        23.         2.                   39.
    115705.         1.       322.        23.       1.21       0.33
                               2.       220.
    115875.         1.       333.        20.       1.37       0.34
                               2.       220.
    116475.         1.        75.        24.       0.11       0.05
                               1.       220.
    116865.         1.       474.        36.
       254.        20.         2.                    7.
    117400.         1.       732.        48.
       394.        26.         2.                   10.
    117585.         1.       210.        32.       0.40       0.12
                               2.       220.
    118015.         1.       281.        25.       0.77       0.19
                               2.       220.
    118220.         1.       344.        18.       1.58       0.38
                               2.       220.
    118500.         1.       377.        18.       5.00       0.49
                               2.       220.
    120125.         1.       228.        36.       0.47       0.16
                               2.       220.
    120600.         1.       344.        30.       1.57       0.62
                               2.       220.
    120955.         1.       350.        20.       1.72       0.47
                               2.       220.
    121575.         1.       951.       116.
       483.        60.         2.                   62.
    122508.         1.      1128.        78.
       598.        43.         2.                   18.
    122745.         1.       320.        33.       1.18       0.45
                               2.       220.
    124925.         1.       253.        34.       0.60       0.19
                               2.       220.
    125515.         1.       120.        39.       0.27       0.19
                               1.       220.
    125664.         1.       778.        61.
       407.        37.         2.                   18.
    127045.         1.       616.        61.
       364.        42.         2.                    4.
    127305.         1.       271.        37.       0.70       0.25
                               2.       220.
    127775.         1.       277.        46.       0.74       0.25
                               2.       220.
    128255.         1.       335.        29.       1.38       0.50
                               2.       220.
    128425.         1.       272.        42.       0.71       0.29
                               2.       220.
    130200.         1.       107.        53.       0.14       0.09
                               2.       220.
    130425.         1.       650.        74.
                                                     1.
    130745.         1.       266.        35.       0.67       0.22
                               2.       220.
ENDDATA            390
ENDSUBENT          419
ENDENTRY             4
