ENTRY            40855     850425
SUBENT        40855001     850425
BIB                 10         15
INSTITUTE  (4CCPRI)
REFERENCE  (J,YK,3/57,15,8409)
AUTHOR     (JU.N.TROFIMOV,JU.A.NEMILOV)
TITLE       MO-98 RADIATION CAPTURE CROSS-SECTION FOR NEUTRON
            ENERGY RANGE 0.3 - 2. MEV
FACILITY   (VDG)
INC-SOURCE (P-T)
SAMPLE       MO-98 CONTENT IS 95.9 PC, MO-97 CONTENT IS 2.2 PC,
             MO-100 CONTENT IS 1.5 PC, MO-96 CONTENT IS 0.2 PC,
             MO-92, MO-94, MO-95 CONTENT IS 0.1 PC,EACH OF THEN,
             SAMPLE MASS IS 10 - 20  GRAM
METHOD     (ACTIV)
DETECTOR   (SCIN) FOR NEUTRON MONITORING
           (GELI) FOR SAMPLES
HISTORY    (850425C)
ENDBIB              15
NOCOMMON             0          0
ENDSUBENT           18
SUBENT        40855002     860206
BIB                  4          5
REACTION   (42-MO-98(N,G)42-MO-99,,SIG)
DECAY-DATA (42-MO-99,66.02HR,B-)
           (43-TC-99-M,6.002HR,DG,140.5,0.896)
MONITOR    (79-AU-197(N,G)79-AU-198,,SIG)
DECAY-MON  (79-AU-198-G,2.695D,DG,411.8,.9556)
ENDBIB               5
NOCOMMON             0          0
DATA                 5         12
EN         EN-RSL     DATA       ERR-T      MONIT
MEV        MEV        MB         MB         MB
 3.0000E-01 1.4000E-01 2.6000E+01 3.0000E+00 2.0650E+02
 4.0000E-01 1.4000E-01 2.3000E+01 2.0000E+00 1.5950E+02
 5.5000E-01 1.3000E-01 2.1000E+01 2.0000E+00 1.2440E+02
 7.0000E-01 1.3000E-01 2.2000E+01 2.0000E+00 1.0100E+02
 8.0000E-01 1.3000E-01 1.9500E+01 2.0000E+00 9.0800E+01
 8.5000E-01 1.2000E-01 1.8000E+01 2.0000E+00 8.7200E+01
 1.0000E+00 1.2000E-01 1.4000E+01 1.5000E+00 8.3000E+01
 1.2000E+00 1.1000E-01 1.7500E+01 1.5000E+00 7.6000E+01
 1.4000E+00 1.0000E-01 1.7500E+01 1.5000E+00 7.2000E+01
 1.6000E+00 9.0000E-02 1.6000E+01 1.5000E+00 6.9000E+01
 1.8000E+00 9.0000E-02 1.6000E+01 1.5000E+00 6.1500E+01
 2.0000E+00 8.0000E-02 1.3000E+01 1.0000E+00 5.4000E+01
ENDDATA             14
ENDSUBENT           24
ENDENTRY             2
