ENTRY            10419   20140919   20150202   20150123       1403
SUBENT        10419001   20140919   20150202   20150123       1403
BIB                 13         28
TITLE      Structure in the 235U keV Fission Cross Section
AUTHOR     (C.D.Bowman,G.S.Sidhu,M.L.Stelts,J.C.Browne)
REFERENCE  (C,71KNOX,2,584,197103)
REL-REF    (I,,R.L.Van Hemert+,J,NIM,89,263,1970)
INSTITUTE  (1USALRL)
FACILITY   (LINAC,1USALRL) The neutrons were produced by
           stopping the 100 MeV electron beam in a water-cooled
           tantalum target.
SAMPLE     (92-U-235,ENR=0.93) The 235U sample was a 0.125-cm-
           thick by 25-cm-diameter disk weighing 1300 g and
           containing 7% of 238U.
PART-DET   (G,N)
DETECTOR   (SCIN,GLASD) Permits the detection of fission events
           via a triple coincidence between the prompt fission
           gamma rays.
METHOD     (TOF,COINC) The experiment was carried out at the end
           of a 250-m flight path. Neutron flux was monitored
           using 6Li-loaded-glass detector.
ANALYSIS   (PGS) Data above 100 keV was corrected for
           6Li(n,alpha) cross sections. The data below 100 keV
           was normalized to Davey's evaluated value of 1.64 b
           at 100 keV.
ERR-ANALYS (DATA-ERR) No details are given.
HISTORY    (19740829C)
           (19830607A) Converted to reaction formalism
           (20030220A) updated to new date formats, lower case.
           (20140919A) BP: Updated the information, digitized
                       Figs. 1-4.
ENDBIB              28
COMMON               3          3
EN-RSL     EN-NRM     MONIT
NSEC/M     KEV        B
       0.25      100.0       1.64
ENDCOMMON            3
ENDSUBENT           35
SUBENT        10419002   20140919   20150202   20150123       1403
BIB                  4          4
REACTION   (92-U-235(N,F),,SIG)
STATUS     (CURVE) Figs. 1-4, page 587-590.
MONITOR    (92-U-235(N,F),,SIG)
MONIT-REF  ((MONIT),W.G.Davey,J,NSE,26,149,1966)
ENDBIB               4
COMMON               2          3
EN-NRM     MONIT
KEV        B
      100.0       1.64
ENDCOMMON            3
DATA                 3       2092
EN         DATA       DATA-ERR
KEV        B          B
     12.607      1.873      0.073
     12.621      1.763      0.060
     12.628      2.248      0.071
     12.641      2.168      0.061
     12.652      2.660      0.074
     12.659      2.500      0.072
     12.671      2.317      0.069
     12.682      2.391      0.073
     12.692      2.072      0.074
     12.702      2.128      0.074
     12.713      1.797      0.053
     12.720      1.761      0.054
     12.728      2.442      0.080
     12.742      2.097      0.056
     12.754      2.296      0.068
     12.761      2.024      0.065
     12.787      3.070      0.099
     12.792      1.929      0.061
     12.805      2.433      0.087
     12.812      2.445      0.076
     12.821      2.390      0.067
     12.832      2.544      0.077
     12.842      2.446      0.062
     12.851      2.089      0.062
     12.861      1.912      0.056
     12.872      1.977      0.056
     12.884      2.217      0.063
     12.895      2.402      0.071
     12.903      2.151      0.056
     12.914      2.174      0.065
     12.923      2.563      0.078
     12.935      2.578      0.078
     12.949      3.159      0.093
     12.959      2.410      0.067
     12.969      2.287      0.069
     12.977      2.546      0.072
     12.990      2.658      0.077
     13.000      3.122      0.096
     13.010      2.881      0.082
     13.019      2.678      0.073
     13.029      1.992      0.064
     13.038      2.297      0.067
     13.050      2.096      0.056
     13.061      2.380      0.066
     13.071      2.157      0.070
     13.086      2.555      0.077
     13.102      2.652      0.072
     13.115      2.140      0.065
     13.126      2.502      0.074
     13.134      2.460      0.069
     13.143      2.707      0.088
     13.158      2.974      0.081
     13.164      2.558      0.077
     13.176      2.394      0.066
     13.189      2.516      0.071
     13.202      2.473      0.069
     13.209      2.376      0.074
     13.218      2.759      0.081
     13.231      3.170      0.111
     13.244      3.142      0.101
     13.247      2.305      0.072
     13.258      2.355      0.065
     13.269      2.267      0.070
     13.280      2.640      0.062
     13.296      2.317      0.067
     13.305      2.830      0.074
     13.314      2.640      0.079
     13.324      2.903      0.086
     13.339      2.855      0.085
     13.345      2.517      0.071
     13.360      2.730      0.084
     13.366      2.353      0.059
     13.380      2.446      0.068
     13.389      2.238      0.068
     13.401      2.539      0.076
     13.413      2.486      0.065
     13.426      2.644      0.079
     13.434      2.710      0.079
     13.444      2.298      0.071
     13.459      2.580      0.083
     13.467      2.227      0.068
     13.479      2.513      0.070
     13.489      2.716      0.078
     13.501      2.751      0.085
     13.515      3.046      0.097
     13.524      2.621      0.084
     13.533      2.171      0.056
     13.544      2.805      0.092
     13.555      2.196      0.076
     13.566      2.163      0.060
     13.579      3.174      0.102
     13.590      2.643      0.085
     13.607      2.639      0.085
     13.612      2.131      0.068
     13.623      2.109      0.065
     13.637      2.504      0.061
     13.648      2.437      0.044
     13.656      2.118      0.068
     13.671      3.009      0.104
     13.677      2.192      0.066
     13.691      2.265      0.074
     13.704      2.672      0.095
     13.716      2.391      0.084
     13.723      2.019      0.064
     13.739      2.179      0.074
     13.746      2.344      0.077
     13.760      1.976      0.060
     13.768      2.111      0.074
     13.779      1.731      0.061
     13.795      1.986      0.070
     13.807      2.797      0.096
     13.819      2.792      0.086
     13.826      2.090      0.065
     13.840      1.900      0.060
     13.849      2.319      0.071
     13.862      2.431      0.090
     13.877      2.416      0.084
     13.889      2.437      0.077
     13.898      2.362      0.088
     13.909      2.090      0.071
     13.918      1.984      0.062
     13.933      2.429      0.085
     13.944      2.707      0.088
     13.957      2.763      0.084
     13.967      2.248      0.079
     13.977      1.743      0.056
     13.989      2.175      0.069
     14.003      2.635      0.093
     14.014      2.450      0.079
     14.026      3.128      0.102
     14.041      2.154      0.070
     14.049      2.210      0.065
     14.062      3.008      0.097
     14.075      2.434      0.093
     14.088      1.864      0.061
     14.095      2.063      0.069
     14.109      2.050      0.065
     14.121      2.463      0.088
     14.129      2.227      0.074
     14.144      2.112      0.070
     14.156      2.474      0.083
     14.169      1.955      0.065
     14.178      2.387      0.083
     14.192      2.420      0.065
     14.203      2.267      0.074
     14.217      2.504      0.088
     14.228      2.314      0.070
     14.239      2.157      0.074
     14.254      2.325      0.079
     14.266      2.710      0.079
     14.279      2.159      0.070
     14.290      2.410      0.065
     14.303      2.976      0.102
     14.313      2.480      0.079
     14.326      2.119      0.074
     14.338      2.555      0.084
     14.351      2.408      0.084
     14.360      2.176      0.070
     14.373      2.343      0.079
     14.384      2.131      0.065
     14.396      1.936      0.065
     14.408      1.876      0.056
     14.419      2.123      0.079
     14.435      2.160      0.084
     14.447      1.961      0.070
     14.461      2.370      0.079
     14.472      2.255      0.074
     14.484      2.909      0.102
     14.495      2.520      0.088
     14.508      1.931      0.074
     14.519      2.201      0.083
     14.533      2.698      0.093
     14.545      2.165      0.069
     14.560      2.583      0.102
     14.572      2.481      0.083
     14.583      2.305      0.084
     14.596      2.028      0.070
     14.606      2.353      0.083
     14.621      2.312      0.074
     14.633      2.507      0.083
     14.647      3.227      0.111
     14.655      2.591      0.093
     14.669      2.425      0.093
     14.682      2.694      0.102
     14.693      2.514      0.084
     14.706      2.654      0.088
     14.718      2.357      0.074
     14.733      2.321      0.070
     14.744      2.330      0.079
     14.758      2.150      0.070
     14.770      2.072      0.074
     14.781      2.397      0.093
     14.794      2.077      0.074
     14.808      2.310      0.083
     14.820      2.686      0.102
     14.837      2.677      0.088
     14.850      3.003      0.107
     14.861      2.535      0.083
     14.872      2.619      0.093
     14.885      2.285      0.079
     14.898      2.633      0.093
     14.910      2.337      0.084
     14.923      2.727      0.084
     14.938      2.825      0.102
     14.950      3.239      0.111
     14.961      2.678      0.088
     14.973      1.927      0.060
     14.987      2.363      0.074
     15.005      1.994      0.065
     15.039      2.380      0.081
     15.052      1.567      0.058
     15.070      1.992      0.062
     15.076      1.903      0.054
     15.098      2.320      0.081
     15.109      2.000      0.062
     15.114      1.935      0.027
     15.131      1.862      0.054
     15.139      2.024      0.065
     15.178      2.765      0.100
     15.182      2.002      0.073
     15.213      2.187      0.073
     15.219      1.744      0.058
     15.237      1.991      0.062
     15.260      2.157      0.069
     15.275      1.656      0.062
     15.276      1.988      0.058
     15.293      2.270      0.081
     15.309      2.409      0.085
     15.320      2.058      0.069
     15.332      2.263      0.062
     15.344      2.059      0.069
     15.360      2.206      0.065
     15.378      2.106      0.062
     15.390      2.268      0.073
     15.407      2.191      0.062
     15.426      2.361      0.069
     15.436      2.107      0.077
     15.458      2.138      0.085
     15.466      1.923      0.066
     15.485      2.498      0.085
     15.499      1.869      0.073
     15.511      2.012      0.062
     15.523      2.178      0.062
     15.533      2.240      0.054
     15.552      2.075      0.069
     15.572      2.222      0.073
     15.577      2.021      0.065
     15.594      2.485      0.081
     15.610      2.257      0.081
     15.623      2.215      0.073
     15.636      2.331      0.073
     15.652      2.466      0.089
     15.664      2.116      0.073
     15.678      2.178      0.077
     15.685      2.020      0.069
     15.698      1.958      0.062
     15.721      1.978      0.069
     15.730      2.279      0.089
     15.742      2.457      0.081
     15.761      2.646      0.096
     15.773      2.454      0.085
     15.787      2.153      0.077
     15.802      1.961      0.070
     15.811      2.088      0.046
     15.828      2.227      0.062
     15.878      2.614      0.077
     15.882      2.059      0.069
     15.905      2.422      0.073
     15.932      2.418      0.077
     15.947      2.268      0.073
     15.954      1.752      0.050
     15.963      2.029      0.065
     15.982      2.635      0.093
     15.997      2.096      0.058
     16.017      2.609      0.081
     16.042      2.324      0.066
     16.061      2.544      0.093
     16.068      2.197      0.066
     16.082      2.294      0.062
     16.092      1.812      0.058
     16.128      2.303      0.073
     16.144      2.103      0.069
     16.158      2.523      0.073
     16.173      2.200      0.069
     16.183      1.884      0.069
     16.199      2.250      0.065
     16.209      2.505      0.069
     16.236      2.317      0.069
     16.256      2.101      0.066
     16.290      2.495      0.085
     16.298      2.117      0.073
     16.316      2.561      0.077
     16.332      2.172      0.062
     16.357      2.250      0.069
     16.373      2.597      0.085
     16.401      2.363      0.069
     16.417      2.548      0.089
     16.431      2.066      0.066
     16.447      2.402      0.062
     16.475      2.191      0.062
     16.486      2.036      0.070
     16.509      2.195      0.066
     16.512      1.894      0.065
     16.529      1.652      0.054
     16.547      1.880      0.066
     16.561      2.497      0.089
     16.590      2.424      0.073
     16.606      2.205      0.069
     16.619      2.113      0.062
     16.638      2.325      0.073
     16.649      1.982      0.066
     16.671      2.441      0.073
     16.679      2.226      0.069
     16.703      2.554      0.077
     16.713      2.288      0.066
     16.728      2.678      0.073
     16.742      1.818      0.058
     16.763      1.934      0.058
     16.774      2.131      0.058
     16.801      2.487      0.085
     16.816      1.947      0.054
     16.854      2.353      0.081
     16.859      1.932      0.058
     16.885      2.191      0.069
     16.900      2.041      0.069
     16.913      1.945      0.062
     16.933      2.111      0.062
     16.943      2.196      0.077
     16.960      1.908      0.062
     16.974      2.367      0.069
     16.986      1.962      0.058
     17.017      2.179      0.073
     17.038      2.430      0.081
     17.055      1.991      0.062
     17.063      2.184      0.077
     17.091      2.157      0.070
     17.094      2.535      0.089
     17.115      2.655      0.073
     17.133      2.170      0.066
     17.163      2.213      0.085
     17.178      1.858      0.062
     17.202      2.013      0.062
     17.210      2.194      0.062
     17.234      2.322      0.070
     17.248      2.222      0.058
     17.266      2.284      0.089
     17.293      2.308      0.085
     17.311      2.358      0.073
     17.329      1.861      0.042
     17.351      1.912      0.050
     17.369      1.974      0.038
     17.393      2.117      0.058
     17.404      2.353      0.069
     17.414      1.886      0.062
     17.438      2.203      0.069
     17.458      2.365      0.066
     17.470      2.130      0.065
     17.486      1.934      0.058
     17.507      1.873      0.039
     17.523      1.819      0.050
     17.540      2.136      0.077
     17.552      2.471      0.081
     17.570      2.549      0.073
     17.589      2.553      0.069
     17.600      2.411      0.054
     17.613      2.326      0.062
     17.631      2.014      0.054
     17.649      2.284      0.058
     17.669      2.420      0.069
     17.684      1.900      0.054
     17.707      2.475      0.069
     17.717      2.174      0.065
     17.736      2.545      0.069
     17.753      2.653      0.077
     17.762      2.252      0.058
     17.789      2.422      0.073
     17.840      2.593      0.073
     17.851      2.084      0.073
     17.866      2.262      0.069
     17.886      2.232      0.065
     17.903      2.170      0.066
     17.923      2.711      0.077
     17.937      2.194      0.058
     17.955      2.461      0.066
     17.973      2.503      0.073
     17.989      1.964      0.062
     18.009      2.292      0.058
     18.028      2.312      0.066
     18.037      1.880      0.058
     18.060      2.428      0.073
     18.069      2.748      0.065
     18.097      2.876      0.081
     18.110      1.893      0.054
     18.126      2.055      0.062
     18.146      2.376      0.062
     18.159      2.484      0.062
     18.177      2.215      0.073
     18.198      2.481      0.066
     18.227      2.412      0.058
     18.246      2.027      0.058
     18.265      2.243      0.066
     18.294      2.148      0.062
     18.317      2.530      0.077
     18.333      2.314      0.066
     18.354      2.639      0.073
     18.367      2.388      0.073
     18.392      2.855      0.062
     18.406      2.161      0.066
     18.427      2.659      0.077
     18.447      2.629      0.070
     18.447      2.058      0.054
     18.471      2.032      0.050
     18.497      2.807      0.077
     18.505      2.426      0.069
     18.529      2.191      0.058
     18.550      2.145      0.062
     18.559      2.415      0.066
     18.580      2.520      0.073
     18.594      2.235      0.062
     18.624      2.455      0.081
     18.634      2.162      0.054
     18.656      2.263      0.069
     18.671      2.086      0.058
     18.690      2.083      0.062
     18.711      2.403      0.066
     18.722      2.619      0.077
     18.740      2.292      0.066
     18.767      2.474      0.069
     18.778      2.347      0.062
     18.797      2.362      0.058
     18.821      2.494      0.050
     18.840      2.502      0.069
     18.857      2.433      0.062
     18.872      2.268      0.062
     18.889      2.187      0.054
     18.907      1.902      0.054
     18.927      2.408      0.066
     18.944      2.879      0.081
     18.962      2.404      0.066
     18.982      2.555      0.058
     18.998      2.521      0.066
     19.015      2.652      0.073
     19.037      2.337      0.073
     19.056      2.175      0.058
     19.068      2.522      0.069
     19.097      2.619      0.073
     19.117      2.766      0.077
     19.131      2.462      0.062
     19.151      2.455      0.066
     19.175      2.027      0.050
     19.209      1.692      0.054
     19.236      2.071      0.058
     19.263      2.260      0.062
     19.282      2.118      0.062
     19.298      2.438      0.073
     19.319      2.181      0.050
     19.337      1.861      0.046
     19.359      1.946      0.042
     19.370      2.124      0.062
     19.392      2.032      0.054
     19.409      2.117      0.062
     19.429      1.917      0.062
     19.467      2.481      0.069
     19.486      2.157      0.054
     19.505      1.980      0.046
     19.527      2.235      0.066
     19.548      1.946      0.058
     19.578      2.205      0.069
     19.606      1.982      0.042
     19.619      2.090      0.046
     19.640      1.994      0.054
     19.668      1.779      0.042
     19.684      2.281      0.058
     19.697      1.876      0.062
     19.725      1.838      0.042
     19.741      2.185      0.058
     19.764      2.005      0.054
     19.778      1.866      0.046
     19.798      2.383      0.069
     19.820      1.921      0.042
     19.837      2.037      0.058
     19.863      1.899      0.046
     19.879      2.026      0.066
     19.898      2.065      0.050
     19.919      1.977      0.058
     19.945      2.047      0.050
     19.957      2.360      0.073
     19.984      2.364      0.058
     20.004      2.009      0.059
     20.030      2.555      0.073
     20.049      2.282      0.059
     20.104      2.286      0.064
     20.122      2.164      0.059
     20.141      2.059      0.068
     20.149      2.491      0.059
     20.176      2.432      0.050
     20.196      1.841      0.045
     20.223      2.068      0.050
     20.241      1.886      0.050
     20.269      1.796      0.041
     20.277      2.359      0.073
     20.296      2.132      0.045
     20.314      2.091      0.050
     20.333      1.677      0.055
     20.369      1.932      0.041
     20.378      2.155      0.064
     20.415      1.977      0.055
     20.452      1.741      0.055
     20.469      2.100      0.059
     20.487      2.178      0.055
     20.514      2.196      0.064
     20.533      1.846      0.050
     20.542      2.050      0.050
     20.569      2.082      0.055
     20.588      1.746      0.045
     20.607      1.482      0.045
     20.624      1.987      0.059
     20.661      1.755      0.050
     20.670      1.937      0.055
     20.706      2.059      0.045
     20.715      2.309      0.064
     20.743      2.082      0.064
     20.770      1.941      0.055
     20.779      2.114      0.059
     20.807      1.946      0.041
     20.816      1.832      0.055
     20.871      1.787      0.055
     20.889      1.937      0.050
     20.898      2.128      0.059
     20.925      2.201      0.068
     20.944      2.046      0.068
     20.989      2.228      0.068
     20.998      2.041      0.036
     21.026      1.996      0.045
     21.053      1.955      0.041
     21.063      1.760      0.050
     21.081      1.851      0.050
     21.108      1.801      0.041
     21.117      2.055      0.059
     21.155      1.487      0.045
     21.163      1.723      0.050
     21.190      1.955      0.050
     21.236      2.010      0.068
     21.281      1.951      0.041
     21.291      1.701      0.050
     21.337      1.692      0.045
     21.345      1.837      0.050
     21.354      2.123      0.059
     21.381      2.419      0.059
     21.408      2.214      0.059
     21.436      2.146      0.055
     21.455      1.792      0.050
     21.482      1.974      0.055
     21.510      1.574      0.050
     21.519      1.801      0.050
     21.527      2.160      0.059
     21.554      2.333      0.068
     21.591      2.165      0.055
     21.610      1.992      0.055
     21.627      2.342      0.055
     21.654      2.355      0.064
     21.673      2.110      0.064
     21.701      1.915      0.050
     21.709      2.269      0.059
     21.746      2.274      0.059
     21.755      2.133      0.055
     21.801      2.110      0.045
     21.810      2.310      0.050
     21.818      2.583      0.068
     21.855      2.269      0.041
     21.873      2.383      0.064
     21.892      2.065      0.059
     21.910      2.356      0.055
     21.956      2.151      0.055
     21.973      2.528      0.059
     21.983      2.292      0.050
     22.020      2.115      0.050
     22.046      2.447      0.073
     22.056      2.110      0.050
     22.092      2.442      0.064
     22.111      2.110      0.055
     22.129      2.251      0.055
     22.156      2.492      0.050
     22.193      2.297      0.050
     22.210      2.819      0.073
     22.247      2.388      0.050
     22.255      2.979      0.068
     22.283      2.797      0.059
     22.283      2.538      0.055
     22.328      2.833      0.064
     22.366      2.429      0.055
     22.375      2.279      0.045
     22.412      1.983      0.036
     22.440      2.056      0.050
     22.448      2.183      0.045
     22.494      2.201      0.055
     22.513      2.011      0.050
     22.530      2.488      0.059
     22.549      2.101      0.045
     22.576      2.161      0.055
     22.585      2.320      0.050
     22.621      2.251      0.041
     22.640      1.983      0.055
     22.686      2.120      0.050
     22.694      2.329      0.059
     22.722      1.965      0.050
     22.750      2.033      0.045
     22.778      1.829      0.050
     22.795      2.197      0.045
     22.841      2.143      0.045
     22.858      2.470      0.045
     22.887      1.874      0.055
     22.914      1.802      0.041
     22.941      1.970      0.050
     22.978      1.797      0.045
     22.996      2.233      0.041
     23.014      2.197      0.036
     23.033      1.829      0.041
     23.069      1.974      0.041
     23.088      1.852      0.045
     23.105      2.052      0.055
     23.142      2.061      0.059
     23.170      1.902      0.050
     23.197      1.725      0.050
     23.205      2.215      0.059
     23.242      1.979      0.073
     23.270      1.902      0.045
     23.278      2.279      0.059
     23.315      2.043      0.055
     23.342      2.152      0.055
     23.370      1.843      0.050
     23.378      2.411      0.059
     23.415      2.347      0.041
     23.443      2.047      0.055
     23.471      1.838      0.045
     23.489      1.711      0.045
     23.516      1.916      0.041
     23.543      2.207      0.050
     23.562      1.984      0.050
     23.598      1.902      0.050
     23.625      2.047      0.050
     23.643      2.352      0.055
     23.680      2.002      0.041
     23.689      2.234      0.064
     23.726      2.129      0.050
     23.743      2.320      0.059
     23.761      2.452      0.064
     23.789      2.275      0.055
     23.834      2.402      0.050
     23.835      2.084      0.045
     23.880      2.189      0.050
     23.926      2.143      0.045
     23.944      2.252      0.064
     23.990      2.089      0.045
     24.045      2.157      0.055
     24.054      2.293      0.059
     24.081      2.084      0.050
     24.118      2.034      0.045
     24.146      1.943      0.041
     24.164      2.034      0.045
     24.200      2.284      0.055
     24.218      2.175      0.050
     24.255      2.057      0.050
     24.263      2.366      0.055
     24.299      2.448      0.055
     24.327      2.298      0.055
     24.354      2.607      0.055
     24.382      2.348      0.055
     24.409      2.489      0.059
     24.419      2.139      0.060
     24.455      2.234      0.061
     24.492      2.098      0.062
     24.528      2.162      0.063
     24.537      2.375      0.064
     24.564      2.325      0.045
     24.592      2.193      0.041
     24.628      2.212      0.050
     24.646      2.362      0.050
     24.684      1.866      0.045
     24.701      2.262      0.059
     24.729      2.171      0.045
     24.757      2.048      0.050
     24.793      2.121      0.041
     24.820      2.266      0.050
     24.838      2.221      0.041
     24.866      1.994      0.050
     24.911      2.253      0.064
     24.930      2.098      0.055
     24.947      2.353      0.055
     24.975      2.398      0.055
     25.011      2.407      0.050
     25.048      2.176      0.055
     25.103      1.957      0.041
     25.130      2.171      0.050
     25.139      2.344      0.059
     25.176      2.176      0.045
     25.212      2.271      0.055
     25.240      2.158      0.045
     25.276      2.326      0.045
     25.285      2.276      0.041
     25.321      2.435      0.059
     25.349      2.258      0.050
     25.377      2.130      0.050
     25.423      1.935      0.041
     25.449      2.230      0.055
     25.468      2.108      0.050
     25.486      2.003      0.045
     25.523      2.085      0.050
     25.540      2.358      0.055
     25.578      2.026      0.041
     25.613      2.262      0.055
     25.632      2.135      0.055
     25.669      1.940      0.041
     25.706      1.799      0.041
     25.733      1.990      0.041
     25.778      2.085      0.045
     25.815      2.062      0.045
     25.842      1.971      0.041
     25.870      1.785      0.045
     25.897      1.903      0.050
     25.943      1.831      0.045
     25.961      2.035      0.041
     25.988      2.126      0.055
     26.015      2.322      0.059
     26.051      2.235      0.045
     26.106      2.158      0.045
     26.143      2.290      0.055
     26.161      1.999      0.064
     26.197      2.226      0.045
     26.233      2.422      0.059
     26.261      2.122      0.055
     26.280      2.013      0.045
     26.317      1.967      0.036
     26.344      2.094      0.050
     26.390      1.967      0.041
     26.407      2.113      0.032
     26.444      2.195      0.045
     26.480      2.099      0.045
     26.490      1.795      0.036
     26.536      1.867      0.045
     26.563      2.036      0.055
     26.591      1.804      0.036
     26.636      1.813      0.045
     26.645      2.117      0.055
     26.681      1.949      0.045
     26.709      2.049      0.059
     26.736      2.154      0.045
     26.782      1.786      0.041
     26.809      1.867      0.045
     26.836      2.195      0.055
     26.864      1.808      0.050
     26.901      1.863      0.045
     26.927      2.095      0.059
     26.955      2.149      0.055
     26.982      2.054      0.045
     27.010      1.854      0.050
     27.065      1.849      0.045
     27.092      2.031      0.050
     27.119      1.949      0.045
     27.147      1.872      0.041
     27.174      1.831      0.050
     27.220      1.740      0.041
     27.256      1.918      0.055
     27.274      2.109      0.055
     27.320      1.881      0.055
     27.329      1.822      0.041
     27.365      2.041      0.055
     27.411      1.913      0.050
     27.439      1.772      0.036
     27.475      1.909      0.059
     27.503      1.763      0.045
     27.530      1.732      0.045
     27.567      1.845      0.036
     27.603      1.759      0.050
     27.631      1.613      0.050
     27.658      1.836      0.045
     27.703      1.827      0.045
     27.730      2.127      0.050
     27.749      2.050      0.036
     27.794      1.914      0.045
     27.831      1.764      0.045
     27.858      2.082      0.050
     27.885      2.168      0.059
     27.904      1.995      0.055
     27.959      1.973      0.050
     28.004      1.895      0.036
     28.023      1.864      0.041
     28.059      1.900      0.045
     28.086      1.859      0.041
     28.113      2.050      0.055
     28.168      2.150      0.055
     28.195      2.105      0.045
     28.214      2.014      0.041
     28.268      2.050      0.055
     28.314      2.132      0.059
     28.369      1.964      0.055
     28.396      2.264      0.059
     28.423      2.114      0.045
     28.469      2.241      0.059
     28.497      2.028      0.041
     28.533      1.914      0.050
     28.560      2.009      0.045
     28.606      2.014      0.055
     28.634      1.850      0.045
     28.661      2.087      0.050
     28.697      2.223      0.059
     28.734      2.100      0.050
     28.770      2.141      0.059
     28.807      1.932      0.059
     28.843      2.096      0.055
     28.870      2.187      0.064
     28.897      2.455      0.073
     28.943      2.223      0.050
     28.961      2.328      0.064
     29.007      2.305      0.064
     29.044      1.873      0.055
     29.080      2.296      0.068
     29.098      2.387      0.068
     29.163      1.942      0.055
     29.181      2.028      0.064
     29.226      2.214      0.068
     29.253      2.137      0.050
     29.290      2.046      0.050
     29.327      1.837      0.050
     29.382      1.769      0.059
     29.418      1.828      0.045
     29.436      2.010      0.059
     29.473      1.714      0.050
     29.509      2.164      0.055
     29.546      2.028      0.055
     29.583      1.837      0.055
     29.628      1.755      0.041
     29.646      1.878      0.059
     29.683      1.674      0.041
     29.719      1.924      0.059
     29.765      1.919      0.059
     29.802      1.710      0.050
     29.838      1.965      0.055
     29.875      1.647      0.050
     29.911      1.669      0.041
     29.947      1.828      0.055
     29.975      1.733      0.055
     30.011      2.103      0.069
     30.080      1.780      0.049
     30.115      1.858      0.047
     30.163      1.923      0.047
     30.212      1.991      0.050
     30.226      1.889      0.051
     30.269      2.077      0.061
     30.302      1.767      0.045
     30.343      1.889      0.048
     30.392      1.777      0.049
     30.433      1.777      0.052
     30.454      2.083      0.058
     30.488      2.056      0.053
     30.523      2.260      0.057
     30.564      2.031      0.055
     30.606      1.753      0.041
     30.634      1.797      0.050
     30.682      1.746      0.041
     30.710      2.039      0.053
     30.758      1.862      0.047
     30.793      2.015      0.045
     30.827      2.226      0.062
     30.862      2.073      0.058
     30.903      2.018      0.048
     30.945      1.909      0.049
     30.986      2.093      0.059
     31.028      2.052      0.047
     31.055      1.852      0.046
     31.102      2.047      0.061
     31.131      2.447      0.063
     31.187      1.909      0.043
     31.228      1.960      0.039
     31.270      2.022      0.048
     31.304      2.039      0.053
     31.325      2.005      0.044
     31.374      2.110      0.053
     31.415      1.909      0.049
     31.450      2.090      0.058
     31.491      2.093      0.062
     31.519      1.858      0.053
     31.567      1.974      0.046
     31.595      2.049      0.060
     31.643      2.008      0.051
     31.685      2.209      0.064
     31.719      2.165      0.049
     31.761      1.940      0.044
     31.802      2.008      0.057
     31.844      2.161      0.059
     31.892      2.018      0.048
     31.927      1.991      0.050
     31.968      2.008      0.061
     32.001      1.779      0.048
     32.044      1.940      0.054
     32.093      1.763      0.048
     32.133      2.096      0.055
     32.169      2.008      0.045
     32.210      2.015      0.058
     32.252      1.899      0.049
     32.300      1.930      0.047
     32.335      2.035      0.046
     32.376      2.041      0.052
     32.411      1.807      0.057
     32.452      1.777      0.046
     32.494      1.899      0.042
     32.546      1.653      0.042
     32.570      1.899      0.049
     32.639      1.903      0.039
     32.653      1.865      0.034
     32.701      2.100      0.052
     32.743      2.107      0.053
     32.777      1.916      0.040
     32.826      1.947      0.045
     32.867      2.008      0.048
     32.916      1.937      0.047
     32.953      1.615      0.042
     33.006      1.869      0.050
     33.045      1.767      0.042
     33.082      1.930      0.044
     33.123      2.127      0.060
     33.165      2.151      0.052
     33.209      1.867      0.052
     33.248      2.039      0.043
     33.288      2.018      0.055
     33.338      2.022      0.048
     33.373      2.235      0.061
     33.420      2.001      0.057
     33.465      2.077      0.048
     33.503      2.107      0.053
     33.552      1.937      0.057
     33.590      2.031      0.048
     33.642      2.028      0.049
     33.682      2.080      0.055
     33.732      1.977      0.049
     33.773      1.981      0.053
     33.822      1.688      0.041
     33.856      2.073      0.048
     33.892      2.073      0.058
     33.946      1.794      0.053
     33.984      1.957      0.055
     34.036      2.260      0.057
     34.077      2.001      0.054
     34.112      1.892      0.048
     34.160      1.940      0.038
     34.202      1.994      0.057
     34.257      1.780      0.046
     34.299      2.052      0.053
     34.347      1.848      0.049
     34.389      2.022      0.048
     34.444      1.886      0.045
     34.485      1.767      0.045
     34.527      1.943      0.051
     34.561      1.844      0.048
     34.610      2.001      0.051
     34.658      1.899      0.046
     34.700      2.127      0.060
     34.755      1.926      0.044
     34.804      1.986      0.052
     34.844      2.015      0.058
     34.890      1.896      0.052
     34.942      1.838      0.039
     34.990      1.852      0.040
     35.025      2.144      0.051
     35.080      2.032      0.046
     35.119      1.918      0.048
     35.163      1.869      0.041
     35.225      2.028      0.049
     35.267      2.154      0.049
     35.308      1.916      0.053
     35.356      1.873      0.048
     35.408      1.983      0.048
     35.454      1.954      0.048
     35.495      1.794      0.050
     35.544      1.862      0.060
     35.579      2.070      0.074
     35.585      1.818      0.058
     35.627      2.086      0.071
     35.644      2.022      0.055
     35.668      1.875      0.067
     35.703      1.947      0.048
     35.716      2.005      0.061
     35.758      2.090      0.065
     35.772      2.042      0.056
     35.792      1.909      0.052
     35.848      1.964      0.055
     35.855      2.039      0.069
     35.882      1.926      0.053
     35.903      1.828      0.055
     35.924      2.080      0.061
     35.952      1.950      0.058
     35.972      1.831      0.052
     36.000      1.736      0.050
     36.032      1.821      0.058
     36.071      1.763      0.055
     36.111      1.896      0.068
     36.131      1.977      0.069
     36.166      2.008      0.061
     36.207      1.862      0.053
     36.214      1.954      0.071
     36.277      1.814      0.061
     36.288      2.041      0.068
     36.311      1.695      0.058
     36.353      1.807      0.070
     36.387      1.906      0.065
     36.408      1.967      0.059
     36.443      1.729      0.051
     36.463      1.634      0.061
     36.491      1.807      0.058
     36.519      1.848      0.051
     36.532      1.892      0.044
     36.574      1.943      0.058
     36.609      1.994      0.061
     36.643      1.763      0.058
     36.664      1.511      0.044
     36.698      1.760      0.065
     36.705      1.967      0.068
     36.761      1.767      0.085
     36.802      1.709      0.054
     36.844      1.773      0.061
     36.871      1.916      0.058
     36.906      1.882      0.051
     36.927      2.032      0.061
     36.968      2.049      0.071
     36.996      1.892      0.051
     37.030      1.794      0.061
     37.065      1.957      0.051
     37.093      1.852      0.051
     37.106      2.018      0.054
     37.148      1.852      0.065
     37.196      1.926      0.051
     37.210      2.080      0.065
     37.245      1.869      0.058
     37.252      1.699      0.054
     37.300      1.811      0.058
     37.321      1.699      0.051
     37.342      2.035      0.068
     37.376      1.930      0.061
     37.425      1.848      0.058
     37.473      1.991      0.065
     37.549      1.974      0.065
     37.591      2.028      0.054
     37.660      1.821      0.054
     37.680      1.889      0.058
     37.701      2.001      0.065
     37.722      1.743      0.054
     37.750      1.794      0.058
     37.777      1.648      0.058
     37.819      1.702      0.065
     37.874      1.763      0.051
     37.902      1.811      0.058
     37.922      1.926      0.061
     37.950      1.991      0.075
     37.985      1.787      0.051
     38.047      1.729      0.054
     38.068      1.913      0.075
     38.095      1.838      0.041
     38.116      1.729      0.048
     38.144      1.923      0.058
     38.171      2.032      0.065
     38.206      1.627      0.058
     38.227      1.828      0.058
     38.241      1.875      0.058
     38.289      1.865      0.065
     38.310      1.736      0.061
     38.344      1.661      0.051
     38.344      1.991      0.068
     38.386      1.964      0.058
     38.420      1.797      0.061
     38.448      1.977      0.071
     38.476      1.845      0.061
     38.483      1.488      0.051
     38.503      1.729      0.065
     38.559      1.722      0.054
     38.566      1.957      0.068
     38.586      2.011      0.071
     38.628      1.960      0.051
     38.635      1.852      0.061
     38.676      1.862      0.058
     38.711      2.056      0.061
     38.738      2.124      0.071
     38.759      1.988      0.054
     38.815      2.039      0.061
     38.835      1.855      0.048
     38.870      1.756      0.054
     38.891      1.916      0.051
     38.918      2.182      0.071
     38.946      1.869      0.054
     38.981      1.784      0.061
     38.987      1.841      0.051
     39.036      1.763      0.048
     39.050      1.869      0.065
     39.098      1.756      0.065
     39.119      1.828      0.061
     39.140      2.018      0.061
     39.174      1.831      0.065
     39.209      1.835      0.065
     39.223      2.049      0.065
     39.243      2.107      0.061
     39.278      1.916      0.068
     39.306      1.865      0.034
     39.312      1.814      0.054
     39.326      1.773      0.048
     39.361      1.719      0.054
     39.409      1.726      0.061
     39.423      1.821      0.058
     39.444      1.940      0.061
     39.465      1.988      0.054
     39.499      1.940      0.048
     39.534      1.858      0.051
     39.561      2.042      0.065
     39.582      1.957      0.058
     39.610      2.035      0.065
     39.637      1.858      0.061
     39.672      1.729      0.054
     39.700      1.777      0.051
     39.727      1.875      0.061
     39.776      1.879      0.048
     39.783      1.923      0.054
     39.824      2.093      0.065
     39.880      1.913      0.061
     39.928      2.008      0.054
     39.956      1.886      0.048
     39.976      1.801      0.041
     40.033      1.678      0.061
     40.083      1.759      0.054
     40.117      2.160      0.073
     40.155      2.125      0.066
     40.169      1.883      0.066
     40.188      1.708      0.062
     40.225      1.864      0.059
     40.265      1.918      0.057
     40.335      1.994      0.069
     40.372      2.150      0.066
     40.396      1.914      0.058
     40.428      1.692      0.062
     40.449      1.828      0.062
     40.477      1.899      0.057
     40.525      1.962      0.056
     40.531      2.017      0.050
     40.559      2.091      0.062
     40.597      2.196      0.068
     40.628      2.025      0.063
     40.657      2.099      0.069
     40.683      1.948      0.058
     40.716      1.902      0.046
     40.727      1.845      0.037
     40.770      1.789      0.058
     40.809      1.836      0.049
     40.851      1.777      0.058
     40.878      1.906      0.064
     40.914      1.850      0.039
     40.934      1.642      0.057
     40.980      1.821      0.056
     41.000      1.879      0.040
     41.039      1.926      0.061
     41.061      1.850      0.053
     41.097      1.948      0.065
     41.113      1.766      0.057
     41.153      1.892      0.057
     41.169      1.575      0.046
     41.200      1.676      0.055
     41.250      1.890      0.061
     41.279      1.841      0.050
     41.322      1.990      0.063
     41.356      1.914      0.058
     41.379      2.071      0.072
     41.401      1.759      0.053
     41.435      1.807      0.046
     41.472      1.765      0.054
     41.498      1.621      0.054
     41.535      1.842      0.063
     41.562      1.773      0.058
     41.591      1.646      0.055
     41.623      1.494      0.046
     41.653      1.849      0.060
     41.678      1.685      0.049
     41.706      1.623      0.048
     41.747      1.823      0.056
     41.773      1.769      0.046
     41.802      1.893      0.051
     41.837      1.691      0.052
     41.901      1.778      0.055
     41.912      1.682      0.049
     41.941      1.760      0.051
     41.976      1.496      0.051
     42.009      1.755      0.051
     42.050      1.883      0.067
     42.117      1.793      0.052
     42.146      1.874      0.054
     42.163      1.707      0.050
     42.205      1.845      0.053
     42.226      1.715      0.060
     42.254      1.851      0.050
     42.284      1.942      0.059
     42.325      1.873      0.054
     42.355      1.756      0.058
     42.385      1.650      0.039
     42.403      1.694      0.043
     42.434      1.990      0.057
     42.476      2.064      0.069
     42.511      1.797      0.056
     42.528      1.759      0.048
     42.570      1.768      0.058
     42.599      1.651      0.059
     42.632      1.770      0.052
     42.665      1.950      0.066
     42.690      1.864      0.048
     42.727      1.754      0.048
     42.753      1.869      0.055
     42.785      1.993      0.069
     42.814      1.922      0.036
     42.856      1.860      0.058
     42.917      1.774      0.050
     42.964      1.976      0.057
     43.009      1.873      0.048
     43.027      1.709      0.044
     43.076      1.624      0.046
     43.115      1.865      0.046
     43.164      1.758      0.043
     43.193      1.855      0.052
     43.233      2.038      0.062
     43.252      1.758      0.055
     43.298      1.661      0.056
     43.332      1.930      0.063
     43.387      1.792      0.056
     43.415      1.931      0.063
     43.451      1.875      0.055
     43.487      1.827      0.060
     43.517      2.113      0.058
     43.550      1.965      0.061
     43.586      1.916      0.053
     43.617      1.878      0.048
     43.649      1.782      0.046
     43.700      1.678      0.047
     43.765      1.772      0.046
     43.809      1.928      0.046
     43.834      1.975      0.038
     43.869      1.913      0.059
     43.906      1.602      0.041
     43.924      1.639      0.041
     43.963      1.754      0.044
     44.002      1.797      0.058
     44.037      1.929      0.058
     44.061      1.894      0.044
     44.100      1.740      0.051
     44.121      1.808      0.054
     44.165      1.701      0.047
     44.198      1.959      0.064
     44.227      1.897      0.051
     44.266      1.944      0.051
     44.290      1.776      0.048
     44.328      1.877      0.041
     44.358      1.631      0.051
     44.399      1.623      0.044
     44.428      1.711      0.047
     44.453      1.615      0.051
     44.494      1.740      0.047
     44.516      1.822      0.048
     44.549      1.742      0.051
     44.586      1.905      0.054
     44.615      1.915      0.065
     44.641      1.631      0.044
     44.682      1.558      0.047
     44.718      1.776      0.057
     44.762      1.935      0.044
     44.833      1.950      0.065
     44.900      2.000      0.054
     44.947      1.848      0.044
     45.014      1.966      0.054
     45.040      1.880      0.041
     45.084      1.637      0.038
     45.117      1.687      0.048
     45.143      1.605      0.037
     45.181      1.641      0.044
     45.209      1.576      0.051
     45.256      1.837      0.047
     45.275      1.949      0.054
     45.313      1.924      0.044
     45.348      1.791      0.048
     45.373      1.630      0.041
     45.415      1.632      0.037
     45.445      1.730      0.041
     45.471      1.781      0.051
     45.511      1.561      0.048
     45.550      1.605      0.041
     45.590      1.931      0.058
     45.613      1.750      0.044
     45.655      1.749      0.048
     45.687      1.594      0.041
     45.727      1.917      0.054
     45.749      1.862      0.041
     45.785      1.807      0.054
     45.823      1.847      0.051
     45.846      2.000      0.068
     45.889      1.951      0.054
     45.917      1.814      0.048
     45.959      1.554      0.051
     45.983      1.720      0.048
     46.033      1.804      0.054
     46.064      1.766      0.044
     46.108      1.594      0.047
     46.133      1.839      0.051
     46.180      1.753      0.054
     46.200      1.950      0.055
     46.248      2.085      0.054
     46.274      1.863      0.044
     46.326      1.964      0.055
     46.396      1.839      0.047
     46.447      1.797      0.047
     46.486      2.048      0.064
     46.514      1.850      0.054
     46.547      1.767      0.044
     46.596      1.773      0.058
     46.614      2.086      0.068
     46.652      1.915      0.054
     46.697      1.815      0.048
     46.727      1.701      0.047
     46.771      1.932      0.051
     46.815      1.890      0.044
     46.865      1.899      0.054
     46.905      1.550      0.054
     46.942      1.505      0.044
     46.976      1.774      0.054
     47.032      1.718      0.040
     47.048      1.670      0.041
     47.085      1.553      0.051
     47.133      1.688      0.047
     47.169      1.772      0.047
     47.200      1.802      0.055
     47.230      1.757      0.058
     47.270      1.950      0.068
     47.313      1.891      0.058
     47.335      1.703      0.048
     47.367      1.750      0.051
     47.423      1.759      0.058
     47.443      1.881      0.051
     47.497      1.808      0.038
     47.595      1.751      0.058
     47.646      1.839      0.054
     47.674      1.640      0.044
     47.720      1.823      0.054
     47.771      1.781      0.055
     47.823      1.681      0.054
     47.897      1.730      0.054
     47.923      1.920      0.058
     48.000      1.796      0.058
     48.068      1.849      0.051
     48.123      1.782      0.051
     48.152      1.860      0.058
     48.186      1.996      0.061
     48.233      1.773      0.058
     48.258      1.817      0.058
     48.298      1.669      0.051
     48.341      1.753      0.055
     48.380      1.732      0.051
     48.416      1.605      0.051
     48.447      1.570      0.044
     48.482      1.647      0.038
     48.532      1.667      0.054
     48.571      1.778      0.054
     48.597      1.955      0.047
     48.645      2.025      0.065
     48.683      1.990      0.054
     48.724      1.853      0.054
     48.758      1.917      0.054
     48.787      1.797      0.051
     48.833      1.836      0.058
     48.865      1.880      0.058
     48.916      1.701      0.051
     48.955      1.745      0.048
     48.986      1.778      0.048
     49.049      1.725      0.058
     49.107      2.014      0.058
     49.147      1.798      0.047
     49.179      1.845      0.065
     49.215      1.997      0.065
     49.253      1.829      0.051
     49.287      1.753      0.048
     49.333      1.664      0.044
     49.377      1.819      0.055
     49.422      1.723      0.058
     49.454      1.899      0.058
     49.489      1.840      0.048
     49.523      1.700      0.047
     49.564      1.763      0.048
     49.601      1.848      0.051
     49.656      1.778      0.044
     49.692      1.730      0.048
     49.746      1.783      0.044
     49.777      1.816      0.048
     49.800      1.908      0.058
     49.858      1.800      0.054
     49.875      1.902      0.055
     49.927      1.799      0.044
     49.974      1.787      0.048
     50.005      1.733      0.050
     50.078      1.798      0.057
     50.124      1.644      0.053
     50.153      1.806      0.050
     50.205      2.062      0.067
     50.243      1.837      0.056
     50.281      1.743      0.044
     50.316      1.819      0.044
     50.353      1.655      0.050
     50.414      1.653      0.046
     50.449      1.876      0.053
     50.472      1.912      0.047
     50.517      1.748      0.050
     50.561      1.857      0.057
     50.605      1.749      0.050
     50.643      1.655      0.053
     50.675      1.644      0.050
     50.715      1.776      0.057
     50.752      1.675      0.043
     50.802      1.634      0.043
     50.845      1.526      0.047
     50.876      1.566      0.050
     50.920      1.878      0.066
     50.959      1.797      0.053
     50.989      1.833      0.053
     51.040      1.735      0.050
     51.074      1.738      0.054
     51.133      1.586      0.053
     51.164      1.696      0.053
     51.216      1.811      0.050
     51.247      1.717      0.050
     51.294      1.929      0.053
     51.333      1.772      0.053
     51.375      1.577      0.046
     51.419      1.616      0.047
     51.448      1.849      0.053
     51.493      1.894      0.047
     51.547      1.833      0.050
     51.626      1.741      0.053
     51.660      1.607      0.040
     51.703      1.636      0.043
     51.741      1.609      0.046
     51.781      1.674      0.047
     51.835      1.750      0.054
     51.873      1.869      0.053
     51.908      2.018      0.063
     51.959      1.917      0.060
     52.001      1.869      0.050
     52.040      1.371      0.033
     52.084      1.547      0.043
     52.125      1.759      0.057
     52.171      1.892      0.050
     52.204      1.884      0.046
     52.246      1.897      0.060
     52.293      2.039      0.060
     52.336      1.928      0.056
     52.377      1.860      0.053
     52.412      2.016      0.063
     52.477      1.924      0.050
     52.507      1.957      0.060
     52.544      1.783      0.053
     52.588      1.892      0.056
     52.634      1.737      0.053
     52.677      1.840      0.053
     52.712      1.855      0.043
     52.760      1.654      0.050
     52.804      1.827      0.053
     52.855      1.939      0.057
     52.884      1.891      0.040
     52.931      1.684      0.040
     52.976      1.663      0.046
     53.018      1.752      0.043
     53.061      1.851      0.053
     53.116      2.063      0.057
     53.157      1.862      0.047
     53.212      1.807      0.033
     53.274      1.752      0.053
     53.341      1.821      0.053
     53.408      1.889      0.060
     53.443      1.908      0.047
     53.513      1.860      0.043
     53.575      1.808      0.050
     53.618      1.841      0.036
     53.670      1.886      0.040
     53.708      1.929      0.050
     53.758      1.754      0.046
     53.806      1.903      0.056
     53.850      1.798      0.056
     53.891      1.741      0.047
     53.943      1.653      0.046
     53.989      1.709      0.047
     54.016      2.058      0.063
     54.074      1.960      0.050
     54.114      2.026      0.063
     54.168      1.758      0.053
     54.221      1.746      0.040
     54.284      1.775      0.046
     54.346      1.997      0.056
     54.377      1.896      0.047
     54.415      1.948      0.053
     54.477      1.887      0.050
     54.523      1.809      0.046
     54.566      1.771      0.043
     54.590      1.734      0.050
     54.652      1.959      0.060
     54.688      1.852      0.050
     54.729      1.858      0.050
     54.775      1.776      0.050
     54.823      1.779      0.050
     54.874      1.827      0.047
     54.919      1.800      0.047
     54.965      1.792      0.040
     55.007      1.878      0.047
     55.048      1.750      0.047
     55.096      1.682      0.050
     55.139      1.648      0.030
     55.184      1.830      0.050
     55.238      1.699      0.047
     55.289      1.668      0.050
     55.324      1.817      0.057
     55.370      1.809      0.053
     55.410      1.661      0.046
     55.467      1.770      0.040
     55.511      1.942      0.046
     55.549      1.995      0.050
     55.606      1.813      0.050
     55.639      1.809      0.056
     55.694      1.681      0.043
     55.739      1.797      0.043
     55.769      1.760      0.047
     55.829      1.828      0.053
     55.884      2.050      0.053
     55.911      1.916      0.047
     55.960      1.935      0.047
     56.019      1.780      0.043
     56.056      1.879      0.050
     56.104      1.892      0.060
     56.158      1.757      0.050
     56.199      1.759      0.043
     56.245      1.755      0.050
     56.295      1.710      0.047
     56.339      1.749      0.047
     56.387      1.758      0.050
     56.429      1.777      0.050
     56.484      1.716      0.050
     56.518      1.928      0.043
     56.581      1.817      0.057
     56.618      1.573      0.047
     56.678      1.565      0.046
     56.713      1.790      0.053
     56.760      1.866      0.047
     56.809      1.745      0.043
     56.853      1.777      0.047
     56.901      1.793      0.047
     56.961      1.715      0.046
     57.003      1.944      0.053
     57.057      1.806      0.047
     57.108      1.844      0.053
     57.150      2.000      0.053
     57.199      1.809      0.046
     57.243      1.848      0.040
     57.299      2.010      0.053
     57.347      1.815      0.047
     57.406      1.724      0.040
     57.430      1.773      0.053
     57.485      1.785      0.043
     57.523      1.755      0.047
     57.603      1.676      0.043
     57.636      1.675      0.040
     57.681      1.651      0.037
     57.734      1.850      0.047
     57.780      1.842      0.050
     57.839      1.754      0.040
     57.870      1.796      0.043
     57.919      1.752      0.043
     58.001      1.697      0.037
     58.076      1.701      0.050
     58.118      1.860      0.050
     58.180      1.876      0.050
     58.222      1.825      0.043
     58.272      1.853      0.050
     58.317      1.836      0.043
     58.364      1.695      0.050
     58.429      1.736      0.050
     58.477      1.749      0.044
     58.525      1.761      0.053
     58.582      1.723      0.053
     58.633      1.492      0.044
     58.686      1.690      0.043
     58.722      1.786      0.043
     58.785      1.808      0.037
     58.833      1.820      0.043
     58.880      1.816      0.050
     58.926      1.741      0.050
     58.979      1.653      0.040
     59.035      1.612      0.040
     59.084      1.628      0.047
     59.136      1.613      0.036
     59.181      1.735      0.043
     59.233      1.777      0.040
     59.286      1.776      0.043
     59.342      1.868      0.057
     59.390      1.740      0.047
     59.441      1.852      0.053
     59.497      1.801      0.046
     59.538      1.603      0.046
     59.584      1.586      0.040
     59.648      1.761      0.050
     59.695      1.763      0.047
     59.741      1.755      0.043
     59.809      1.624      0.050
     59.854      1.809      0.047
     59.908      1.881      0.050
     59.959      1.710      0.043
     60.064      1.673      0.043
     60.120      1.815      0.050
     60.198      1.934      0.060
     60.245      1.837      0.053
     60.322      1.686      0.050
     60.403      1.958      0.070
     60.482      1.947      0.047
     60.544      1.990      0.057
     60.608      1.846      0.050
     60.641      1.805      0.054
     60.712      1.761      0.043
     60.825      1.856      0.044
     60.879      1.989      0.057
     60.926      1.825      0.053
     60.981      1.698      0.040
     61.075      1.633      0.043
     61.140      1.756      0.047
     61.192      1.815      0.044
     61.263      1.771      0.047
     61.352      1.880      0.053
     61.397      1.703      0.050
     61.476      1.828      0.044
     61.541      1.951      0.046
     61.597      1.897      0.030
     61.656      1.859      0.036
     61.692      1.769      0.056
     61.759      1.838      0.040
     61.855      1.780      0.043
     61.924      1.726      0.040
     62.029      1.648      0.033
     62.099      1.731      0.040
     62.153      1.597      0.046
     62.189      1.843      0.047
     62.262      2.005      0.046
     62.323      1.841      0.036
     62.370      1.877      0.043
     62.429      1.903      0.047
     62.506      1.755      0.040
     62.543      1.672      0.040
     62.662      1.860      0.046
     62.742      1.796      0.050
     62.779      1.645      0.050
     62.867      1.748      0.043
     62.921      1.687      0.040
     63.016      1.689      0.037
     63.089      1.855      0.050
     63.156      1.721      0.050
     63.192      1.634      0.043
     63.254      1.743      0.040
     63.342      1.778      0.037
     63.399      1.798      0.037
     63.474      1.900      0.050
     63.533      1.729      0.043
     63.590      1.812      0.043
     63.639      1.788      0.040
     63.703      1.574      0.043
     63.792      1.619      0.040
     63.838      1.712      0.040
     63.891      1.775      0.037
     63.961      1.724      0.033
     64.046      1.683      0.040
     64.119      1.779      0.036
     64.195      1.758      0.057
     64.463      1.758      0.040
     64.565      1.863      0.060
     64.677      1.818      0.047
     64.745      1.758      0.043
     64.761      1.574      0.047
     64.851      1.420      0.040
     64.894      1.569      0.040
     64.973      1.628      0.040
     65.062      1.737      0.043
     65.154      1.662      0.026
     65.202      1.632      0.030
     65.244      1.841      0.050
     65.352      1.710      0.040
     65.402      1.759      0.033
     65.460      1.849      0.043
     65.500      1.781      0.040
     65.556      1.727      0.046
     65.614      1.817      0.047
     65.788      1.748      0.066
     65.969      1.782      0.053
     66.079      1.864      0.043
     66.124      1.820      0.040
     66.205      1.953      0.050
     66.262      1.839      0.043
     66.392      1.820      0.040
     66.564      1.741      0.046
     66.632      1.614      0.037
     66.760      1.652      0.040
     66.911      1.734      0.050
     67.009      1.756      0.037
     67.069      1.855      0.050
     67.143      1.688      0.037
     67.193      1.737      0.037
     67.248      1.810      0.037
     67.322      1.779      0.037
     67.373      1.831      0.037
     67.435      1.611      0.047
     67.488      1.740      0.043
     67.566      1.792      0.043
     67.627      1.765      0.030
     67.708      1.830      0.047
     67.770      1.940      0.057
     67.832      1.782      0.043
     67.874      1.662      0.040
     67.979      1.717      0.040
     68.056      1.566      0.043
     68.116      1.662      0.053
     68.198      1.804      0.054
     68.246      1.644      0.040
     68.358      1.599      0.036
     68.427      1.678      0.040
     68.524      1.824      0.043
     68.642      1.745      0.040
     68.716      1.648      0.036
     68.749      1.681      0.033
     68.834      1.703      0.036
     68.883      1.812      0.043
     68.957      1.782      0.053
     69.027      1.861      0.047
     69.072      1.817      0.030
     69.119      1.653      0.046
     69.203      1.802      0.043
     69.270      1.938      0.053
     69.321      1.727      0.040
     69.368      1.690      0.040
     69.437      1.769      0.037
     69.487      1.815      0.040
     69.585      1.707      0.040
     69.661      1.749      0.040
     69.720      1.712      0.036
     69.807      1.741      0.040
     69.894      1.577      0.036
     70.001      1.772      0.040
     70.088      1.674      0.043
     70.160      1.830      0.036
     70.220      1.729      0.036
     70.295      1.701      0.033
     70.349      1.774      0.040
     70.416      1.707      0.037
     70.483      1.772      0.040
     70.567      1.721      0.033
     70.629      1.697      0.030
     70.677      1.803      0.037
     70.759      1.879      0.043
     70.796      1.732      0.040
     70.871      1.704      0.037
     70.950      1.830      0.040
     70.993      1.776      0.036
     71.072      1.702      0.036
     71.155      1.847      0.037
     71.219      1.833      0.030
     71.295      1.746      0.046
     71.339      1.765      0.047
     71.459      1.760      0.050
     71.549      1.676      0.037
     71.607      1.832      0.046
     71.683      1.874      0.047
     71.773      1.790      0.037
     71.896      1.801      0.046
     71.956      1.634      0.040
     72.003      1.670      0.040
     72.090      1.832      0.039
     72.171      1.771      0.036
     72.219      1.807      0.037
     72.279      1.907      0.046
     72.365      1.869      0.033
     72.425      1.901      0.043
     72.486      1.934      0.043
     72.543      1.820      0.040
     72.606      1.733      0.033
     72.703      1.748      0.043
     72.765      1.724      0.033
     72.826      1.896      0.043
     72.872      1.859      0.040
     72.905      1.822      0.033
     72.969      1.741      0.043
     73.003      1.711      0.040
     73.049      1.670      0.030
     73.129      1.869      0.043
     73.171      1.879      0.047
     73.268      2.028      0.050
     73.339      2.047      0.046
     73.458      2.039      0.043
     73.552      1.904      0.040
     73.612      1.937      0.040
     73.695      1.819      0.047
     73.730      1.729      0.040
     73.833      1.637      0.047
     73.897      1.560      0.027
     73.997      1.589      0.037
     74.103      1.647      0.037
     74.170      1.716      0.047
     74.265      1.785      0.036
     74.314      1.831      0.040
     74.400      1.923      0.040
     74.468      1.866      0.037
     74.533      1.655      0.040
     74.608      1.761      0.043
     74.689      1.633      0.037
     74.758      1.709      0.037
     74.843      1.661      0.033
     74.871      1.738      0.027
     74.973      1.776      0.037
     75.060      1.742      0.027
     75.133      1.708      0.030
     75.252      1.696      0.030
     75.357      1.688      0.030
     75.427      1.704      0.036
     75.458      1.724      0.043
     75.566      1.592      0.030
     75.632      1.588      0.030
     75.673      1.728      0.046
     75.758      1.683      0.037
     75.821      1.729      0.040
     75.892      1.682      0.036
     75.981      1.660      0.037
     76.072      1.579      0.040
     76.151      1.572      0.033
     76.200      1.551      0.033
     76.260      1.714      0.043
     76.365      1.702      0.033
     76.433      1.838      0.053
     76.503      1.657      0.040
     76.588      1.679      0.040
     76.682      1.812      0.040
     76.754      1.771      0.033
     76.827      1.733      0.033
     76.913      1.695      0.040
     76.981      1.698      0.037
     77.052      1.654      0.043
     77.128      1.696      0.047
     77.186      1.719      0.040
     77.287      1.621      0.033
     77.357      1.637      0.043
     77.445      1.609      0.036
     77.482      1.725      0.050
     77.597      1.697      0.044
     77.670      1.796      0.043
     77.733      1.709      0.037
     77.800      1.908      0.046
     77.872      1.867      0.040
     77.971      1.692      0.043
     78.050      1.685      0.040
     78.128      1.804      0.040
     78.204      1.849      0.043
     78.258      1.722      0.040
     78.351      1.651      0.043
     78.431      1.513      0.043
     78.494      1.562      0.030
     78.574      1.625      0.034
     78.657      1.704      0.047
     78.754      1.586      0.037
     78.883      1.497      0.036
     78.946      1.477      0.033
     79.040      1.479      0.030
     79.117      1.595      0.043
     79.193      1.640      0.037
     79.308      1.612      0.040
     79.429      1.614      0.040
     79.566      1.559      0.033
     79.638      1.588      0.030
     79.754      1.630      0.030
     79.842      1.532      0.037
     79.910      1.671      0.033
     80.103      1.572      0.034
     80.252      1.676      0.040
     80.349      1.659      0.040
     80.431      1.646      0.030
     80.512      1.780      0.044
     80.582      1.646      0.044
     80.665      1.516      0.037
     80.734      1.509      0.033
     80.842      1.680      0.047
     80.897      1.643      0.040
     80.967      1.539      0.040
     81.062      1.630      0.037
     81.145      1.583      0.044
     81.226      1.627      0.040
     81.308      1.720      0.040
     81.377      1.600      0.044
     81.474      1.580      0.040
     81.568      1.717      0.040
     81.664      1.707      0.040
     81.733      1.701      0.044
     81.802      1.614      0.034
     81.898      1.664      0.037
     82.022      1.627      0.040
     82.117      1.664      0.044
     82.226      1.741      0.037
     82.295      1.674      0.037
     82.365      1.587      0.037
     82.447      1.594      0.044
     82.540      1.842      0.047
     82.609      1.842      0.047
     82.720      1.684      0.037
     82.801      1.788      0.037
     82.896      1.912      0.047
     82.951      1.902      0.047
     83.035      1.742      0.044
     83.158      1.795      0.040
     83.226      1.789      0.040
     83.296      1.641      0.044
     83.378      1.672      0.044
     83.475      1.601      0.040
     83.557      1.672      0.030
     83.627      1.497      0.040
     83.708      1.595      0.030
     83.817      1.638      0.033
     83.886      1.658      0.033
     83.982      1.659      0.034
     84.078      1.628      0.034
     84.146      1.669      0.033
     84.228      1.682      0.037
     84.283      1.645      0.030
     84.339      1.609      0.030
     84.407      1.595      0.037
     84.476      1.575      0.033
     84.571      1.649      0.037
     84.679      1.853      0.044
     84.762      1.763      0.030
     84.844      1.760      0.044
     84.941      1.683      0.044
     84.996      1.713      0.037
     85.105      1.773      0.037
     85.188      1.713      0.044
     85.285      1.559      0.040
     85.381      1.559      0.037
     85.463      1.566      0.040
     85.531      1.633      0.030
     85.627      1.666      0.037
     85.737      1.626      0.030
     85.806      1.616      0.037
     85.902      1.613      0.040
     85.982      1.760      0.044
     86.023      1.791      0.037
     86.078      1.824      0.037
     86.161      1.747      0.037
     86.244      1.627      0.037
     86.339      1.737      0.040
     86.422      1.680      0.033
     86.518      1.684      0.034
     86.586      1.700      0.044
     86.697      1.640      0.037
     86.793      1.634      0.044
     86.860      1.727      0.044
     86.969      1.828      0.047
     87.038      1.768      0.037
     87.161      1.768      0.044
     87.244      1.724      0.040
     87.313      1.691      0.044
     87.420      1.925      0.054
     87.504      1.795      0.044
     87.614      1.715      0.044
     87.684      1.654      0.040
     87.781      1.557      0.040
     87.849      1.551      0.044
     87.958      1.654      0.044
     88.040      1.618      0.037
     88.136      1.618      0.037
     88.233      1.568      0.033
     88.356      1.568      0.037
     88.425      1.588      0.040
     88.506      1.638      0.037
     88.602      1.708      0.040
     88.712      1.638      0.037
     88.809      1.558      0.037
     88.863      1.595      0.044
     88.986      1.665      0.034
     89.095      1.672      0.037
     89.164      1.672      0.033
     89.274      1.669      0.040
     89.369      1.756      0.040
     89.465      1.726      0.044
     89.547      1.733      0.037
     89.657      1.736      0.040
     89.740      1.666      0.034
     89.835      1.753      0.037
     89.944      1.817      0.047
     90.014      1.689      0.037
     90.111      1.582      0.040
     90.221      1.576      0.030
     90.289      1.636      0.033
     90.343      1.659      0.033
     90.412      1.676      0.040
     90.495      1.619      0.033
     90.591      1.589      0.040
     90.700      1.613      0.033
     90.782      1.636      0.037
     90.892      1.670      0.040
     90.988      1.583      0.040
     91.058      1.489      0.040
     91.195      1.543      0.040
     91.291      1.516      0.040
     91.358      1.610      0.040
     91.467      1.677      0.037
     91.577      1.650      0.037
     91.661      1.550      0.047
     91.729      1.583      0.030
     91.797      1.610      0.030
     91.893      1.627      0.037
     91.975      1.607      0.040
     92.084      1.681      0.044
     92.153      1.654      0.044
     92.249      1.631      0.037
     92.345      1.641      0.037
     92.441      1.684      0.044
     92.537      1.624      0.040
     92.660      1.725      0.037
     92.742      1.721      0.040
     92.852      1.678      0.040
     92.935      1.641      0.033
     93.031      1.594      0.044
     93.154      1.651      0.033
     93.262      1.758      0.033
     93.346      1.638      0.037
     93.429      1.604      0.037
     93.538      1.591      0.037
     93.647      1.665      0.037
     93.771      1.655      0.040
     93.879      1.836      0.040
     93.962      1.722      0.044
     94.072      1.669      0.037
     94.155      1.635      0.033
     94.264      1.662      0.044
     94.361      1.578      0.034
     94.471      1.565      0.037
     94.566      1.669      0.037
     94.663      1.565      0.037
     94.787      1.555      0.037
     94.895      1.622      0.040
     94.977      1.693      0.033
     95.087      1.639      0.040
     95.184      1.572      0.037
     95.280      1.532      0.044
     95.416      1.656      0.033
     95.525      1.710      0.040
     95.607      1.710      0.037
     95.704      1.663      0.040
     95.758      1.690      0.030
     95.813      1.710      0.030
     95.950      1.744      0.037
     96.019      1.663      0.037
     96.143      1.667      0.037
     96.251      1.764      0.044
     96.362      1.694      0.037
     96.471      1.684      0.037
     96.566      1.811      0.040
     96.649      1.724      0.040
     96.762      1.469      0.033
     96.870      1.607      0.040
     96.978      1.721      0.037
     97.102      1.674      0.040
     97.186      1.567      0.044
     97.254      1.590      0.030
     97.309      1.610      0.037
     97.432      1.611      0.040
     97.515      1.564      0.037
     97.622      1.758      0.037
     97.745      1.788      0.040
     97.830      1.614      0.037
     97.954      1.520      0.037
     98.063      1.554      0.033
     98.158      1.638      0.030
     98.280      1.762      0.040
     98.376      1.759      0.037
     98.501      1.678      0.040
     98.597      1.678      0.033
     98.719      1.725      0.040
     98.829      1.755      0.033
     98.953      1.709      0.037
     99.036      1.608      0.033
     99.172      1.742      0.037
     99.269      1.655      0.037
     99.379      1.612      0.037
     99.476      1.485      0.033
     99.612      1.619      0.040
     99.708      1.615      0.033
     99.830      1.686      0.040
     99.926      1.693      0.037
ENDDATA           2094
ENDSUBENT         2107
SUBENT        10419003   20140919   20150202   20150123       1403
BIB                  4          5
REACTION   (92-U-235(N,F),,SIG)
STATUS     (CURVE) Figs. 1-4, page 587-590.
MONITOR    Data above 100 keV was corrected for 6Li(n,alpha)
           cross sections.
HISTORY    (20140919C)
ENDBIB               5
NOCOMMON             0          0
DATA                 3        729
EN         DATA       DATA-ERR
KEV        B          B
    100.044      1.667      0.041
    100.249      1.708      0.051
    100.488      1.755      0.037
    100.659      1.793      0.041
    100.765      1.674      0.034
    100.902      1.704      0.031
    101.038      1.755      0.037
    101.173      1.820      0.041
    101.212      1.650      0.037
    101.351      1.575      0.037
    101.454      1.609      0.034
    101.588      1.739      0.044
    101.691      1.708      0.037
    101.796      1.630      0.037
    101.967      1.657      0.027
    101.969      1.592      0.034
    102.206      1.715      0.037
    102.276      1.677      0.037
    102.386      1.416      0.024
    102.487      1.494      0.031
    102.621      1.606      0.034
    102.723      1.637      0.034
    102.896      1.596      0.034
    103.030      1.739      0.048
    103.135      1.640      0.034
    103.168      1.712      0.048
    103.237      1.671      0.037
    103.375      1.644      0.034
    103.412      1.538      0.034
    103.514      1.586      0.031
    103.754      1.610      0.031
    103.889      1.702      0.037
    104.064      1.559      0.041
    104.200      1.634      0.027
    104.372      1.603      0.034
    104.507      1.698      0.031
    104.578      1.627      0.031
    104.749      1.654      0.031
    104.816      1.692      0.037
    104.992      1.539      0.031
    105.059      1.580      0.034
    105.264      1.648      0.037
    105.466      1.784      0.041
    105.642      1.620      0.044
    105.917      1.607      0.048
    106.051      1.733      0.034
    106.190      1.685      0.024
    106.290      1.777      0.041
    106.464      1.696      0.027
    106.534      1.651      0.024
    106.671      1.679      0.031
    106.779      1.461      0.037
    106.880      1.532      0.034
    107.050      1.600      0.034
    107.152      1.665      0.044
    107.286      1.781      0.027
    107.462      1.621      0.041
    107.529      1.689      0.031
    107.770      1.655      0.037
    107.806      1.577      0.031
    107.977      1.614      0.034
    108.151      1.509      0.037
    108.253      1.557      0.034
    108.423      1.642      0.044
    108.559      1.665      0.034
    108.734      1.546      0.024
    108.834      1.666      0.027
    108.940      1.570      0.034
    109.042      1.601      0.037
    109.210      1.727      0.031
    109.451      1.693      0.031
    109.557      1.594      0.034
    109.899      1.649      0.041
    109.969      1.598      0.031
    110.175      1.611      0.034
    110.383      1.520      0.031
    110.518      1.605      0.037
    110.758      1.605      0.031
    110.964      1.639      0.041
    111.239      1.608      0.037
    111.377      1.571      0.034
    111.516      1.523      0.037
    111.686      1.574      0.031
    111.826      1.476      0.027
    111.960      1.591      0.031
    112.066      1.479      0.031
    112.237      1.517      0.031
    112.444      1.493      0.027
    112.544      1.581      0.031
    112.652      1.418      0.027
    112.858      1.405      0.031
    112.925      1.473      0.027
    113.129      1.534      0.031
    113.265      1.605      0.031
    113.403      1.588      0.027
    113.474      1.483      0.031
    113.679      1.531      0.034
    113.887      1.463      0.031
    113.988      1.514      0.034
    114.159      1.555      0.031
    114.260      1.616      0.037
    114.434      1.551      0.034
    114.601      1.698      0.034
    114.741      1.623      0.031
    114.811      1.579      0.027
    114.950      1.497      0.027
    115.155      1.541      0.034
    115.260      1.466      0.031
    115.499      1.524      0.027
    115.703      1.599      0.034
    115.977      1.627      0.041
    116.113      1.657      0.037
    116.286      1.606      0.037
    116.424      1.572      0.027
    116.700      1.531      0.034
    116.837      1.569      0.031
    116.942      1.477      0.027
    117.076      1.589      0.027
    117.249      1.559      0.027
    117.383      1.692      0.037
    117.490      1.515      0.031
    117.626      1.566      0.031
    117.834      1.484      0.041
    117.971      1.515      0.027
    118.107      1.579      0.031
    118.210      1.549      0.027
    118.346      1.631      0.037
    118.516      1.675      0.034
    118.790      1.719      0.024
    118.964      1.634      0.034
    119.097      1.770      0.031
    119.234      1.797      0.037
    119.375      1.658      0.031
    119.547      1.641      0.037
    119.756      1.549      0.034
    119.963      1.498      0.027
    120.099      1.546      0.027
    120.203      1.512      0.031
    120.444      1.481      0.031
    120.581      1.509      0.024
    120.752      1.533      0.027
    120.888      1.573      0.024
    121.130      1.509      0.027
    121.298      1.662      0.034
    121.437      1.597      0.027
    121.573      1.631      0.031
    121.747      1.529      0.034
    121.888      1.390      0.031
    122.021      1.557      0.027
    122.226      1.604      0.031
    122.334      1.421      0.027
    122.504      1.489      0.031
    122.674      1.567      0.024
    122.809      1.645      0.027
    122.946      1.659      0.027
    123.154      1.574      0.027
    123.325      1.594      0.031
    123.564      1.652      0.031
    123.736      1.625      0.027
    123.876      1.520      0.034
    124.081      1.571      0.031
    124.321      1.588      0.027
    124.527      1.608      0.034
    124.699      1.574      0.034
    124.804      1.513      0.034
    124.939      1.574      0.041
    125.147      1.510      0.027
    125.249      1.557      0.027
    125.486      1.694      0.037
    125.660      1.581      0.037
    125.936      1.551      0.027
    126.074      1.507      0.027
    126.248      1.408      0.027
    126.349      1.493      0.034
    126.552      1.619      0.034
    126.688      1.656      0.034
    126.859      1.691      0.037
    127.032      1.633      0.037
    127.240      1.558      0.034
    127.548      1.595      0.031
    127.684      1.667      0.034
    127.991      1.721      0.041
    128.164      1.701      0.031
    128.372      1.606      0.041
    128.577      1.630      0.037
    128.784      1.596      0.031
    128.957      1.558      0.037
    129.125      1.698      0.034
    129.296      1.722      0.031
    129.468      1.722      0.031
    129.644      1.545      0.044
    129.748      1.501      0.031
    129.955      1.477      0.034
    130.124      1.576      0.034
    130.332      1.504      0.027
    130.639      1.559      0.034
    131.017      1.559      0.031
    131.291      1.607      0.041
    131.497      1.590      0.034
    131.634      1.620      0.034
    131.840      1.603      0.034
    132.014      1.515      0.034
    132.185      1.546      0.034
    132.287      1.576      0.034
    132.630      1.600      0.027
    132.876      1.389      0.034
    133.181      1.515      0.034
    133.318      1.532      0.034
    133.457      1.488      0.031
    133.765      1.505      0.041
    133.936      1.553      0.027
    134.106      1.607      0.044
    134.416      1.580      0.034
    134.723      1.655      0.034
    134.897      1.570      0.034
    135.206      1.567      0.031
    135.482      1.512      0.037
    135.790      1.564      0.037
    135.925      1.625      0.027
    136.100      1.523      0.027
    136.269      1.591      0.034
    136.478      1.509      0.027
    136.612      1.618      0.027
    136.786      1.550      0.024
    136.993      1.499      0.027
    137.164      1.506      0.027
    137.369      1.554      0.031
    137.712      1.557      0.031
    137.920      1.493      0.031
    138.263      1.527      0.031
    138.605      1.574      0.024
    138.775      1.632      0.031
    139.015      1.653      0.031
    139.190      1.527      0.027
    139.362      1.517      0.034
    139.497      1.575      0.027
    139.705      1.500      0.020
    139.980      1.486      0.020
    140.082      1.544      0.024
    140.150      1.571      0.027
    140.458      1.602      0.031
    140.597      1.531      0.031
    140.838      1.531      0.024
    141.181      1.534      0.024
    141.388      1.477      0.020
    141.731      1.507      0.031
    141.973      1.456      0.020
    142.246      1.487      0.027
    142.625      1.460      0.031
    142.901      1.395      0.024
    143.106      1.426      0.024
    143.310      1.501      0.024
    143.687      1.535      0.027
    143.928      1.528      0.027
    144.102      1.430      0.020
    144.272      1.498      0.024
    144.480      1.430      0.024
    144.788      1.443      0.024
    145.062      1.491      0.024
    145.232      1.539      0.020
    145.473      1.508      0.027
    145.612      1.457      0.024
    145.956      1.447      0.024
    146.228      1.519      0.024
    146.538      1.495      0.027
    146.810      1.597      0.034
    146.980      1.658      0.034
    147.221      1.634      0.027
    147.429      1.546      0.027
    147.599      1.618      0.027
    147.809      1.478      0.020
    148.015      1.465      0.020
    148.151      1.522      0.027
    148.390      1.570      0.024
    148.598      1.512      0.020
    148.873      1.495      0.024
    149.250      1.513      0.020
    149.389      1.462      0.020
    149.594      1.475      0.024
    149.833      1.523      0.027
    150.040      1.486      0.017
    150.175      1.423   0.004269
    150.308      1.497   0.004491
    150.717      1.547   0.004641
    151.337      1.493   0.004479
    151.883      1.527   0.004581
    152.295      1.517   0.004551
    152.711       1.43    0.00429
    152.982      1.484   0.004452
    153.598      1.517   0.004551
    153.807      1.447   0.004341
    154.146       1.52    0.00456
    154.424      1.437   0.004311
    154.627      1.494   0.004482
    155.035      1.561   0.004683
    155.106      1.514   0.004542
    155.445      1.577   0.004731
    155.861      1.497   0.004491
    155.994      1.574   0.004722
    156.404      1.594   0.004782
    156.614      1.507   0.004521
    157.029      1.448   0.004344
    157.439      1.478   0.004434
    157.503      1.554   0.004662
    157.982      1.578   0.004734
    158.258      1.531   0.004593
    158.606      1.444   0.004332
    158.672      1.478   0.004434
    158.941      1.588   0.004764
     159.15      1.524   0.004572
    159.429      1.428   0.004284
    159.906      1.488   0.004464
    160.251      1.448   0.004344
    160.794      1.548   0.004644
    160.935      1.481   0.004443
    161.077      1.388   0.004164
    161.349      1.425   0.004275
    161.893      1.498   0.004494
    161.959      1.555   0.004665
    162.377      1.435   0.004305
    162.515      1.405   0.004215
    162.991      1.488   0.004464
    163.398      1.565   0.004695
    163.473      1.445   0.004335
    163.952      1.455   0.004365
    164.156      1.498   0.004494
     164.64      1.418   0.004254
    164.706      1.468   0.004404
    165.252      1.512   0.004536
    165.666      1.455   0.004365
    166.008      1.472   0.004416
    166.354      1.412   0.004236
     166.42      1.459   0.004377
    166.837      1.355   0.004065
    167.038      1.439   0.004317
    167.311      1.469   0.004407
    167.719      1.516   0.004548
    168.127      1.589   0.004767
    168.544      1.486   0.004458
    168.753      1.416   0.004248
    169.022      1.512   0.004536
    169.231      1.449   0.004347
     169.51      1.366   0.004098
    169.713      1.406   0.004218
    170.052      1.489   0.004467
    170.262      1.406   0.004218
    170.465      1.443   0.004329
    171.011      1.486   0.004458
    171.289      1.419   0.004257
    171.562      1.439   0.004317
    172.379      1.543   0.004629
    172.519      1.503   0.004509
    173.136      1.486   0.004458
    173.549       1.46    0.00438
     174.03      1.436   0.004308
    174.239       1.37    0.00411
     174.51      1.446   0.004338
    174.786      1.406   0.004218
    175.058      1.446   0.004338
    175.267      1.383   0.004149
    175.538       1.44    0.00432
    175.673      1.487   0.004461
    176.085      1.473   0.004419
    176.362      1.427   0.004281
    176.631      1.517   0.004551
    176.839      1.467   0.004401
     176.91      1.427   0.004281
    177.323       1.39    0.00417
    177.596      1.427   0.004281
    178.145        1.4     0.0042
    178.828       1.45    0.00435
     179.31       1.42    0.00426
    179.924      1.477   0.004431
    179.994      1.434   0.004302
    180.271       1.38    0.00414
    180.619      1.297   0.003891
    180.961      1.314   0.003942
    181.229      1.417   0.004251
    181.707      1.464   0.004392
    181.985      1.377   0.004131
    182.125      1.337   0.004011
    182.874      1.424   0.004272
    183.284      1.447   0.004341
    183.488      1.474   0.004422
    183.767      1.391   0.004173
    184.176      1.434   0.004302
    184.309      1.508   0.004524
    184.658      1.394   0.004182
     184.93      1.434   0.004302
    185.479      1.428   0.004284
    185.963      1.354   0.004062
    186.026      1.458   0.004374
    186.438      1.438   0.004314
    186.648      1.358   0.004074
    186.987      1.431   0.004293
    187.259      1.478   0.004434
    187.535      1.441   0.004323
    188.014      1.461   0.004383
    188.497      1.395   0.004185
      188.7      1.435   0.004305
    188.979      1.352   0.004056
    189.323      1.328   0.003984
    189.595      1.372   0.004116
    190.141      1.415   0.004245
    190.349      1.372   0.004116
    190.759      1.405   0.004215
    191.102      1.385   0.004155
    191.304      1.462   0.004386
    191.577      1.482   0.004446
    191.919      1.505   0.004515
    192.268      1.385   0.004155
    192.608      1.435   0.004305
     193.02      1.412   0.004236
    193.364      1.392   0.004176
    193.636      1.432   0.004296
    193.978      1.452   0.004356
    194.461      1.396   0.004188
    194.871      1.412   0.004236
    195.281      1.442   0.004326
    195.832      1.389   0.004167
    196.174      1.412   0.004236
    196.513      1.486   0.004458
    196.925      1.466   0.004398
    197.065      1.419   0.004257
    197.408      1.406   0.004218
    197.685      1.356   0.004068
    198.029      1.336   0.004008
    198.373      1.316   0.003948
    198.918      1.376   0.004128
    199.463      1.433   0.004299
    199.675      1.316   0.003948
    199.943      1.433   0.004299
    200.216      1.456   0.004368
    200.626      1.476   0.004428
    200.978      1.316   0.003948
    201.247       1.41    0.00423
    201.519       1.45    0.00435
    201.934      1.373   0.004119
    202.276       1.39    0.00417
    202.411      1.427   0.004281
    202.826       1.36    0.00408
     203.17      1.337   0.004011
    203.508      1.437   0.004311
    203.857      1.317   0.003951
    203.991       1.36    0.00408
    204.468       1.43    0.00429
    204.746      1.353   0.004059
    205.087      1.377   0.004131
    205.564       1.44    0.00432
    205.905      1.464   0.004392
    206.318      1.437   0.004311
    206.731      1.404   0.004212
     207.14      1.444   0.004332
    207.759      1.407   0.004221
    208.032      1.444   0.004332
     208.51      1.471   0.004413
     208.72      1.394   0.004182
    209.061      1.421   0.004263
     209.27      1.361   0.004083
    209.747      1.414   0.004242
    210.157      1.447   0.004341
    210.503      1.378   0.004134
    210.984      1.351   0.004053
    211.049      1.418   0.004254
    211.463      1.374   0.004122
    211.803      1.418   0.004254
    212.355      1.351   0.004053
     212.49      1.404   0.004212
    212.899      1.438   0.004314
    213.171      1.478   0.004434
    213.583      1.465   0.004395
     213.86      1.415   0.004245
    214.204      1.391   0.004173
    214.617      1.355   0.004065
    215.095      1.398   0.004194
    215.715      1.345   0.004035
    215.987      1.378   0.004134
    216.396      1.422   0.004266
    216.671      1.405   0.004215
    217.154      1.352   0.004056
    217.907      1.368   0.004104
    218.458      1.319   0.003957
     218.73      1.355   0.004065
    219.276      1.402   0.004206
    219.615      1.475   0.004425
     219.96      1.432   0.004296
    220.305      1.389   0.004167
    220.576      1.449   0.004347
     220.92      1.429   0.004287
    221.265      1.396   0.004188
    221.677      1.376   0.004128
    222.019      1.386   0.004158
    222.566      1.422   0.004266
     222.91      1.402   0.004206
    223.391      1.376   0.004128
    223.872      1.353   0.004059
    224.419      1.369   0.004107
    224.763      1.359   0.004077
    225.038      1.336   0.004008
     225.38      1.349   0.004047
    225.931      1.306   0.003918
    226.411      1.296   0.003888
    226.684      1.326   0.003978
     226.82      1.353   0.004059
    227.368      1.353   0.004059
    227.712      1.326   0.003978
    228.193      1.303   0.003909
    228.602      1.353   0.004059
    229.151      1.347   0.004041
    229.493       1.36    0.00408
     230.11      1.357   0.004071
    230.451      1.397   0.004191
     230.93       1.41    0.00423
    231.339       1.44    0.00432
    231.893      1.337   0.004011
     232.44       1.36    0.00408
    232.991      1.324   0.003972
    233.193       1.39    0.00417
    233.609        1.3     0.0039
    234.092      1.247   0.003741
    234.363      1.311   0.003933
    234.634      1.357   0.004071
    235.253      1.331   0.003993
    235.455      1.394   0.004182
    236.006      1.341   0.004023
    236.488      1.304   0.003912
     236.83      1.314   0.003942
    237.312      1.271   0.003813
    237.652      1.338   0.004014
    238.269      1.334   0.004002
    238.816      1.348   0.004044
    239.363      1.378   0.004134
    239.708      1.335   0.004005
    240.393      1.348   0.004044
    240.943      1.328   0.003984
    241.629      1.315   0.003945
    242.175      1.352   0.004056
    242.656      1.328   0.003984
    243.134      1.375   0.004125
    243.405      1.428   0.004284
    243.885      1.425   0.004275
    244.233      1.322   0.003966
    244.712      1.355   0.004065
    245.122      1.372   0.004116
    245.738      1.395   0.004185
    246.085      1.319   0.003957
    246.567      1.269   0.003807
     246.77      1.319   0.003957
     247.25      1.315   0.003945
    247.797      1.352   0.004056
    248.277      1.339   0.004017
    248.688      1.356   0.004068
    249.028      1.392   0.004176
    249.511      1.346   0.004038
    249.992      1.312   0.003936
    250.399      1.288   0.003864
    250.878      1.298   0.003894
    251.218      1.326   0.003978
    251.687      1.469   0.004407
    252.177      1.312   0.003936
    252.587      1.315   0.003945
    253.203      1.316   0.003948
    253.406      1.346   0.004038
    253.959      1.275   0.003825
    254.431      1.381   0.004143
    254.912      1.354   0.004062
    255.255      1.333   0.003999
    255.736      1.309   0.003927
    256.213       1.34    0.00402
    256.625      1.313   0.003939
    257.177      1.255   0.003765
    257.518      1.268   0.003804
    258.063      1.296   0.003888
    258.609      1.323   0.003969
    258.949      1.358   0.004074
    259.434      1.276   0.003828
    259.843      1.286   0.003858
    260.387      1.337   0.004011
    260.934      1.348   0.004044
    261.279      1.314   0.003942
    261.618      1.362   0.004086
    262.165      1.362   0.004086
    262.649      1.286   0.003858
    263.126      1.317   0.003951
    263.602      1.362   0.004086
    264.085      1.311   0.003933
    264.565       1.29    0.00387
     265.11      1.331   0.003993
    265.519      1.359   0.004077
    266.005      1.246   0.003738
    266.478      1.342   0.004026
    266.959      1.308   0.003924
    267.437      1.332   0.003996
    267.982      1.363   0.004089
    268.532      1.328   0.003984
     269.01      1.346   0.004038
    269.492      1.301   0.003903
    269.902      1.312   0.003936
    270.382      1.284   0.003852
    270.861      1.291   0.003873
    271.409      1.278   0.003834
    271.887      1.295   0.003885
    272.364      1.322   0.003966
    272.913      1.309   0.003927
     273.32      1.357   0.004071
    273.866      1.377   0.004131
    274.345      1.377   0.004131
     274.97      1.254   0.003762
    275.585      1.258   0.003774
    275.992      1.309   0.003927
    276.406      1.272   0.003816
    276.881      1.326   0.003978
    277.503      1.234   0.003702
    277.977      1.306   0.003918
    278.387       1.32    0.00396
    279.003      1.313   0.003939
    279.488      1.234   0.003702
    280.102      1.255   0.003765
    280.512      1.269   0.003807
    281.125      1.303   0.003909
    281.607      1.273   0.003819
     282.15      1.331   0.003993
    282.631        1.3     0.0039
    283.177      1.331   0.003993
    283.726        1.3     0.0039
    284.204      1.321   0.003963
     284.82      1.321   0.003963
    285.229      1.342   0.004026
    285.777      1.328   0.003984
    286.324      1.345   0.004035
    287.009      1.328   0.003984
    287.488      1.332   0.003996
    288.035      1.339   0.004017
    288.655      1.277   0.003831
    289.138      1.212   0.003636
    289.683       1.25    0.00375
    290.161      1.274   0.003822
    290.843      1.298   0.003894
    291.255      1.291   0.003873
    291.942       1.24    0.00372
    292.488      1.261   0.003783
    293.031      1.329   0.003987
    293.515      1.261   0.003783
    294.127      1.319   0.003957
    294.743      1.312   0.003936
    295.223      1.302   0.003906
    295.909      1.272   0.003816
    296.321      1.258   0.003774
    296.869      1.255   0.003765
     297.55      1.306   0.003918
    298.097       1.31    0.00393
    298.784      1.269   0.003807
    299.261      1.293   0.003879
    299.809      1.293   0.003879
    300.358      1.262   0.003786
     301.04        1.3     0.0039
    301.589      1.279   0.003837
    302.134      1.321   0.003963
     302.82      1.293   0.003879
     303.37      1.252   0.003756
    304.055      1.249   0.003747
    304.599        1.3     0.0039
    305.146      1.304   0.003912
    305.694      1.301   0.003903
    306.379      1.284   0.003852
    306.997       1.26    0.00378
     307.54      1.315   0.003945
    308.224      1.325   0.003975
    308.703      1.325   0.003975
    309.252      1.301   0.003903
    310.005      1.298   0.003894
    310.488      1.243   0.003729
     311.17      1.271   0.003813
    311.786      1.274   0.003822
    312.331      1.319   0.003957
    313.084      1.302   0.003906
    313.701      1.288   0.003864
    314.318      1.275   0.003825
    314.866      1.275   0.003825
     315.48      1.299   0.003897
    316.167      1.258   0.003774
    316.782      1.265   0.003795
    317.395      1.309   0.003927
    318.016      1.241   0.003723
    318.699      1.255   0.003765
     319.25      1.214   0.003642
     319.93      1.272   0.003816
    320.618      1.224   0.003672
    321.165      1.221   0.003663
    321.779      1.255   0.003765
    322.394      1.269   0.003807
    323.145      1.293   0.003879
    323.695      1.263   0.003789
    324.514       1.29    0.00387
    325.064      1.256   0.003768
    325.745      1.301   0.003903
    326.363       1.27    0.00381
    327.052      1.198   0.003594
    327.735      1.222   0.003666
    328.347      1.277   0.003831
     329.03      1.291   0.003873
    329.785       1.27    0.00381
    330.404      1.216   0.003648
    331.088       1.23    0.00369
    331.771      1.247   0.003741
    332.318      1.257   0.003771
    333.069      1.271   0.003813
    333.687      1.247   0.003741
    334.508      1.247   0.003741
    335.192      1.254   0.003762
    335.804      1.313   0.003939
    336.491      1.268   0.003804
    337.177      1.255   0.003765
    337.859      1.282   0.003846
    338.611      1.293   0.003879
    339.298      1.252   0.003756
    339.912      1.289   0.003867
    340.596      1.283   0.003849
    341.351      1.259   0.003777
    342.106      1.231   0.003693
    342.788      1.256   0.003768
    343.471      1.273   0.003819
    344.086      1.293   0.003879
     344.91      1.246   0.003738
     345.73      1.263   0.003789
    346.342      1.325   0.003975
    347.103      1.202   0.003606
    347.786      1.222   0.003666
    348.475      1.154   0.003462
ENDDATA            731
ENDSUBENT          741
ENDENTRY             3
