ENTRY            10435   20030408   20030603
SUBENT        10435001   20030408   20030603
BIB                 11         20
INSTITUTE  (1USARPI)
REFERENCE  (C,75WASH,2,905,197503)
           (P,COO-3058-50,197403)
AUTHOR     (R.W.Hockenbury,H.D.Knox,N.N.Kaushal)
TITLE      Fission product capture cross sections in the keV
            region.
FACILITY   (LINAC,1USARPI)
METHOD     (PHD,TOF)
DETECTOR   (SCIN) Liquid scintillator
MONITOR    Normalized to resonance parameters.
           Flux shape relative to 10B.
CORRECTION Corrections have been made for deadtime and background
            effects, monitor efficiency and multiple scattering.
STATUS     (APRVD) Approved by author
            Data received on punched cards, Hockenbury, 1974/10.
HISTORY    (19741024C)
           (19760302A) Resonance parameters added
           (19830607A) Converted to REACTION formalism
           (19860520A) BIB UPDATE.
           (20030408A) Converted to new date formats, lower case.
ENDBIB              20
NOCOMMON             0          0
ENDSUBENT           23
SUBENT        10435002   20030408   20030603
BIB                  3          4
REACTION   (63-EU-151(N,G)63-EU-152,,SIG)
ERR-ANALYS (ERR-S) Data error given is statistical error,
            normalization error 4%.
HISTORY    (20030408A) Data error heading updated.
ENDBIB               4
COMMON               1          3
ERR-S
PER-CENT
 4.
ENDCOMMON            3
DATA                 2        566
EN         DATA
KEV        B
     6.3140    12.2940
     6.3309    12.8270
     6.3479    12.9733
     6.3649    12.5502
     6.3820    13.0963
     6.3992    13.3827
     6.4165    13.2105
     6.4338    12.8831
     6.4512    12.5764
     6.4687    12.7541
     6.4862    12.1091
     6.5038    11.2740
     6.5215    11.1959
     6.5393    11.8831
     6.5571    12.3351
     6.5750    12.6187
     6.5930    13.2649
     6.6110    13.1219
     6.6292    13.1239
     6.6474    12.9828
     6.6656    13.0061
     6.6840    12.7944
     6.7024    12.8100
     6.7209    12.8277
     6.7395    12.6568
     6.7582    12.2350
     6.7769    12.3815
     6.7957    12.4762
     6.8146    12.7496
     6.8336    12.9419
     6.8526    13.0209
     6.8717    12.7727
     6.8909    12.4848
     6.9102    12.7687
     6.9296    13.0444
     6.9491    12.6985
     6.9686    12.0266
     6.9882    11.8328
     7.0079    11.9428
     7.0277    11.6948
     7.0476    12.4850
     7.0675    12.3992
     7.0875    12.0705
     7.1077    11.5226
     7.1279    11.6214
     7.1482    10.9087
     7.1685    10.8571
     7.1890    11.0341
     7.2096    11.4671
     7.2302    11.3170
     7.2509    10.5242
     7.2718    10.2639
     7.2927    10.4409
     7.3137    11.0015
     7.3348    10.8355
     7.3559    10.6655
     7.3772    10.7852
     7.3986    10.9856
     7.4200    11.4850
     7.4416    11.7424
     7.4632    11.3418
     7.4850    11.1528
     7.5068    11.6565
     7.5288    12.1076
     7.5508    12.2019
     7.5729    12.0030
     7.5951    11.6782
     7.6175    11.3863
     7.6399    10.8260
     7.6624    10.4433
     7.6850    10.7395
     7.7077    11.0889
     7.7306    11.7653
     7.7535    11.7393
     7.7765    11.5890
     7.7996    11.5680
     7.8229    11.6858
     7.8462    11.3501
     7.8696    11.3529
     7.8932    11.7058
     7.9168    11.9150
     7.9406    11.2916
     7.9645    11.0013
     7.9884    10.9325
     8.0125    10.9142
     8.0367    10.6103
     8.0610    10.8152
     8.0854    10.6584
     8.1099    10.2278
     8.1346    10.4305
     8.1593     9.8475
     8.1842     9.7445
     8.2091    10.3846
     8.2342    11.0479
     8.2594    11.2816
     8.2847    11.0753
     8.3102    10.6116
     8.3357    10.9596
     8.3614    11.3358
     8.3872    11.1407
     8.4131    10.3839
     8.4391     9.9955
     8.4652    10.6411
     8.4915    10.5585
     8.5179    10.3180
     8.5444    10.7113
     8.5711    10.3941
     8.5978    10.6234
     8.6247    11.0826
     8.6517    10.6087
     8.6789    10.1588
     8.7061    10.2161
     8.7335    10.5423
     8.7611    11.0784
     8.7887    10.7869
     8.8165    10.7189
     8.8444    10.4490
     8.8725    10.0046
     8.9007     9.7942
     8.9290     9.9011
     8.9575    10.0394
     8.9861    10.0357
     9.0148     9.9986
     9.0437    10.0098
     9.0727     9.8630
     9.1018    10.2927
     9.1311    10.1933
     9.1605     9.9703
     9.1901    10.0555
     9.2198    10.1835
     9.2497    10.4212
     9.2797    10.1278
     9.3099     9.4178
     9.3402     9.1492
     9.3706     9.1928
     9.4012     9.7595
     9.4320     9.8550
     9.4629     9.6391
     9.4939     9.5021
     9.5251     9.3791
     9.5565     9.3434
     9.5880     9.3250
     9.6197     9.4419
     9.6515     9.4391
     9.6835     9.3886
     9.7156     9.3236
     9.7479     9.5242
     9.7804     9.8223
     9.8130     9.3191
     9.8458     8.9203
     9.8788     9.3493
     9.9119     9.5097
     9.9452     8.9361
     9.9786     8.8144
    10.0123     9.2544
    10.0461     9.4983
    10.0800     9.1964
    10.1142     9.1961
    10.1485     9.4887
    10.1830     9.4236
    10.2176     9.4229
    10.2525     9.4212
    10.2875     9.3608
    10.3227     9.6713
    10.3581     9.6003
    10.3936     9.7488
    10.4294     9.7797
    10.4653     9.4674
    10.5014     9.4228
    10.5377     9.6907
    10.5742     9.7817
    10.6109     9.8097
    10.6478     9.5728
    10.6849     9.0578
    10.7221     8.8492
    10.7596     8.6996
    10.7972     8.3960
    10.8351     8.1209
    10.8731     8.3985
    10.9114     8.4957
    10.9498     8.5541
    10.9885     8.7076
    11.0274     8.7509
    11.0664     8.5482
    11.1057     8.5960
    11.1452     8.6284
    11.1849     8.6251
    11.2248     8.8209
    11.2649     8.7000
    11.3053     8.3063
    11.3458     8.7471
    11.3866     8.7283
    11.4276     8.3181
    11.4688     8.1808
    11.5103     8.4530
    11.5519     8.2936
    11.5938     8.2724
    11.6359     8.2730
    11.6783     8.5497
    11.7209     8.4873
    11.7637     8.4424
    11.8067     8.2956
    11.8500     8.5268
    11.8936     8.3571
    11.9373     8.4602
    11.9813     8.4000
    12.0256     8.4982
    12.0701     8.5960
    12.1148     8.4963
    12.1598     8.4681
    12.2051     8.6056
    12.2506     8.4887
    12.2963     8.3947
    12.3423     8.2789
    12.3886     8.2548
    12.4351     8.1128
    12.4819     7.9096
    12.5290     7.9960
    12.5763     8.1516
    12.6239     8.0007
    12.6718     8.0824
    12.7199     8.4783
    12.7683     8.5427
    12.8170     8.5211
    12.8660     8.2318
    12.9152     7.9210
    12.9647     7.8696
    13.0146     8.0400
    13.0647     7.8823
    13.1151     8.1825
    13.1657     7.9983
    13.2167     7.8330
    13.2680     7.8402
    13.3196     7.7143
    13.3714     7.7543
    13.4236     7.8120
    13.4761     7.7304
    13.5289     7.9781
    13.5820     7.9948
    13.6354     7.9263
    13.6892     7.9846
    13.7432     7.6174
    13.7976     7.3733
    13.8523     7.0733
    13.9073     7.2646
    13.9627     7.6239
    14.0184     7.7091
    14.0744     7.2415
    14.1307     7.2465
    14.1874     7.2955
    14.2445     7.1482
    14.3018     7.0036
    14.3596     7.1240
    14.4176     7.5687
    14.4761     7.2115
    14.5349     7.3281
    14.5940     7.3203
    14.6535     7.6215
    14.7134     7.1949
    14.7736     7.1546
    14.8342     7.4069
    14.8952     7.7135
    14.9566     7.6636
    15.0183     7.5824
    15.0804     7.1780
    15.1429     6.9119
    15.2058     6.9965
    15.2691     6.6678
    15.3328     7.0531
    15.3969     7.1023
    15.4614     6.9898
    15.5263     7.0474
    15.5916     6.9560
    15.6573     7.1266
    15.7235     7.0866
    15.7900     7.0416
    15.8570     7.1263
    15.9244     6.7599
    15.9922     6.6055
    16.0605     6.6055
    16.1292     6.6493
    16.1984     6.6907
    16.2680     6.6239
    16.3380     6.3742
    16.4085     6.5681
    16.4795     6.7542
    16.5509     6.7054
    16.6228     6.5044
    16.6951     6.6552
    16.7679     6.6257
    16.8412     6.3835
    16.9150     6.6264
    16.9893     6.5782
    17.0640     6.3317
    17.1393     6.7588
    17.2151     6.7335
    17.2913     6.1199
    17.3681     6.1328
    17.4454     6.2467
    17.5231     6.1753
    17.6015     6.1306
    17.6803     6.2327
    17.7597     6.2408
    17.8396     6.3554
    17.9200     6.6383
    18.0010     6.5474
    18.0826     6.3190
    18.1647     6.4427
    18.2473     6.2522
    18.3306     6.2738
    18.4144     6.4566
    18.4987     6.0682
    18.5837     6.2843
    18.6692     6.1913
    18.7554     6.0497
    18.8421     5.8903
    18.9294     5.9443
    19.0174     6.3392
    19.1059     6.1328
    19.1951     6.0304
    19.2849     6.1651
    19.3753     6.4197
    19.4664     6.1182
    19.5581     5.9648
    19.6505     5.7458
    19.7435     6.0628
    19.8372     6.1089
    19.9315     5.9110
    20.0266     5.8201
    20.1223     5.5957
    20.2187     5.6317
    20.3157     5.8291
    20.4135     5.9374
    20.5120     5.8254
    20.6112     5.9731
    20.7112     5.6091
    20.8118     5.7944
    20.9132     5.7561
    21.0154     5.8641
    21.1183     5.5862
    21.2219     5.6652
    21.3263     5.8518
    21.4315     5.7273
    21.5375     5.6605
    21.6442     5.7609
    21.7518     5.4375
    21.8601     5.5793
    21.9693     5.5905
    22.0793     5.5472
    22.1901     5.4668
    22.3017     5.5091
    22.4142     5.7018
    22.5276     5.4192
    22.6418     5.4254
    22.7569     5.2705
    22.8728     5.4349
    22.9897     5.1367
    23.1074     5.2812
    23.2261     5.3637
    23.3456     5.1787
    23.4661     5.2636
    23.5875     5.1165
    23.7099     4.8246
    23.8333     5.0154
    23.9575     5.1869
    24.0828     4.9895
    24.2091     4.7794
    24.3363     4.9602
    24.4646     5.1558
    24.5938     5.1072
    24.7241     4.8348
    24.8555     4.8015
    24.9879     4.7592
    25.1213     4.8927
    25.2558     4.8745
    25.3914     4.8293
    25.5281     4.8343
    25.6659     4.6697
    25.8048     4.7007
    25.9449     4.7261
    26.0861     4.8358
    26.2284     4.6695
    26.3720     4.4646
    26.5167     4.5907
    26.6626     4.5553
    26.8097     4.5162
    26.9580     4.5031
    27.1076     4.6923
    27.2584     4.6844
    27.4104     4.5355
    27.5638     4.4354
    27.7184     4.3921
    27.8743     4.5100
    28.0316     4.6019
    28.1902     4.3470
    28.3501     4.3758
    28.5115     4.4092
    28.6741     4.2943
    28.8382     4.2243
    29.0037     4.2081
    29.1707     4.2490
    29.3390     4.2069
    29.5089     4.0563
    29.6802     3.9985
    29.8530     4.1415
    30.0273     3.9764
    30.2032     4.2745
    30.3806     4.3535
    30.5595     4.4142
    30.7401     4.4446
    30.9223     4.3090
    31.1061     3.8807
    31.2915     3.8451
    31.4786     3.7372
    31.6674     3.6469
    31.8578     3.7339
    32.0500     3.8377
    32.2440     3.8695
    32.4397     3.7273
    32.6372     3.4104
    32.8365     3.4739
    39.2520     3.4479
    39.5150     3.2856
    39.7807     3.3254
    40.0490     3.5562
    40.3201     3.6112
    40.5939     3.3137
    40.8705     3.2742
    41.1500     3.5571
    41.4323     3.4634
    41.7175     3.2975
    42.0058     3.4168
    42.2970     3.4060
    42.5912     3.3635
    42.8885     3.4336
    43.1890     3.5302
    43.4926     3.1698
    43.7994     3.2919
    44.1095     3.0962
    44.4229     3.2878
    44.7396     3.1753
    45.0597     3.0506
    45.3833     3.0806
    45.7104     3.1400
    46.0410     3.1805
    46.3753     3.2083
    46.7132     3.1136
    47.0548     3.0786
    47.4001     3.1137
    47.7493     3.1503
    48.1023     3.0099
    48.4593     2.9921
    48.8203     2.9678
    49.1853     3.0166
    49.5544     2.9668
    49.9277     2.9682
    50.3052     3.0387
    50.6870     2.8955
    51.0732     2.9464
    51.4638     2.8867
    51.8590     2.8602
    52.2586     2.8191
    52.6630     2.8541
    53.0720     2.8943
    53.4858     3.0027
    53.9045     2.8557
    54.3281     2.9625
    54.7567     2.7658
    55.1904     2.7851
    55.6293     2.6780
    56.0735     2.6564
    56.5229     2.6546
    56.9778     2.6259
    57.4383     2.6385
    57.9043     2.5874
    58.3760     2.5992
    58.8535     2.6216
    59.3369     2.6090
    59.8263     2.6342
    60.3218     2.5874
    60.8234     2.6092
    61.3313     2.5516
    61.8456     2.5673
    62.3664     2.5721
    62.8938     2.5975
    63.4280     2.4869
    63.9689     2.5369
    64.5168     2.5673
    65.0718     2.5461
    65.6340     2.5147
    66.2035     2.5197
    66.7804     2.4933
    67.3649     2.5138
    67.9571     2.4626
    68.5572     2.4155
    69.1652     2.4752
    69.7814     2.3627
    70.4058     2.4683
    71.0387     2.4177
    71.6801     2.3202
    72.3303     2.3127
    72.9893     2.3553
    73.6574     2.2806
    74.3347     2.1785
    75.0214     2.1565
    75.7177     2.1388
    76.4237     2.1740
    77.1396     2.1431
    77.8656     2.0820
    78.6019     2.0850
    79.3487     2.1607
    80.1062     2.0384
    80.8746     1.9771
    81.6541     1.8664
    82.4449     1.5806
    83.2473     1.9337
    84.0615     1.9494
   129.7588     1.6502
   131.3461     1.5416
   132.9626     1.4651
   134.6092     1.6100
   136.2865     1.5287
   137.9955     1.5482
   139.7367     1.5679
   141.5111     1.3121
   143.3196     1.4818
   145.1629     1.4503
   147.0420     1.4990
   148.9578     1.6741
   150.9113     1.7888
   152.9035     1.7643
   154.9355     1.7739
   157.0082     1.7102
   159.1227     1.7494
   161.2803     1.7562
   163.4820     1.8630
   165.7292     1.7401
   168.0230     1.6927
   170.3648     1.6079
   172.7558     1.4911
   175.1976     1.5304
   177.6914     1.5368
   180.2390     1.5348
   182.8417     1.5739
   185.5011     1.5667
   188.2191     1.3972
   190.9972     1.4417
   193.8372     1.4150
   196.7411     1.3190
   199.7108     1.3710
   229.7531     1.4657
   233.5041     1.4759
   237.3477     1.4271
   241.2870     1.4088
   245.3252     1.4815
   249.4657     1.4584
   253.7118     1.3618
   258.0673     1.3693
   262.5359     1.3721
   267.1216     1.3099
   271.8285     1.3085
   276.6609     1.3583
   281.6234     1.3230
   286.7205     1.3987
   291.9573     1.3633
   297.3389     1.1582
ENDDATA            568
ENDSUBENT          581
SUBENT        10435003   20030408   20030603
BIB                  3          4
REACTION   (63-EU-153(N,G)63-EU-154,,SIG)
ERR-ANALYS (ERR-S) Data error given is statistical error,
            normalization error 4%.
HISTORY    (20030408A) Data error heading updated.
ENDBIB               4
COMMON               1          3
ERR-S
PER-CENT
 4.
ENDCOMMON            3
DATA                 2        566
EN         DATA
KEV        B
     6.3140     6.9074
     6.3309     6.5440
     6.3479     6.8783
     6.3649     7.0574
     6.3820     6.7185
     6.3992     6.7801
     6.4165     6.9339
     6.4338     6.8317
     6.4512     6.9074
     6.4687     7.1712
     6.4862     6.4185
     6.5038     6.5224
     6.5215     7.1750
     6.5393     7.1331
     6.5571     6.7443
     6.5750     6.7396
     6.5930     7.0946
     6.6110     6.8131
     6.6292     6.2559
     6.6474     6.3656
     6.6656     7.0140
     6.6840     6.9971
     6.7024     7.4588
     6.7209     7.6874
     6.7395     7.2696
     6.7582     6.7486
     6.7769     6.0458
     6.7957     6.0975
     6.8146     7.3146
     6.8336     7.6806
     6.8526     7.0571
     6.8717     6.6834
     6.8909     7.1204
     6.9102     6.6881
     6.9296     6.4427
     6.9491     6.5403
     6.9686     6.3825
     6.9882     5.2955
     7.0079     5.0035
     7.0277     5.4073
     7.0476     5.8696
     7.0675     6.3245
     7.0875     6.5726
     7.1077     6.2227
     7.1279     6.3968
     7.1482     6.6296
     7.1685     6.9628
     7.1890     6.8496
     7.2096     6.2276
     7.2302     6.6277
     7.2509     6.9831
     7.2718     6.7901
     7.2927     5.7397
     7.3137     5.5721
     7.3348     6.2228
     7.3559     6.5284
     7.3772     6.3628
     7.3986     6.6811
     7.4200     6.5328
     7.4416     5.9785
     7.4632     6.6762
     7.4850     7.0821
     7.5068     6.7612
     7.5288     6.2301
     7.5508     6.8067
     7.5729     6.3425
     7.5951     6.1067
     7.6175     6.2465
     7.6399     6.1858
     7.6624     5.8986
     7.6850     5.8016
     7.7077     6.2361
     7.7306     6.2576
     7.7535     5.9834
     7.7765     5.8621
     7.7996     5.8857
     7.8229     5.7290
     7.8462     5.8797
     7.8696     6.0996
     7.8932     5.9971
     7.9168     6.5101
     7.9406     6.8086
     7.9645     6.6400
     7.9884     6.1210
     8.0125     5.9225
     8.0367     6.1068
     8.0610     5.7254
     8.0854     5.2927
     8.1099     5.3755
     8.1346     5.7443
     8.1593     6.1342
     8.1842     6.4021
     8.2091     6.1585
     8.2342     5.9064
     8.2594     6.0286
     8.2847     6.2080
     8.3102     5.9951
     8.3357     5.9308
     8.3614     5.9160
     8.3872     5.5765
     8.4131     5.4476
     8.4391     5.4130
     8.4652     5.3214
     8.4915     5.2885
     8.5179     5.5222
     8.5444     5.4018
     8.5711     5.5120
     8.5978     5.6126
     8.6247     6.0979
     8.6517     6.0640
     8.6789     5.8348
     8.7061     5.8115
     8.7335     5.6102
     8.7611     5.5748
     8.7887     5.7490
     8.8165     5.4402
     8.8444     5.4145
     8.8725     5.5644
     8.9007     5.3539
     8.9290     5.3735
     8.9575     5.1902
     8.9861     5.5003
     9.0148     5.8177
     9.0437     5.9759
     9.0727     6.0807
     9.1018     6.1084
     9.1311     5.9102
     9.1605     6.1133
     9.1901     6.3640
     9.2198     6.3272
     9.2497     5.9452
     9.2797     6.0152
     9.3099     5.7382
     9.3402     6.1500
     9.3706     5.9875
     9.4012     6.0132
     9.4320     6.0417
     9.4629     5.7544
     9.4939     5.4854
     9.5251     5.0989
     9.5565     5.5608
     9.5880     5.8644
     9.6197     5.8981
     9.6515     5.9167
     9.6835     6.0007
     9.7156     5.8923
     9.7479     5.3300
     9.7804     5.2449
     9.8130     5.5685
     9.8458     5.5502
     9.8788     5.5516
     9.9119     5.6381
     9.9452     5.3028
     9.9786     5.0693
    10.0123     5.4019
    10.0461     5.7794
    10.0800     5.7054
    10.1142     5.9068
    10.1485     6.0215
    10.1830     5.6617
    10.2176     5.4501
    10.2525     5.6853
    10.2875     5.7728
    10.3227     5.5831
    10.3581     5.4032
    10.3936     5.3478
    10.4294     5.4185
    10.4653     5.2208
    10.5014     4.9746
    10.5377     4.9258
    10.5742     5.1635
    10.6109     5.1103
    10.6478     4.8263
    10.6849     5.0508
    10.7221     5.3206
    10.7596     4.8985
    10.7972     4.7087
    10.8351     4.6604
    10.8731     4.6832
    10.9114     4.8073
    10.9498     5.0498
    10.9885     4.7668
    11.0274     4.8899
    11.0664     5.0777
    11.1057     5.0204
    11.1452     5.1192
    11.1849     4.8815
    11.2248     4.8904
    11.2649     5.2449
    11.3053     5.3212
    11.3458     5.0388
    11.3866     5.0771
    11.4276     5.3034
    11.4688     5.1795
    11.5103     5.1671
    11.5519     4.9703
    11.5938     5.2321
    11.6359     5.1288
    11.6783     4.9303
    11.7209     4.7208
    11.7637     5.0583
    11.8067     5.3391
    11.8500     5.1701
    11.8936     5.2367
    11.9373     5.1055
    11.9813     4.5658
    12.0256     4.6072
    12.0701     4.8904
    12.1148     4.9340
    12.1598     5.0914
    12.2051     5.0424
    12.2506     4.8217
    12.2963     4.7306
    12.3423     4.9357
    12.3886     4.9976
    12.4351     4.9300
    12.4819     4.6225
    12.5290     4.5804
    12.5763     4.9752
    12.6239     5.0627
    12.6718     4.8269
    12.7199     5.0944
    12.7683     5.0640
    12.8170     5.0446
    12.8660     4.9897
    12.9152     4.9911
    12.9647     4.7076
    13.0146     4.5925
    13.0647     4.5020
    13.1151     4.6130
    13.1657     4.8151
    13.2167     4.6724
    13.2680     4.5595
    13.3196     4.4753
    13.3714     4.4713
    13.4236     4.4946
    13.4761     4.6313
    13.5289     4.7854
    13.5820     4.7564
    13.6354     4.8918
    13.6892     4.6402
    13.7432     4.5164
    13.7976     4.6832
    13.8523     4.7386
    13.9073     4.6908
    13.9627     4.6725
    14.0184     4.6080
    14.0744     4.2943
    14.1307     4.1006
    14.1874     4.1727
    14.2445     4.4059
    14.3018     4.2354
    14.3596     4.2664
    14.4176     4.3665
    14.4761     4.4717
    14.5349     4.3840
    14.5940     4.3478
    14.6535     4.2105
    14.7134     4.2642
    14.7736     4.4424
    14.8342     4.6259
    14.8952     4.5754
    14.9566     4.5721
    15.0183     4.6459
    15.0804     4.4249
    15.1429     4.3382
    15.2058     4.7034
    15.2691     4.4547
    15.3328     4.2058
    15.3969     4.0690
    15.4614     4.2832
    15.5263     4.2809
    15.5916     4.1475
    15.6573     4.3947
    15.7235     4.4495
    15.7900     4.3366
    15.8570     4.3202
    15.9244     4.3319
    15.9922     4.5707
    16.0605     4.1819
    16.1292     3.9021
    16.1984     4.0317
    16.2680     4.1882
    16.3380     3.9898
    16.4085     3.8190
    16.4795     3.9560
    16.5509     4.0777
    16.6228     3.9195
    16.6951     3.9771
    16.7679     4.2299
    16.8412     4.1260
    16.9150     4.1856
    16.9893     4.0734
    17.0640     3.8829
    17.1393     4.0808
    17.2151     3.9928
    17.2913     3.5906
    17.3681     3.6309
    17.4454     3.8159
    17.5231     3.7477
    17.6015     3.8837
    17.6803     3.9821
    17.7597     3.8543
    17.8396     3.8448
    17.9200     3.9047
    18.0010     3.9335
    18.0826     3.7364
    18.1647     3.7597
    18.2473     3.8134
    18.3306     3.8629
    18.4144     3.8559
    18.4987     3.5456
    18.5837     3.6824
    18.6692     3.6476
    18.7554     3.7613
    18.8421     3.6377
    18.9294     3.6892
    19.0174     3.6791
    19.1059     3.7768
    19.1951     3.7339
    19.2849     3.7336
    19.3753     3.7728
    19.4664     3.6045
    19.5581     3.7081
    19.6505     3.6641
    19.7435     3.8165
    19.8372     3.6160
    19.9315     3.5363
    20.0266     3.6741
    20.1223     3.6981
    20.2187     3.6726
    20.3157     3.6549
    20.4135     3.6119
    20.5120     3.6914
    20.6112     3.5744
    20.7112     3.3459
    20.8118     3.5664
    20.9132     3.5784
    21.0154     3.5447
    21.1183     3.3895
    21.2219     3.4157
    21.3263     3.4523
    21.4315     3.5321
    21.5375     3.5856
    21.6442     3.5856
    21.7518     3.2091
    21.8601     3.3569
    21.9693     3.3684
    22.0793     3.2933
    22.1901     3.2917
    22.3017     3.2130
    22.4142     3.1727
    22.5276     3.2456
    22.6418     3.2716
    22.7569     3.3484
    22.8728     3.4074
    22.9897     3.2125
    23.1074     3.4332
    23.2261     3.3484
    23.3456     3.2206
    23.4661     3.3227
    23.5875     3.3471
    23.7099     3.2643
    23.8333     3.2232
    23.9575     3.2683
    24.0828     3.1190
    24.2091     3.1631
    24.3363     3.3002
    24.4646     3.4011
    24.5938     3.4049
    24.7241     3.3987
    24.8555     3.3074
    24.9879     3.4277
    25.1213     3.4395
    25.2558     3.4315
    25.3914     3.2697
    25.5281     3.2130
    25.6659     3.2213
    25.8048     3.3007
    25.9449     3.1496
    26.0861     3.1381
    26.2284     3.1337
    26.3720     3.1434
    26.5167     3.0373
    26.6626     3.0049
    26.8097     3.0405
    26.9580     3.0071
    27.1076     3.0652
    27.2584     3.0088
    27.4104     3.1129
    27.5638     3.0252
    27.7184     2.9026
    27.8743     2.9552
    28.0316     3.1329
    28.1902     2.9423
    28.3501     2.9281
    28.5115     3.0287
    28.6741     2.9855
    28.8382     2.7712
    29.0037     2.8122
    29.1707     3.0520
    29.3390     3.0155
    29.5089     2.9053
    29.6802     2.7562
    29.8530     2.8632
    30.0273     2.7586
    30.2032     2.7645
    30.3806     3.0219
    30.5595     3.1834
    30.7401     3.2051
    30.9223     2.9618
    31.1061     2.7102
    31.2915     2.6967
    31.4786     2.7542
    31.6674     2.7593
    31.8578     2.8113
    32.0500     2.7357
    32.2440     2.7787
    32.4397     2.6824
    32.6372     2.5379
    32.8365     2.5161
    39.2520     2.5538
    39.5150     2.3757
    39.7807     2.5135
    40.0490     2.5621
    40.3201     2.5698
    40.5939     2.5054
    40.8705     2.5599
    41.1500     2.6010
    41.4323     2.6443
    41.7175     2.4458
    42.0058     2.5445
    42.2970     2.5097
    42.5912     2.5006
    42.8885     2.4801
    43.1890     2.7110
    43.4926     2.3743
    43.7994     2.5012
    44.1095     2.4803
    44.4229     2.4703
    44.7396     2.4866
    45.0597     2.2944
    45.3833     2.3665
    45.7104     2.3633
    46.0410     2.3712
    46.3753     2.4226
    46.7132     2.4009
    47.0548     2.3002
    47.4001     2.3768
    47.7493     2.3211
    48.1023     2.2925
    48.4593     2.2890
    48.8203     2.2725
    49.1853     2.2484
    49.5544     2.2750
    49.9277     2.2402
    50.3052     2.2783
    50.6870     2.3230
    51.0732     2.1905
    51.4638     2.1839
    51.8590     2.1886
    52.2586     2.2180
    52.6630     2.1903
    53.0720     2.2572
    53.4858     2.2885
    53.9045     2.2366
    54.3281     2.2972
    54.7567     2.1621
    55.1904     2.2029
    55.6293     2.1133
    56.0735     2.0902
    56.5229     2.1275
    56.9778     2.1332
    57.4383     2.1078
    57.9043     2.0475
    58.3760     2.0417
    58.8535     2.0650
    59.3369     2.0496
    59.8263     2.0617
    60.3218     2.0395
    60.8234     1.9973
    61.3313     2.0082
    61.8456     2.0394
    62.3664     2.0839
    62.8938     2.0946
    63.4280     1.9893
    63.9689     2.0633
    64.5168     2.1108
    65.0718     1.9942
    65.6340     1.9451
    66.2035     1.9756
    66.7804     2.0176
    67.3649     2.0455
    67.9571     1.9739
    68.5572     1.9832
    69.1652     1.9874
    69.7814     1.9533
    70.4058     1.9811
    71.0387     1.9663
    71.6801     1.9065
    72.3303     1.8868
    72.9893     1.9292
    73.6574     1.8494
    74.3347     1.8160
    75.0214     1.7894
    75.7177     1.7651
    76.4237     1.7535
    77.1396     1.7875
    77.8656     1.7650
    78.6019     1.8125
    79.3487     1.7445
    80.1062     1.7455
    80.8746     1.7140
    81.6541     1.6101
    82.4449     1.4044
    83.2473     1.5709
    84.0615     1.5690
   129.7588     1.1495
   131.3461     1.1616
   132.9626     1.0871
   134.6092     1.1228
   136.2865     1.0739
   137.9955     1.0728
   139.7367     1.0898
   141.5111     0.9187
   143.3196     1.0664
   145.1629     0.9919
   147.0420     1.1358
   148.9578     1.1885
   150.9113     1.1459
   152.9035     1.2152
   154.9355     1.1224
   157.0082     1.0648
   159.1227     1.1816
   161.2803     1.2162
   163.4820     1.2747
   165.7292     1.0853
   168.0230     1.0144
   170.3648     0.9894
   172.7558     0.9678
   175.1976     0.9850
   177.6914     0.9445
   180.2390     0.8930
   182.8417     0.9197
   185.5011     0.9459
   188.2191     0.8197
   190.9972     0.8473
   193.8372     0.7999
   196.7411     0.7798
   199.7108     0.8019
   229.7531     0.7737
   233.5041     0.7787
   237.3477     0.7779
   241.2870     0.7486
   245.3252     0.7949
   249.4657     0.7961
   253.7118     0.7058
   258.0673     0.7292
   262.5359     0.7130
   267.1216     0.6841
   271.8285     0.7090
   276.6609     0.6960
   281.6234     0.7018
   286.7205     0.7612
   291.9573     0.7087
   297.3389     0.6341
ENDDATA            568
ENDSUBENT          581
SUBENT        10435004   20030408   20030603
BIB                  3          4
REACTION   (46-PD-105(N,G)46-PD-106,,SIG)
ERR-ANALYS (ERR-S) Data error given is statistical error,
            normalization error 4%.
HISTORY    (20030408A) Data error heading updated.
ENDBIB               4
COMMON               1          3
ERR-S
PER-CENT
 4.
ENDCOMMON            3
DATA                 2        562
EN         DATA
KEV        B
     6.3140     1.7479
     6.3309     1.6556
     6.3479     1.7753
     6.3649     1.8915
     6.3820     2.0062
     6.3992     2.2017
     6.4165     2.1925
     6.4338     1.9662
     6.4512     1.9733
     6.4687     2.2724
     6.4862     2.2422
     6.5038     1.9338
     6.5215     1.7882
     6.5393     1.7204
     6.5571     1.5714
     6.5750     1.5809
     6.5930     1.7637
     6.6110     2.1262
     6.6292     2.4864
     6.6474     2.7218
     6.6656     2.5446
     6.6840     2.0012
     6.7024     1.6475
     6.7209     1.7308
     6.7395     2.1453
     6.7582     2.4011
     6.7769     2.2160
     6.7957     1.9050
     6.8146     1.9524
     6.8336     2.2180
     6.8526     2.0644
     6.8717     1.8989
     6.8909     1.5716
     6.9102     1.7201
     6.9296     1.8970
     6.9491     2.2919
     6.9686     2.3912
     6.9882     2.2556
     7.0079     1.9808
     7.0277     2.1346
     7.0476     2.2437
     7.0675     2.0949
     7.0875     2.2043
     7.1077     2.2095
     7.1279     1.9592
     7.1482     2.3735
     7.1685     2.3869
     7.1890     2.4336
     7.2096     2.4583
     7.2302     2.0974
     7.2509     2.0985
     7.2718     2.2753
     7.2927     2.6624
     7.3137     2.6803
     7.3348     2.9096
     7.3559     2.8161
     7.3772     2.4733
     7.3986     2.5297
     7.4200     2.2270
     7.4416     2.1192
     7.4632     1.8024
     7.4850     1.8701
     7.5068     1.7050
     7.5288     2.0843
     7.5508     2.3041
     7.5729     2.1592
     7.5951     1.9357
     7.6175     1.8016
     7.6399     1.7083
     7.6624     1.2909
     7.6850     1.2827
     7.7077     1.3963
     7.7306     1.8202
     7.7535     2.3791
     7.7765     2.6825
     7.7996     2.7020
     7.8229     2.5693
     7.8462     2.3400
     7.8696     2.4935
     7.8932     2.3459
     7.9168     1.9931
     7.9406     1.8617
     7.9645     1.9849
     7.9884     2.1449
     8.0125     2.7243
     8.0367     2.7258
     8.0610     2.3294
     8.0854     1.9540
     8.1099     1.8199
     8.1346     2.1483
     8.1593     2.3501
     8.1842     2.0358
     8.2091     1.6995
     8.2342     2.0251
     8.2594     2.0537
     8.2847     1.9791
     8.3102     1.6994
     8.3357     2.0317
     8.3614     1.9964
     8.3872     1.5539
     8.4131     1.4948
     8.4391     1.6051
     8.4652     1.6119
     8.4915     1.9254
     8.5179     2.0976
     8.5444     2.1035
     8.5711     2.0635
     8.5978     2.3977
     8.6247     2.3855
     8.6517     2.3962
     8.6789     2.2202
     8.7061     2.2706
     8.7335     2.0602
     8.7611     1.5504
     8.7887     1.3712
     8.8165     1.8043
     8.8444     2.0093
     8.8725     2.1125
     8.9007     2.2906
     8.9290     2.8767
     8.9575     3.0538
     8.9861     2.4807
     9.0148     1.9574
     9.0437     1.6095
     9.0727     1.6437
     9.1018     1.5896
     9.1311     1.6439
     9.1605     1.6928
     9.1901     2.0753
     9.2198     2.1565
     9.2497     2.1945
     9.2797     1.9211
     9.3099     1.5152
     9.3402     1.5780
     9.3706     1.9437
     9.4012     2.2653
     9.4320     2.0544
     9.4629     1.8428
     9.4939     1.7229
     9.5251     1.5621
     9.5565     1.5165
     9.5880     1.5967
     9.6197     1.3206
     9.6515     1.1091
     9.6835     1.3102
     9.7156     1.6708
     9.7479     1.6314
     9.7804     1.6120
     9.8130     1.7019
     9.8458     1.7257
     9.8788     1.8659
     9.9119     2.1058
     9.9452     1.9701
     9.9786     1.7616
    10.0123     1.8165
    10.0461     2.1020
    10.0800     2.3331
    10.1142     2.2791
    10.1485     2.0321
    10.1830     1.8824
    10.2176     1.7070
    10.2525     2.0190
    10.2875     1.9219
    10.3227     1.5865
    10.3581     1.6312
    10.3936     1.8800
    10.4294     1.9329
    10.4653     1.8443
    10.5014     1.7290
    10.5377     1.7634
    10.5742     2.1275
    10.6109     2.0303
    10.6478     1.7268
    10.6849     1.7711
    10.7221     1.7481
    10.7596     1.5920
    10.7972     1.6449
    10.8351     1.8073
    10.8731     1.6903
    10.9114     1.6269
    10.9498     1.5189
    10.9885     1.8363
    11.0274     2.1808
    11.0664     2.1303
    11.1057     2.0388
    11.1452     2.1163
    11.1849     2.0480
    11.2248     1.8555
    11.2649     1.8943
    11.3053     2.0364
    11.3458     2.2491
    11.3866     2.1879
    11.4276     1.9227
    11.4688     2.2131
    11.5103     2.3482
    11.5519     2.2138
    11.5938     2.1488
    11.6359     1.9952
    11.6783     1.7150
    11.7209     1.7042
    11.7637     1.5561
    11.8067     1.6793
    11.8500     1.8053
    11.8936     1.8394
    11.9373     1.8745
    11.9813     1.9260
    12.0256     2.1346
    12.0701     2.1416
    12.1148     1.9668
    12.1598     1.9061
    12.2051     1.7351
    12.2506     1.6923
    12.2963     1.7381
    12.3423     1.9702
    12.3886     1.7982
    12.4351     1.6152
    12.4819     1.6549
    12.5290     1.6250
    12.5763     1.5351
    12.6239     1.5604
    12.6718     1.7353
    12.7199     1.9766
    12.7683     2.0171
    12.8170     2.1016
    12.8660     2.1366
    12.9152     1.8845
    12.9647     1.8223
    13.0146     1.8979
    13.0647     1.9366
    13.1151     1.8546
    13.1657     1.9229
    13.2167     1.8982
    13.2680     1.6469
    13.3196     1.5202
    13.3714     1.4482
    13.4236     1.3766
    13.4761     1.4129
    13.5289     1.5868
    13.5820     1.8123
    13.6354     1.9995
    13.6892     1.9137
    13.7432     1.7235
    13.7976     1.7097
    13.8523     1.6156
    13.9073     1.6942
    13.9627     1.8503
    14.0184     1.8156
    14.0744     1.7583
    14.1307     1.7074
    14.1874     1.4893
    14.2445     1.5939
    14.3018     1.5199
    14.3596     1.2925
    14.4176     1.4301
    14.4761     1.5201
    14.5349     1.4642
    14.5940     1.4799
    14.6535     1.5104
    14.7134     1.6012
    14.7736     1.5659
    14.8342     1.5295
    14.8952     1.6132
    14.9566     1.8622
    15.0183     1.7655
    15.0804     1.5165
    15.1429     1.5658
    15.2058     1.8309
    15.2691     1.7162
    15.3328     1.4961
    15.3969     1.4570
    15.4614     1.5612
    15.5263     1.4745
    15.5916     1.4510
    15.6573     1.5631
    15.7235     1.6382
    15.7900     1.6170
    15.8570     1.7533
    15.9244     1.7256
    15.9922     1.6595
    16.0605     1.5872
    16.1292     1.5658
    16.1984     1.5165
    16.2680     1.6418
    16.3380     1.5533
    16.4085     1.5330
    16.4795     1.5359
    16.5509     1.5135
    16.6228     1.4014
    16.6951     1.4544
    16.7679     1.4344
    16.8412     1.4609
    16.9150     1.4230
    16.9893     1.4564
    17.0640     1.5208
    17.1393     1.7525
    17.2151     1.8454
    17.2913     1.5655
    17.3681     1.6687
    17.4454     1.6798
    17.5231     1.5345
    17.6015     1.4945
    17.6803     1.5097
    17.7597     1.5838
    17.8396     1.4946
    17.9200     1.4267
    18.0010     1.4930
    18.0826     1.5411
    18.1647     1.6692
    18.2473     1.5594
    18.3306     1.5110
    18.4144     1.5232
    18.4987     1.5287
    18.5837     1.5388
    18.6692     1.6668
    18.7554     1.5973
    18.8421     1.5507
    18.9294     1.4690
    19.0174     1.5671
    19.1059     1.6278
    19.1951     1.7190
    19.2849     1.8187
    19.3753     1.5390
    19.4664     1.3803
    19.5581     1.5013
    19.6505     1.5344
    19.7435     1.4422
    19.8372     1.4442
    19.9315     1.6214
    20.0266     1.5725
    20.1223     1.5350
    20.2187     1.5561
    20.3157     1.5397
    20.4135     1.3737
    20.5120     1.2314
    20.6112     1.4231
    20.7112     1.2696
    20.8118     1.2546
    20.9132     1.2665
    21.0154     1.3632
    21.1183     1.4133
    21.2219     1.4719
    21.3263     1.5048
    21.4315     1.3146
    21.5375     1.2633
    21.6442     1.2195
    21.7518     1.2417
    21.8601     1.2787
    21.9693     1.2934
    22.0793     1.2713
    22.1901     1.2835
    22.3017     1.3351
    22.4142     1.3897
    22.5276     1.4450
    22.6418     1.4017
    22.7569     1.3316
    22.8728     1.2575
    22.9897     1.2883
    23.1074     1.3094
    23.2261     1.5208
    23.3456     1.4431
    23.4661     1.4646
    23.5875     1.4938
    23.7099     1.5171
    23.8333     1.4060
    23.9575     1.2497
    24.0828     1.2187
    24.2091     1.3020
    24.3363     1.3075
    24.4646     1.3648
    24.5938     1.2257
    24.7241     1.2971
    24.8555     1.2959
    24.9879     1.3280
    25.1213     1.3904
    25.2558     1.4414
    25.3914     1.3589
    25.5281     1.3164
    25.6659     1.3083
    25.8048     1.2924
    25.9449     1.2716
    26.0861     1.3200
    26.2284     1.3800
    26.3720     1.3489
    26.5167     1.2678
    26.6626     1.2849
    26.8097     1.2514
    26.9580     1.2861
    27.1076     1.3665
    27.2584     1.2686
    27.4104     1.2023
    27.5638     1.2311
    27.7184     1.2058
    27.8743     1.2730
    28.0316     1.2550
    28.1902     1.2210
    28.3501     1.4104
    28.5115     1.4392
    28.6741     1.3121
    28.8382     1.2981
    29.0037     1.2694
    29.1707     1.2953
    29.3390     1.1439
    29.5089     1.1039
    29.6802     1.1752
    29.8530     1.2559
    30.0273     1.1932
    30.2032     1.2686
    30.3806     1.3193
    30.5595     1.1428
    30.7401     1.1777
    30.9223     1.2923
    31.1061     1.1281
    31.2915     1.0868
    31.4786     1.1288
    31.6674     1.0905
    31.8578     1.0732
    32.0500     1.1717
    32.2440     1.2427
    32.4397     1.1963
    32.6372     1.0067
    32.8365     1.1364
    39.2520     1.0245
    39.5150     0.9626
    39.7807     1.0387
    40.0490     1.0479
    40.3201     1.1122
    40.5939     1.0194
    40.8705     1.0750
    41.1500     1.1883
    41.4323     1.0538
    41.7175     1.0937
    42.0058     1.0242
    42.2970     1.0365
    42.5912     1.0389
    42.8885     1.0763
    43.1890     1.1295
    43.4926     0.9827
    43.7994     1.0544
    44.1095     1.0319
    44.4229     1.0705
    44.7396     1.1133
    45.0597     1.0143
    45.3833     1.0317
    45.7104     0.8972
    46.0410     0.9893
    46.3753     0.9842
    46.7132     0.9814
    47.0548     0.9589
    47.4001     0.9438
    47.7493     0.9960
    48.1023     1.0294
    48.4593     1.0274
    48.8203     0.9358
    49.1853     0.9104
    49.5544     0.8917
    49.9277     0.9415
    50.3052     0.9968
    50.6870     1.0039
    51.0732     0.9875
    51.4638     0.9714
    51.8590     0.9359
    52.2586     0.9106
    52.6630     0.9484
    53.0720     0.8516
    53.4858     0.8533
    53.9045     0.8814
    54.3281     0.8933
    54.7567     0.8633
    55.1904     0.8691
    55.6293     0.8987
    56.0735     0.8691
    56.5229     0.8710
    56.9778     0.8534
    57.4383     0.8833
    57.9043     0.8677
    58.3760     0.8850
    58.8535     0.8588
    59.3369     0.7938
    59.8263     0.8161
    60.3218     0.8236
    60.8234     0.8847
    61.3313     0.8714
    61.8456     0.8381
    62.3664     0.9032
    62.8938     0.9080
    63.4280     0.8228
    63.9689     0.8364
    64.5168     0.8360
    65.0718     0.8712
    65.6340     0.7951
    66.2035     0.7810
    66.7804     0.7995
    67.3649     0.7592
    67.9571     0.7696
    68.5572     0.7611
    69.1652     0.7728
    69.7814     0.7842
    70.4058     0.7910
    71.0387     0.7446
    71.6801     0.6980
    72.3303     0.7252
    72.9893     0.7227
    73.6574     0.7613
    74.3347     0.6695
    75.0214     0.6851
    75.7177     0.6450
    76.4237     0.6315
    77.1396     0.6797
    77.8656     0.6333
    78.6019     0.6395
    79.3487     0.6299
    80.1062     0.6897
    80.8746     0.6027
    81.6541     0.5537
    82.4449     0.5260
    83.2473     0.6374
    84.0615     0.6104
   129.7588     0.4852
   131.3461     0.4853
   132.9626     0.4457
   134.6092     0.4636
   136.2865     0.4544
   137.9955     0.4361
   139.7367     0.4647
   141.5111     0.3598
   143.3196     0.4571
   145.1629     0.4455
   147.0420     0.5371
   148.9578     0.5602
   150.9113     0.5361
   152.9035     0.6256
   154.9355     0.5577
   157.0082     0.5017
   159.1227     0.5865
   161.2803     0.4745
   163.4820     0.5024
   165.7292     0.5589
   168.0230     0.4653
   170.3648     0.4595
   172.7558     0.4374
   175.1976     0.4677
   177.6914     0.4788
   180.2390     0.4224
   182.8417     0.4472
   185.5011     0.4362
   188.2191     0.3843
   190.9972     0.4138
   193.8372     0.3933
   196.7411     0.3908
   199.7108     0.4226
   245.3252     0.4057
   249.4657     0.4311
   253.7118     0.3950
   258.0673     0.4021
   262.5359     0.4018
   267.1216     0.3819
   271.8285     0.3820
   276.6609     0.3648
   281.6234     0.3760
   286.7205     0.3870
   291.9573     0.4002
   297.3389     0.3151
ENDDATA            564
ENDSUBENT          577
SUBENT        10435005   20030408   20030603
BIB                  3          4
REACTION   (45-RH-103(N,G)45-RH-104,,SIG)
ERR-ANALYS (ERR-S) Data error given is statistical error,
            normalization error 8%.
HISTORY    (20030408A) Data error heading updated.
ENDBIB               4
COMMON               1          3
ERR-S
PER-CENT
 4.
ENDCOMMON            3
DATA                 2        566
EN         DATA
KEV        B
     6.3140     1.5047
     6.3309     1.5602
     6.3479     1.7984
     6.3649     1.4817
     6.3820     0.7414
     6.3992     0.7994
     6.4165     1.0258
     6.4338     1.1928
     6.4512     1.2408
     6.4687     1.0211
     6.4862     0.8583
     6.5038     0.8171
     6.5215     0.9512
     6.5393     1.4542
     6.5571     2.1288
     6.5750     1.8184
     6.5930     0.9538
     6.6110     0.9455
     6.6292     0.9751
     6.6474     1.2061
     6.6656     2.0910
     6.6840     3.1736
     6.7024     3.0054
     6.7209     1.8349
     6.7395     1.3455
     6.7582     1.3892
     6.7769     1.3952
     6.7957     1.8150
     6.8146     2.6107
     6.8336     2.5701
     6.8526     2.0894
     6.8717     1.4680
     6.8909     1.1309
     6.9102     1.1273
     6.9296     1.5777
     6.9491     1.5250
     6.9686     1.0905
     6.9882     0.6941
     7.0079     1.0360
     7.0277     0.9997
     7.0476     0.8621
     7.0675     1.2800
     7.0875     1.4693
     7.1077     1.0632
     7.1279     1.2876
     7.1482     1.9538
     7.1685     2.5105
     7.1890     2.3896
     7.2096     2.1425
     7.2302     1.7896
     7.2509     1.4061
     7.2718     0.9972
     7.2927     0.8707
     7.3137     1.2340
     7.3348     1.1585
     7.3559     0.8815
     7.3772     1.0557
     7.3986     1.4100
     7.4200     1.6530
     7.4416     1.6119
     7.4632     1.7137
     7.4850     1.6507
     7.5068     1.5921
     7.5288     1.7996
     7.5508     1.9418
     7.5729     1.8240
     7.5951     1.6536
     7.6175     1.6994
     7.6399     2.3334
     7.6624     2.6938
     7.6850     2.1720
     7.7077     1.5998
     7.7306     1.2136
     7.7535     1.1517
     7.7765     1.2502
     7.7996     1.1293
     7.8229     1.4426
     7.8462     1.1778
     7.8696     1.2162
     7.8932     1.8133
     7.9168     2.1878
     7.9406     1.9432
     7.9645     2.0630
     7.9884     2.2947
     8.0125     1.9032
     8.0367     1.1849
     8.0610     0.6563
     8.0854     0.7789
     8.1099     1.0841
     8.1346     1.4956
     8.1593     1.3900
     8.1842     1.8498
     8.2091     2.2094
     8.2342     2.2454
     8.2594     1.7304
     8.2847     1.2356
     8.3102     1.0541
     8.3357     1.3314
     8.3614     1.4035
     8.3872     1.2351
     8.4131     1.4574
     8.4391     1.7823
     8.4652     2.1371
     8.4915     2.3920
     8.5179     2.1931
     8.5444     1.9342
     8.5711     1.5616
     8.5978     1.5277
     8.6247     1.8676
     8.6517     2.0761
     8.6789     2.2150
     8.7061     2.3177
     8.7335     1.7075
     8.7611     1.5807
     8.7887     1.6092
     8.8165     1.5901
     8.8444     1.7315
     8.8725     1.8653
     8.9007     1.2840
     8.9290     0.9670
     8.9575     1.3410
     8.9861     1.7180
     9.0148     1.2224
     9.0437     1.0939
     9.0727     1.2934
     9.1018     1.1147
     9.1311     0.9205
     9.1605     1.4616
     9.1901     1.9300
     9.2198     1.5228
     9.2497     1.3662
     9.2797     1.4954
     9.3099     1.3529
     9.3402     1.2338
     9.3706     1.2309
     9.4012     0.9726
     9.4320     0.8196
     9.4629     1.1532
     9.4939     1.2937
     9.5251     1.1425
     9.5565     1.2537
     9.5880     1.5118
     9.6197     1.6632
     9.6515     1.7593
     9.6835     1.4571
     9.7156     1.9199
     9.7479     2.2131
     9.7804     1.9829
     9.8130     1.5881
     9.8458     1.2505
     9.8788     1.1449
     9.9119     1.4443
     9.9452     1.2679
     9.9786     0.9721
    10.0123     0.8026
    10.0461     1.0487
    10.0800     1.3608
    10.1142     1.6386
    10.1485     1.8198
    10.1830     1.9598
    10.2176     1.9100
    10.2525     1.8391
    10.2875     1.8293
    10.3227     1.6328
    10.3581     1.4519
    10.3936     1.5399
    10.4294     1.7657
    10.4653     1.8808
    10.5014     1.9656
    10.5377     1.9544
    10.5742     1.6334
    10.6109     1.0397
    10.6478     1.2768
    10.6849     1.8388
    10.7221     1.5600
    10.7596     1.2132
    10.7972     1.4336
    10.8351     1.2611
    10.8731     1.2591
    10.9114     1.4193
    10.9498     1.5140
    10.9885     1.6578
    11.0274     1.9828
    11.0664     1.8555
    11.1057     1.4259
    11.1452     1.4384
    11.1849     1.7377
    11.2248     2.0000
    11.2649     1.9617
    11.3053     1.6736
    11.3458     1.9370
    11.3866     1.9044
    11.4276     1.5230
    11.4688     1.7034
    11.5103     2.2226
    11.5519     2.0692
    11.5938     1.5292
    11.6359     1.7284
    11.6783     1.6047
    11.7209     1.3896
    11.7637     1.5577
    11.8067     1.7357
    11.8500     1.7315
    11.8936     1.7789
    11.9373     1.9286
    11.9813     1.6924
    12.0256     1.6179
    12.0701     1.3709
    12.1148     1.6935
    12.1598     1.4568
    12.2051     1.0083
    12.2506     0.8382
    12.2963     0.9897
    12.3423     1.3605
    12.3886     1.6080
    12.4351     1.5755
    12.4819     1.4121
    12.5290     1.4515
    12.5763     1.4462
    12.6239     1.4079
    12.6718     1.4409
    12.7199     1.4865
    12.7683     1.4096
    12.8170     1.5392
    12.8660     1.6148
    12.9152     1.2498
    12.9647     1.2794
    13.0146     1.3278
    13.0647     1.2249
    13.1151     1.0399
    13.1657     1.1274
    13.2167     1.1132
    13.2680     1.0617
    13.3196     0.9988
    13.3714     1.0419
    13.4236     1.2263
    13.4761     1.4076
    13.5289     1.3776
    13.5820     1.3617
    13.6354     1.4327
    13.6892     1.3999
    13.7432     1.2861
    13.7976     1.1022
    13.8523     0.9796
    13.9073     1.0510
    13.9627     1.2940
    14.0184     1.4630
    14.0744     1.2847
    14.1307     1.2585
    14.1874     1.2394
    14.2445     1.2190
    14.3018     1.4509
    14.3596     1.5878
    14.4176     1.3450
    14.4761     1.0559
    14.5349     1.2265
    14.5940     1.5591
    14.6535     2.0157
    14.7134     1.6344
    14.7736     1.4645
    14.8342     1.5034
    14.8952     1.3954
    14.9566     1.4175
    15.0183     1.3312
    15.0804     1.5269
    15.1429     1.5494
    15.2058     1.5701
    15.2691     1.3642
    15.3328     1.5527
    15.3969     1.7810
    15.4614     1.4367
    15.5263     1.0669
    15.5916     1.0339
    15.6573     1.2167
    15.7235     1.8653
    15.7900     1.7208
    15.8570     1.4422
    15.9244     1.3323
    15.9922     1.3757
    16.0605     1.4166
    16.1292     1.2233
    16.1984     1.2436
    16.2680     1.4651
    16.3380     1.5211
    16.4085     1.3931
    16.4795     1.1533
    16.5509     1.0224
    16.6228     0.9182
    16.6951     0.8334
    16.7679     0.7679
    16.8412     0.9996
    16.9150     1.2054
    16.9893     1.1860
    17.0640     1.3020
    17.1393     1.4707
    17.2151     1.3635
    17.2913     1.0844
    17.3681     1.0880
    17.4454     1.1714
    17.5231     1.2688
    17.6015     1.0573
    17.6803     0.8737
    17.7597     0.9451
    17.8396     1.2706
    17.9200     1.2506
    18.0010     1.3381
    18.0826     1.3069
    18.1647     1.3613
    18.2473     1.2685
    18.3306     1.2960
    18.4144     1.3551
    18.4987     1.1553
    18.5837     1.0550
    18.6692     1.1350
    18.7554     1.0887
    18.8421     0.9358
    18.9294     1.0469
    19.0174     1.2076
    19.1059     1.2429
    19.1951     1.1968
    19.2849     1.2305
    19.3753     1.3057
    19.4664     1.2038
    19.5581     1.0411
    19.6505     1.1098
    19.7435     1.2855
    19.8372     1.0879
    19.9315     1.2171
    20.0266     1.3652
    20.1223     1.1415
    20.2187     0.9268
    20.3157     0.9944
    20.4135     1.2363
    20.5120     1.1773
    20.6112     1.0514
    20.7112     1.0887
    20.8118     1.1293
    20.9132     1.0645
    21.0154     1.0979
    21.1183     1.1489
    21.2219     1.1912
    21.3263     1.2227
    21.4315     1.1996
    21.5375     1.0464
    21.6442     1.0214
    21.7518     1.1328
    21.8601     1.1671
    21.9693     1.1325
    22.0793     1.0626
    22.1901     1.1448
    22.3017     1.2320
    22.4142     1.2804
    22.5276     1.1241
    22.6418     0.9433
    22.7569     0.9549
    22.8728     1.1064
    22.9897     1.0671
    23.1074     1.0609
    23.2261     1.1917
    23.3456     1.1802
    23.4661     1.0745
    23.5875     0.9886
    23.7099     1.0208
    23.8333     1.0218
    23.9575     0.9766
    24.0828     0.8801
    24.2091     0.8524
    24.3363     0.8502
    24.4646     0.9527
    24.5938     0.9946
    24.7241     1.0482
    24.8555     1.0843
    24.9879     1.1707
    25.1213     1.1303
    25.2558     1.0290
    25.3914     0.9966
    25.5281     0.9940
    25.6659     0.9697
    25.8048     1.0030
    25.9449     1.0269
    26.0861     1.2029
    26.2284     1.1800
    26.3720     1.1058
    26.5167     0.9700
    26.6626     0.9790
    26.8097     0.9866
    26.9580     0.9730
    27.1076     1.1107
    27.2584     1.0624
    27.4104     1.0753
    27.5638     1.0243
    27.7184     1.0079
    27.8743     1.0469
    28.0316     1.1400
    28.1902     1.0845
    28.3501     0.9449
    28.5115     1.0000
    28.6741     1.0430
    28.8382     1.0139
    29.0037     0.9776
    29.1707     1.0846
    29.3390     1.0149
    29.5089     0.9390
    29.6802     0.9862
    29.8530     1.0145
    30.0273     1.1180
    30.2032     1.2123
    30.3806     1.1475
    30.5595     0.9671
    30.7401     0.9207
    30.9223     0.8867
    31.1061     0.8620
    31.2915     0.9061
    31.4786     0.8716
    31.6674     0.8974
    31.8578     1.0515
    32.0500     0.9661
    32.2440     0.7904
    32.4397     0.7207
    32.6372     0.8093
    32.8365     1.0211
    39.2520     0.8698
    39.5150     0.8312
    39.7807     0.7855
    40.0490     0.8033
    40.3201     0.8674
    40.5939     0.8030
    40.8705     0.8474
    41.1500     0.9031
    41.4323     0.9537
    41.7175     0.9143
    42.0058     0.7755
    42.2970     0.7315
    42.5912     0.7727
    42.8885     0.7642
    43.1890     0.8046
    43.4926     0.7246
    43.7994     0.7646
    44.1095     0.7588
    44.4229     0.7902
    44.7396     0.8427
    45.0597     0.7738
    45.3833     0.8360
    45.7104     0.7539
    46.0410     0.7628
    46.3753     0.7377
    46.7132     0.7116
    47.0548     0.6566
    47.4001     0.6796
    47.7493     0.7164
    48.1023     0.7348
    48.4593     0.6806
    48.8203     0.7325
    49.1853     0.7044
    49.5544     0.7476
    49.9277     0.7610
    50.3052     0.7957
    50.6870     0.7759
    51.0732     0.7280
    51.4638     0.6616
    51.8590     0.7088
    52.2586     0.7051
    52.6630     0.7117
    53.0720     0.6890
    53.4858     0.7467
    53.9045     0.7379
    54.3281     0.7104
    54.7567     0.6875
    55.1904     0.6365
    55.6293     0.6396
    56.0735     0.6404
    56.5229     0.6801
    56.9778     0.6692
    57.4383     0.6203
    57.9043     0.6154
    58.3760     0.6822
    58.8535     0.6224
    59.3369     0.6156
    59.8263     0.6016
    60.3218     0.6328
    60.8234     0.6545
    61.3313     0.6532
    61.8456     0.6403
    62.3664     0.6675
    62.8938     0.6539
    63.4280     0.6349
    63.9689     0.6440
    64.5168     0.6309
    65.0718     0.6434
    65.6340     0.6209
    66.2035     0.6577
    66.7804     0.6673
    67.3649     0.6376
    67.9571     0.6188
    68.5572     0.6152
    69.1652     0.6200
    69.7814     0.6115
    70.4058     0.6290
    71.0387     0.5803
    71.6801     0.5340
    72.3303     0.5578
    72.9893     0.5524
    73.6574     0.5569
    74.3347     0.5496
    75.0214     0.5172
    75.7177     0.5032
    76.4237     0.5292
    77.1396     0.5500
    77.8656     0.4783
    78.6019     0.5205
    79.3487     0.5291
    80.1062     0.5108
    80.8746     0.4796
    81.6541     0.4901
    82.4449     0.4072
    83.2473     0.4654
    84.0615     0.4508
   129.7588     0.3155
   131.3461     0.3715
   132.9626     0.3614
   134.6092     0.3275
   136.2865     0.3115
   137.9955     0.3331
   139.7367     0.3569
   141.5111     0.2496
   143.3196     0.3396
   145.1629     0.2979
   147.0420     0.3059
   148.9578     0.4280
   150.9113     0.2784
   152.9035     0.3925
   154.9355     0.3717
   157.0082     0.3918
   159.1227     0.3313
   161.2803     0.3044
   163.4820     0.2517
   165.7292     0.2657
   168.0230     0.3480
   170.3648     0.3393
   172.7558     0.3037
   175.1976     0.3408
   177.6914     0.3094
   180.2390     0.2879
   182.8417     0.3022
   185.5011     0.3172
   188.2191     0.2819
   190.9972     0.2781
   193.8372     0.2912
   196.7411     0.2777
   199.7108     0.2849
   229.7531     0.2971
   233.5041     0.2789
   237.3477     0.2827
   241.2870     0.2864
   245.3252     0.2876
   249.4657     0.2923
   253.7118     0.2684
   258.0673     0.2777
   262.5359     0.2862
   267.1216     0.2710
   271.8285     0.2869
   276.6609     0.2838
   281.6234     0.2732
   286.7205     0.2866
   291.9573     0.2621
   297.3389     0.2076
ENDDATA            568
ENDSUBENT          581
SUBENT        10435006   20030408   20030603
BIB                  3          4
REACTION  1(63-EU-151(N,G),,WID,,AV)
          2(63-EU-151(N,0),,D)
ERR-ANALYS No information on uncertainties.
HISTORY    (20030408A) COMMON data moved to DATA.
ENDBIB               4
NOCOMMON             0          0
DATA                 4          1
EN-MIN     EN-MAX     DATA      1DATA      2
KEV        KEV        EV         EV
6.314      297.3389   0.094      0.7
ENDDATA              3
ENDSUBENT           12
SUBENT        10435007   20030408   20030603
BIB                  2          2
REACTION   (63-EU-151(N,EL),,STF)
ERR-ANALYS No information on uncertainties.
ENDBIB               2
COMMON               2          3
EN-MIN     EN-MAX
KEV        KEV
6.314      297.3389
ENDCOMMON            3
DATA                 2          2
MOMENTUM L DATA
NO-DIM     NO-DIM
 0.             5.E-04
 1.             1.E-04
ENDDATA              4
ENDSUBENT           15
SUBENT        10435008   20030408   20030603
BIB                  2          3
REACTION  1(63-EU-153(N,G),,WID,,AV)
          2(63-EU-153(N,0),,D)
ERR-ANALYS No information on uncertainties.
ENDBIB               3
NOCOMMON             0          0
DATA                 4          1
EN-MIN     EN-MAX     DATA      1DATA      2
KEV        KEV        EV         EV
6.314      297.3389   0.110      1.3
ENDDATA              3
ENDSUBENT           11
SUBENT        10435009   20030408   20030603
BIB                  2          2
REACTION   (63-EU-153(N,EL),,STF)
ERR-ANALYS No information on uncertainties.
ENDBIB               2
COMMON               2          3
EN-MIN     EN-MAX
KEV        KEV
6.314      297.3389
ENDCOMMON            3
DATA                 2          2
MOMENTUM L DATA
NO-DIM     NO-DIM
 0.            2.5E-04
 1.            1.0E-04
ENDDATA              4
ENDSUBENT           15
SUBENT        10435010   20030408   20030603
BIB                  2          3
REACTION  1(46-PD-105(N,G),,WID,,AV)
          2(46-PD-105(N,0),,D)
ERR-ANALYS No information on uncertainties.
ENDBIB               3
NOCOMMON             0          0
DATA                 4          1
EN-MIN     EN-MAX     DATA      1DATA      2
KEV        KEV        EV         EV
6.314      297.3389   0.150      10.
ENDDATA              3
ENDSUBENT           11
SUBENT        10435011   20030408   20030603
BIB                  2          2
REACTION   (46-PD-105(N,EL),,STF)
ERR-ANALYS No information on uncertainties.
ENDBIB               2
COMMON               2          3
EN-MIN     EN-MAX
KEV        KEV
6.314      297.3389
ENDCOMMON            3
DATA                 2          2
MOMENTUM L DATA
NO-DIM     NO-DIM
 0.           0.40E-04
 1.           6.0 E-04
ENDDATA              4
ENDSUBENT           15
SUBENT        10435012   20030408   20030603
BIB                  2          3
REACTION  1(45-RH-103(N,G),,WID,,AV)
          2(45-RH-103(N,0),,D)
ERR-ANALYS No information on uncertainties.
ENDBIB               3
NOCOMMON             0          0
DATA                 4          1
EN-MIN     EN-MAX     DATA      1DATA      2
KEV        KEV        EV         EV
6.314      297.3389   0.163      12.
ENDDATA              3
ENDSUBENT           11
SUBENT        10435013   20030408   20030603
BIB                  2          2
REACTION   (45-RH-103(N,EL),,STF)
ERR-ANALYS No information on uncertainties.
ENDBIB               2
COMMON               2          3
EN-MIN     EN-MAX
KEV        KEV
6.314      297.3389
ENDCOMMON            3
DATA                 2          2
MOMENTUM L DATA
NO-DIM     NO-DIM
 0.           0.35E-04
 1.           3.5 E-04
ENDDATA              4
ENDSUBENT           15
ENDENTRY            13
