ENTRY            10456   20210803   20220328   20220327       1490
SUBENT        10456001   20210803   20220328   20220327       1490
BIB                 10         19
TITLE      Neutron Capture in Fluorine Below 1500 keV
AUTHOR     (R.L.Macklin,R.R.Winters)
REFERENCE  (J,PR/C,7,1766,1973)
           #doi:10.1103/PhysRevC.7.1766
REL-REF    (I,,R.L.Macklin+,J,NIM,91,565,1971) Detection system.
INSTITUTE  (1USAORL)
FACILITY   (LINAC,1USAORL) ORELA.
METHOD     (TOF,PHD)
DETECTOR   (SCIN) C6F6 based gamma detector, 6Li neutron monitor.
CORRECTION Data corrected for inelastic scattering effects
HISTORY    (19741127C)
           (19750725A) Corrections to data.
           (19760302U) Reference corrected.
           (19791217A) Converted to reaction formalism. BIB
                       addition.
           (20030626A) Converted to new date formats, lower case.
                       BIB update.
           (20210803A) BP: Updated entry, added doi, digitized
                       data.
ENDBIB              19
NOCOMMON             0          0
ENDSUBENT           22
SUBENT        10456002   20210807   20220328   20220327       1490
BIB                  5         12
REACTION  1(9-F-19(N,0),,EN)
          2(9-F-19(N,TOT),,WID)
          3(9-F-19(N,G),,WID)
          4(9-F-19(N,EL),,WID,,G)
ERR-ANALYS (DATA-ERR) Indicated errors are intended to include
           both systematic and statistical errors at the 2
           standard deviation level.
FLAG       (1.) May include 2 resonances
STATUS     (DEP,10456005)
           (TABLE) Tables I-II, pages 1768-1769.
HISTORY    (19791217A) Subentries 2-4 combined.
           (20210803A) BP: Added ERR-ANALYS, updated status.
ENDBIB              12
NOCOMMON             0          0
DATA                12         24
DATA      1DATA-ERR  1DATA      2DATA-MAX  2DATA-ERR  2DATA      3
DATA-MAX  3DATA-MIN  3DATA-ERR  3DATA      4DATA-ERR  4FLAG
KEV        KEV        KEV        KEV        KEV        EV
EV         EV         EV         EV         EV         NO-DIM
      27.07      0.025      0.355                 0.015        1.4
                              0.3
       43.5       0.05                  0.08                 0.042
                            0.005      0.086       0.01
       48.7       0.15       1.96                  0.15        1.7
                              0.2
       97.0       0.25       13.5                  0.75        6.0
                              0.9                               1.
      173.5       0.45                  0.06
                                        0.35       0.05
       269.        0.5        10.                    1.        3.5
                              0.4
       270.         4.
        4.4
       386.        0.5         5.                   0.5
                    7.
      490.5        0.5        2.4                   0.3
                   10.
       595.         1.         8.                   0.5
                    7.
      1295.         6.        50.                    5.
                   9.6
      1460.        1.5        14.                    1.
                   11.
      1645.                   15.

      1916.                   28.

      2240.                   45.

      2465.                   75.

      3075.                  120.

      3215.                   80.

      3400.                   35.

      3475.                              30.

      3620.                  120.

      4240.                   90.

      4620.                  200.

      4900.                              50.

ENDDATA             52
ENDSUBENT           69
NOSUBENT      10456003     791218              20050926       0000
NOSUBENT      10456004     791218              20050926       0000
SUBENT        10456005   20210807   20220328   20220327       1490
BIB                  4          9
REACTION   (9-F-19(N,G)9-F-20,,SIG)
ERR-ANALYS (DATA-ERR) As the detector response is dominated by
           the Compton process and the weighted spectra have
           only about 3.6% of their area below this bias, the
           extrapolation can hardly introduce an uncertainty as
           large as 1%.
STATUS     (CURVE) Figs. 1-3, pages 1767-1768.
HISTORY    (19791217U)
           (20210803A) BP: updated subentry, digitized data.
ENDBIB               9
COMMON               1          3
DATA-ERR
PER-CENT
        1.0
ENDCOMMON            3
DATA                 2       1290
EN         DATA
KEV        MB
     19.452   -121.855
     21.645    234.871
     23.083      7.998
     23.138      0.307
     23.214      4.394
     23.438      0.319
     23.473      8.897
     23.514      4.406
     23.701      1.861
     23.814      5.439
     24.039      1.364
     24.076      4.939
     24.189      8.518
     24.219     12.901
     24.264      4.437
     24.349     10.257
     24.414      6.995
     24.527      8.021
     24.639      4.962
     24.826      2.928
     24.864      6.503
     24.900     12.487
     24.902      9.057
     25.063     12.935
     25.126      5.493
     25.277      9.072
     25.354     11.623
     25.516      6.773
     25.678      9.429
     25.809     16.498
     25.841     12.526
     26.003     12.974
     26.003     16.064
     26.102     25.340
     26.134     19.602
     26.134     23.134
     26.328     21.817
     26.329     25.791
     26.362     31.090
     26.394     35.948
     26.395     40.363
     26.493     44.782
     26.525     41.251
     26.558     48.758
     26.591     52.733
     26.591     55.382
     26.689     59.801
     26.721     64.659
     26.722     69.515
     26.755     73.932
     26.788     78.348
     26.788     83.646
     26.822     96.451
     26.855    102.633
     26.886     89.831
     26.888    107.933
     26.921    112.791
     26.955    130.452
     27.018    118.976
     27.019    124.715
     27.147    109.268
     27.182    132.669
     27.184    152.978
     27.215    137.085
     27.248    141.502
     27.309    104.860
     27.343    122.521
     27.372     86.761
     27.373     93.383
     27.436     69.545
     27.436     78.375
     27.500     62.483
     27.597     57.631
     27.627     37.764
     27.628     49.243
     27.757     42.626
     27.854     35.566
     27.886     31.152
     28.048     24.537
     28.048     27.627
     28.177     19.685
     28.210     28.517
     28.274     13.067
     28.339     23.224
     28.436     17.930
     28.566     14.845
     28.630     12.640
     28.728     10.436
     28.890     13.533
     28.955     16.627
     29.019     10.448
     29.149      7.363
     29.279     10.017
     29.279     13.108
     29.376      5.165
     29.538      6.937
     29.604     13.563
     29.798      6.506
     29.895     10.925
     30.025      6.957
     30.122      6.520
     30.122     11.818
     30.316      5.203
     30.414      7.856
     30.447     13.597
     30.545     17.133
     30.608      6.981
     30.609     10.513
     30.739     14.050
     30.868      9.199
     30.869     13.173
     30.998      6.997
     31.160      6.562
     31.225     10.980
     31.387     11.869
     31.419      7.897
     31.646      6.141
     31.744     12.326
     31.841     11.447
     31.939      8.801
     32.101      7.042
     32.101     10.574
     32.425      7.055
     32.587      9.270
     32.685     14.572
     32.847      8.839
     32.879      6.632
     33.041      9.288
     33.042     14.586
     33.075     19.002
     33.236     13.270
     33.268      8.856
     33.495      8.424
     33.561     12.400
     33.722      7.991
     33.852      5.789
     33.853     14.178
     33.917      9.765
     34.046      3.590
     34.176      5.802
     34.242      9.779
     34.242     13.311
     34.242     18.167
     34.436      7.138
     34.469     14.644
     34.500      4.050
     34.695      2.733
     34.727     -0.356
     34.729     16.863
     34.890     12.013
     34.922      3.625
     34.987      6.277
     35.149      0.986
     35.214      6.286
     35.215     12.467
     35.278     -3.424
     35.312      8.939
     35.345     18.212
     35.571      6.301
     35.733      1.010
     35.798      8.518
     35.799     10.725
     35.895      6.756
     35.929     22.210
     35.961     14.705
     36.057      1.906
     36.123      8.973
     36.219     -2.061
     36.252      5.887
     36.350     14.280
     36.480      9.429
     36.544      3.692
     36.608     -1.162
     36.610     13.407
     36.674     10.761
     36.836      6.353
     36.900     -0.267
     37.030     -0.262
     37.031     14.749
     37.193      9.458
     37.225      0.629
     37.421     16.531
     37.452     -0.686
     37.485      6.821
     37.615     10.358
     37.679      5.504
     37.842     13.016
     37.939      2.424
     38.004      6.400
     38.005     24.502
     38.037     12.141
     38.165      1.550
     38.231     10.825
     38.297     19.216
     38.360      5.532
     38.458     11.275
     38.522      2.890
     38.653     17.464
     38.750     13.053
     38.912      4.230
     38.945     13.944
     39.041      1.145
     39.076     21.897
     39.204     11.747
     39.333      2.040
     39.399      9.989
     39.529     13.527
     39.560      3.815
     39.691     11.326
     39.755      6.030
     39.852      2.502
     39.854     16.630
     39.950     10.453
     40.015      4.717
     40.114     21.939
     40.210     13.555
     40.274      6.935
     40.437     12.239
     40.534      5.621
     40.664     15.781
     40.696      3.861
     40.794     11.371
     40.858      5.193
     40.956     13.585
     41.020      4.316
     41.087     21.979
     41.117      2.554
     41.248     12.272
     41.280      6.093
     41.410      9.630
     41.410     15.811
     41.507      4.778
     41.573     23.323
     41.605     12.729
     41.701      4.785
     41.800     17.152
     41.896      3.469
     42.026     11.863
     42.091      7.009
     42.254     14.080
     42.383      5.696
     42.448     16.737
     42.642      3.941
     42.643     20.277
     42.804      7.480
     42.870     14.988
     42.999      9.254
     43.097     16.763
     43.226      5.289
     43.259     18.094
     43.389     15.892
     43.421      9.712
     43.487     26.492
     43.491     65.786
     43.527    108.171
     43.553     39.298
     43.584     18.990
     43.648      8.397
     43.681     16.345
     43.712      6.192
     43.810     13.702
     43.972      3.554
     44.006     19.891
     44.166      3.562
     44.200     16.367
     44.232      9.304
     44.460     19.909
     44.588      8.435
     44.654     16.385
     44.913     15.513
     45.010      6.687
     45.011     23.905
     45.108     10.223
     45.173     17.731
     45.302      5.374
     45.335     12.881
     45.498     23.484
     45.561      7.151
     45.691     11.571
     45.790     24.379
     45.854     18.200
     45.918      8.048
     46.113     10.705
     46.114     19.977
     46.147     28.808
     46.178     14.681
     46.438     19.990
     46.535     11.606
     46.665     17.350
     46.666     24.856
     46.826      8.527
     46.893     24.424
     46.989     16.922
     47.023     30.610
     47.217     26.203
     47.249     20.023
     47.380     29.742
     47.411     16.498
     47.542     32.839
     47.574     22.686
     47.575     39.904
     47.706     44.324
     47.770     36.380
     47.801     21.370
     47.965     43.011
     47.996     29.767
     48.095     47.872
     48.190     24.918
     48.224     43.021
     48.321     36.844
     48.353     30.223
     48.452     44.796
     48.482     28.021
     48.613     35.532
     48.615     56.724
     48.679     48.779
     48.808     36.423
     48.841     47.903
     48.872     32.452
     48.904     26.272
     49.068     50.561
     49.099     25.397
     49.100     43.498
     49.197     37.763
     49.326     25.406
     49.327     45.715
     49.359     40.860
     49.520     24.531
     49.522     41.308
     49.552     17.910
     49.618     26.743
     49.650     26.302
     49.651     36.457
     49.715     31.162
     49.779     21.010
     49.910     31.170
     50.006     17.487
     50.007     24.992
     50.071     20.580
     50.103     13.076
     50.169     26.765
     50.265     10.875
     50.266     24.120
     50.363     15.294
     50.428     20.153
     50.590     17.952
     50.654     10.449
     50.849     12.223
     50.849     18.404
     50.913      9.135
     50.914     15.758
     51.043     10.907
     51.206     14.445
     51.270     10.916
     51.400      6.948
     51.562      9.162
     51.692     12.699
     51.855     14.472
     51.888     20.654
     51.951      5.646
     51.951     10.061
     52.146      7.861
     52.341     12.284
     52.438      7.873
     52.600      6.114
     52.664      3.468
     52.698     18.038
     52.827      7.448
     52.989      3.481
     52.989      8.779
     53.120     15.407
     53.216      6.139
     53.411     10.121
     53.573      7.037
     53.703     10.574
     53.865      7.490
     54.050     10.113
     54.248      2.548
     54.893      1.007
     54.918     11.135
     55.233      7.288
     55.674     11.004
     55.754     -0.663
     56.314      7.156
     56.835     -0.923
     56.950      1.769
     57.395      6.895
     57.493      2.792
     57.921      0.996
     58.259      6.507
     58.568      0.224
     58.694      7.659
     59.454      8.810
     59.652      0.989
     59.973     -0.038
     60.319      8.807
     60.646      9.575
     60.951      1.753
     61.085     12.266
     61.487     -0.300
     61.619      9.571
     61.925      2.134
     62.259      5.851
     62.480      8.030
     62.575      2.260
     62.703     10.465
     62.787      0.593
     63.351     10.078
     63.449      6.103
     63.654      1.358
     63.776      6.999
     64.086      1.100
     64.301      0.459
     64.860      8.277
     65.274      0.711
     65.503      5.582
     65.843     11.991
     66.029     -0.189
     66.033      1.221
     66.158      8.144
     66.588      6.988
     67.003     -0.065
     67.243      9.550
     67.331      1.601
     67.556      4.805
     67.653      0.318
     68.108      9.675
     68.304      1.341
     68.316      6.213
     68.643      7.365
     68.866     10.057
     68.954      1.723
     68.963      5.313
     69.601      1.079
     69.718      4.412
     69.948     10.309
     70.029     -0.973
     70.268      8.256
     70.575      1.076
     70.680      0.050
     70.801      5.049
     71.455      7.226
     71.668      6.072
     71.764      0.943
     72.303      0.300
     72.319      6.838
     72.326      9.659
     72.749      5.811
     73.273     -1.242
     73.295      7.860
     73.602      0.936
     73.619      7.603
     73.842     10.679
     74.264      6.062
     74.356     -0.605
     74.811      8.752
     75.116      0.674
     75.239      6.699
     75.329     -0.481
     75.782      7.979
     76.197      0.670
     76.328      9.900
     76.518     -0.998
     76.755      7.847
     76.968      6.436
     77.386      0.152
     77.623      8.869
     78.034      0.150
     78.156      5.662
     78.472      2.200
     78.491      9.892
     78.589      5.789
     78.794      1.301
     79.362     12.196
     79.575     11.042
     79.660      1.682
     79.778      5.656
     79.981      0.014
     80.416      1.038
     80.435      8.731
     80.548     10.910
     80.863      6.806
     81.171      0.266
     81.515      8.085
     81.716      1.931
     82.253      0.647
     82.486      7.441
     82.490      9.107
     82.580      1.671
     82.916      6.413
     83.243      7.310
     83.552      0.770
     83.554      1.667
     83.889      6.025
     84.216      7.178
     84.418      1.151
     84.651      8.074
     84.966      4.354
     85.068      1.918
     85.301      8.584
     85.715      1.018
     86.059      9.222
     86.379      7.170
     86.471      0.374
     86.707      8.579
     86.800      2.424
     87.147     11.526
     87.345      4.217
     87.679      7.934
     87.877      0.625
     88.011     11.266
     88.222      9.214
     88.424      3.187
     88.551     10.879
     88.968      4.724
     88.994     15.237
     89.304      9.338
     89.504      2.671
     89.527     11.901
     89.826      1.515
     89.857     14.336
     90.156      3.950
     90.176     12.027
     90.596      6.769
     90.613     13.820
     91.024      4.972
     91.148     11.510
     91.581     11.637
     91.678      7.149
     92.216      5.865
     92.344     14.198
     92.777     14.197
     92.871      8.683
     92.972      5.734
     93.303      8.297
     93.323     16.374
     93.859     14.577
     94.059      7.653
     94.289     13.422
     94.603      9.061
     95.266     14.828
     95.575      8.673
     95.688     10.596
     95.809     15.723
     96.226      9.312
     96.453     13.926
     96.657      8.797
     96.667     12.771
     97.195      7.641
     97.318     13.923
     97.434     17.128
     97.657     19.691
     97.862     15.203
     97.956      9.177
     98.072     12.638
     98.619     15.328
     98.711      8.661
     98.843     18.276
     99.029      5.839
     99.159     14.941
     99.581     10.325
     99.706     17.375
     99.794      9.170
     99.824     21.477
    100.007      7.887
    100.240     14.553
    100.874      8.397
    100.895     17.371
    101.000     16.088
    101.213     14.677
    101.520      7.497
    101.642     12.881
    101.841      5.829
    102.079     15.059
    102.611     11.210
    102.619     14.544
    102.817      6.851
    103.257      9.926
    103.568      4.540
    103.908     10.949
    104.113      6.333
    104.451     11.716
    104.647      3.639
    104.888     13.766
    105.087      6.457
    105.302      6.072
    105.310      9.534
    105.947      4.403
    106.067      9.531
    106.483      2.606
    106.490      5.555
    106.816      6.066
    106.823      8.759
    107.468      7.346
    107.566      2.986
    108.016     10.292
    108.121      9.138
    108.533      0.675
    108.863      2.725
    108.874      7.469
    108.986      8.879
    109.197      6.698
    109.729      2.978
    110.064      7.592
    110.278      6.438
    110.699      1.949
    110.823      8.487
    111.046     11.050
    111.243      2.973
    111.465      5.536
    111.670      1.048
    112.328      4.763
    112.753      1.685
    112.978      5.145
    113.091      7.196
    113.723      0.271
    113.946      2.706
    113.951      4.757
    114.071      9.628
    114.606      7.447
    114.809      2.062
    115.032      4.625
    115.476      9.367
    115.562      0.392
    116.108      2.569
    116.224      5.646
    116.642     -0.381
    116.655      5.131
    117.080      1.796
    117.201      7.181
    117.520      5.128
    117.721     -1.411
    118.265     -0.003
    118.497      6.535
    118.705      3.072
    119.134      1.660
    119.253      6.147
    119.562     -0.264
    119.896      3.709
    120.542      2.424
    120.559      9.347
    120.972      1.525
    120.984      6.397
    121.625      3.061
    121.633      6.266
    122.052      1.008
    122.282      6.264
    122.396      8.699
    122.705      2.416
    122.722      9.339
    123.134      0.876
    123.258      7.542
    123.580      6.387
    123.894      2.155
    123.901      5.104
    124.322      0.231
    124.865      1.382
    124.985      6.254
    125.415      4.970
    125.840      2.148
    125.847      4.712
    125.945      0.481
    126.393      7.146
    126.488      1.504
    126.818      3.939
    126.922      2.016
    127.133      0.220
    127.574      3.423
    127.677      1.500
    128.121      5.985
    128.220      2.139
    128.554      6.368
    128.874      4.444
    128.976      1.751
    129.308      5.083
    129.732      1.492
    129.852      6.235
    130.169      3.413
    130.271      0.721
    130.382      1.874
    130.593     -0.434
    130.820      3.924
    131.356      1.999
    131.587      8.023
    132.002      0.842
    132.010      4.432
    132.550      4.045
    133.099      7.505
    133.192      1.222
    133.196      2.761
    133.309      4.940
    133.838      0.066
    134.280      3.782
    134.286      6.346
    134.600      1.858
    134.936      6.857
    135.461      0.316
    135.685      3.392
    136.006      1.981
    136.126      6.852
    136.554      4.928
    136.773      5.952
    136.867      0.183
    137.410      1.463
    137.417      4.283
    137.849      4.025
    138.057      0.307
    138.286      5.690
    138.492      1.587
    138.823      4.150
    139.472      4.276
    139.571      0.429
    139.693      6.070
    140.228      3.760
    140.656      1.835
    140.868      0.039
    141.090      2.603
    141.208      6.448
    141.210      7.474
    141.853      5.036
    141.858      6.959
    142.056     -0.606
    142.061      1.702
    142.719      5.161
    143.030     -0.225
    143.033      1.057
    143.039      3.621
    143.593      8.747
    144.116      1.694
    144.124      5.027
    144.451      6.051
    145.195      0.792
    145.423      5.279
    145.635      3.739
    145.641      5.919
    145.948     -0.877
    146.491      0.018
    146.496      1.813
    146.616      6.941
    147.358      0.784
    147.371      5.784
    147.680     -0.243
    147.907      4.115
    148.229      2.960
    148.776      5.522
    148.978     -0.120
    149.203      3.341
    149.523      1.289
    149.644      6.673
    149.964      5.005
    150.061      0.389
    150.293      6.799
    150.502      3.849
    151.046      5.257
    151.466     -0.001
    151.583      3.460
    151.686      1.537
    151.922      9.613
    152.348      6.791
    152.451      4.611
    152.660      1.661
    152.981      0.250
    153.204      3.198
    153.207      4.223
    153.518     -1.291
    153.753      6.529
    153.960      2.810
    154.080      7.553
    154.601     -0.397
    154.720      3.833
    155.037      1.011
    155.043      3.319
    155.379      8.061
    155.691      3.060
    156.115     -0.403
    156.230      2.161
    156.559      4.082
    156.659      0.620
    156.780      6.133
    157.108      7.414
    157.317      4.592
    157.519     -1.306
    157.954     -0.282
    158.076      5.487
    158.290      4.332
    158.727      6.254
    159.035     -0.414
    159.147      1.124
    159.264      4.713
    159.811      7.403
    160.006     -1.572
    160.015      2.018
    160.450      3.298
    160.665      2.657
    160.766     -0.164
    161.521     -0.936
    161.524     -0.039
    161.532      3.294
    161.637      2.140
    162.715      0.469
    162.719      2.136
    163.154      3.160
    163.687      0.209
    163.805      4.055
    164.024      5.080
    164.229      0.720
    164.560      3.283
    164.882      2.256
    165.207      2.767
    165.311      0.844
    165.849     -0.312
    165.858      3.534
    166.179      2.123
    166.495     -1.596
    166.936      2.120
    167.049      4.043
    167.581      0.451
    167.694      2.373
    167.913      3.398
    168.556      1.088
    168.660     -0.579
    168.991      2.112
    169.522     -1.864
    169.537      4.289
    169.748      2.109
    170.178      0.826
    170.389     -1.227
    170.722      2.362
    171.362     -1.358
    171.587      2.230
    171.799      0.691
    171.809      4.537
    172.561      2.740
    172.771      0.175
    172.794      9.405
    173.462     17.480
    173.761      6.966
    173.852     -0.214
    174.826      0.167
    176.016      0.419
    176.239      2.854
    176.773      0.288
    176.996      2.851
    177.748      1.053
    178.186      2.975
    178.828      0.280
    179.588      1.687
    180.021      1.814
    180.561      1.555
    181.319      1.809
    181.751      1.551
    181.758      4.243
    182.074      1.037
    182.613      0.137
    183.480      1.160
    184.240      2.182
    184.678      4.360
    185.212      1.666
    185.218      4.102
    185.750      0.382
    186.083      3.842
    186.728      2.558
    187.590      1.016
    188.025      2.168
    188.891      2.421
    189.543      3.829
    189.971      1.776
    190.302      4.723
    190.618      1.004
    191.273      3.566
    191.698      0.359
    191.924      4.589
    192.783      2.022
    193.436      3.686
    193.755      1.377
    194.621      1.886
    195.485      1.114
    195.806     -0.169
    196.034      4.573
    196.573      4.059
    196.888     -0.045
    196.891      1.237
    197.648      1.234
    197.977      3.284
    198.520      4.051
    198.623      1.871
    199.269      0.971
    199.808      0.200
    200.639     -0.436
    201.719      5.132
    202.800      3.703
    203.521     -1.612
    204.962      2.141
    206.403      5.116
    208.205      3.555
    208.565     -0.723
    210.006     -2.023
    210.006      4.586
    210.726     -2.933
    212.528      4.059
    214.329     -1.261
    215.050      4.050
    216.851      5.340
    217.212     -1.271
    217.212      3.524
    218.292     -1.793
    218.292      4.428
    220.094      7.661
    221.535     -0.767
    221.535      5.324
    223.336      2.855
    223.336     -0.384
    224.057      6.352
    225.498      4.144
    225.858     -1.819
    226.939      6.342
    228.020      8.282
    228.741     -0.921
    229.461      5.167
    231.263      3.346
    232.343     -0.934
    233.064      5.803
    233.785      3.338
    235.946     -0.816
    237.387      3.714
    238.829     -0.308
    238.829      5.912
    242.071     -0.449
    242.071      7.197
    243.152      4.083
    244.953     -0.588
    244.953      7.058
    244.953      3.429
    246.034      5.240
    247.475      4.457
    247.475     -2.022
    248.916      3.156
    249.277      0.045
    250.718      5.612
    251.078     -0.998
    252.159      4.571
    253.240     -0.228
    253.960      7.027
    254.681      5.210
    255.762      4.558
    255.762     -1.014
    257.924      8.180
    257.924      0.015
    258.284     -2.059
    259.004      4.418
    260.085      4.544
    260.806      0.265
    261.166      7.909
    262.247      5.184
    263.328      7.513
    263.688      1.162
    264.769     10.359
    265.129      6.729
    265.850      1.543
    266.570      9.964
    267.291      1.020
    268.732      2.441
    269.092      9.308
    270.533      1.657
    270.894      7.098
    271.975      2.559
    272.695      0.742
    273.416      6.312
    274.857      0.087
    276.298      5.136
    277.019      1.246
    278.460      5.388
    279.180     -0.057
    279.180      3.960
    280.261      5.900
    280.982     -1.100
    282.423      0.968
    282.423      7.707
    283.864      5.240
    284.584      4.071
    284.584     -1.761
    286.746     -0.342
    287.106      7.820
    287.467      4.709
    288.548     -1.515
    288.908      3.667
    290.709     -2.041
    291.070      3.660
    293.231      4.430
    293.231     -0.753
    295.753      2.996
    295.753     -0.892
    296.834      3.640
    297.555     -0.639
    298.996      4.670
    299.356     -1.682
    301.518      2.976
    301.878     -1.690
    302.599      6.212
    304.040      4.782
    304.760     -2.348
    305.841      3.869
    306.201     -0.927
    306.922      5.679
    308.363      2.694
    308.363     -1.583
    309.084      6.060
    309.444      1.394
    309.804     10.075
    311.966      6.310
    311.966     -2.373
    312.687     -1.338
    313.407      2.028
    314.128     -0.566
    315.569     -2.126
    316.289      0.204
    318.451      0.974
    319.532     -1.103
    320.613     -0.329
    320.613      1.874
    322.774      3.551
    324.216      0.307
    325.296      2.636
    326.017      2.244
    326.017      0.430
    326.738     -0.220
    327.458      1.851
    328.899      0.550
    329.620      1.584
    329.980      2.749
    331.782      2.484
    333.223      0.665
    333.583      4.551
    334.304      2.864
    335.745      0.267
    336.465      3.504
    337.186      1.817
    337.906     -0.129
    339.348     -1.171
    340.428      2.065
    340.789     -0.268
    341.869      0.505
    342.230      3.744
    344.031      0.628
    344.391      2.959
    346.553      2.044
    346.553     -0.288
    348.715      2.815
    349.075      0.999
    349.435     -0.946
    350.877      2.030
    351.957     -0.307
    353.038      2.541
    353.399      0.207
    355.560      3.050
    356.281      0.715
    358.803     -0.460
    358.803      1.743
    360.244      2.386
    362.045      3.158
    362.766      0.693
    364.207      3.669
    364.207      0.299
    366.008      1.200
    366.008      2.885
    367.089      4.177
    368.170      2.230
    368.530      0.673
    368.891      4.819
    371.052      4.552
    372.494      3.511
    373.574      2.729
    373.935     -0.123
    374.295      4.671
    375.736      1.685
    376.817      3.496
    377.538      6.992
    378.258      1.288
    380.059      2.966
    380.059      5.040
    381.140      4.129
    382.221      1.663
    382.942      4.900
    383.302      2.826
    384.743      8.911
    385.103      3.727
    386.545     12.404
    387.986      8.771
    387.986      1.643
    389.787      4.488
    390.147      3.061
    391.589      1.501
    393.390      0.070
    394.831      1.490
    396.272      0.837
    396.633      2.521
    398.074      4.330
    398.434      1.608
    398.794     -0.078
    400.956      3.543
    402.757      2.370
    403.838      0.682
    404.919     -0.488
    406.720      0.154
    408.522      2.869
    409.242      1.570
    412.125      3.116
    413.566      1.815
    413.926     -0.389
    416.808      2.063
    417.889      1.023
    418.610      3.612
    420.771     -0.413
    421.132      2.307
    422.213      5.284
    423.293      1.911
    425.455      0.997
    426.896      2.936
    427.617      1.248
    429.418     -0.054
    429.779      3.185
    433.021     -0.455
    433.021      3.174
    434.823      1.483
    435.543      3.295
    435.903     -0.076
    436.264      1.348
    437.344     -0.729
    438.065      3.934
    438.065      0.824
    439.866      2.114
    440.587     -0.351
    440.587      2.889
    440.947     -1.907
    443.109     -0.489
    443.469      0.805
    446.352      0.925
    446.712      2.738
    449.594      0.655
    450.315     -2.069
    451.035      2.334
    451.756      0.129
    452.837     -0.652
    453.918      1.547
    454.998      3.098
    456.079      1.021
    456.439     -0.405
    457.881      3.089
    460.042     -1.195
    462.204      0.612
    465.447      0.730
    468.689      0.589
    468.689     -0.577
    471.932      0.967
    473.733     -0.983
    475.534      0.307
    475.895      2.379
    479.137      2.238
    480.218      0.161
    483.100      0.410
    484.181      2.869
    485.262      1.051
    487.424     -0.123
    488.865      0.261
    489.225      2.074
    490.666      1.551
    492.107      3.360
    494.269     -0.405
    495.710      1.015
    498.593      1.135
    501.835      2.808
    502.195     -0.173
    504.357      0.856
    504.717      2.021
    507.239      0.716
    510.842      0.056
    511.563      3.682
    512.644      1.216
    513.724     -1.250
    515.526      3.280
    515.886      0.039
    520.930      0.022
    522.011      1.055
    524.173      0.140
    524.173      1.566
    526.695     -0.776
    527.055     -2.462
    529.577     -0.138
    532.459      0.112
    533.180      1.794
    535.341     -2.101
    535.702      0.101
    538.584      0.868
    540.746     -0.176
    543.628     -0.575
    544.709      1.495
    546.510     -0.455
    547.951      0.318
    548.672     -1.110
    551.914     -1.510
    554.797     -0.872
    557.319      0.286
    558.039      1.968
    559.480      0.667
    562.363     -1.287
    562.363     -0.120
    565.605      1.035
    566.326     -0.004
    569.568     -1.959
    570.289      2.963
    570.649     -0.149
    572.451     -1.840
    572.811      2.565
    574.252      0.098
    576.774      0.349
    577.495      2.549
    577.855     -1.340
    579.656      0.598
    580.017      1.893
    582.539      0.458
    584.700     -0.845
    585.781      4.594
    588.303      0.439
    589.384      3.416
    589.384      1.731
    590.465     -0.605
    591.546      2.890
    592.987      5.995
    592.987      4.440
    594.788      0.676
    595.869      5.467
    596.950      3.778
    598.031      2.220
    598.391     -0.373
    601.634      0.523
    601.994      2.206
    603.435     -1.298
    604.516      0.642
    606.677     -1.568
    607.038     -0.533
    608.119      0.371
    610.641     -0.545
    612.442     -0.681
    613.883     -1.463
    616.045      0.344
    618.567     -0.702
    621.089     -1.358
    623.251     -0.588
    623.971     -1.239
    626.853     -0.471
    630.456     -1.131
    632.258     -1.396
    633.699     -0.365
    634.780     -1.405
    638.022     -0.250
    638.382     -1.288
    640.904     -1.167
    642.346      0.383
    644.867     -1.051
    647.029     -1.965
    650.272     -1.717
    650.632      0.873
    652.073     -0.298
    653.875      0.214
    654.235     -1.472
    656.036     -1.608
    659.279     -0.064
    659.279     -0.971
    661.441     -0.719
    662.882     -1.501
    665.404      0.304
    666.484     -0.607
    667.926     -1.648
    670.808     -0.881
    673.330     -1.537
    674.411      0.144
    676.572      1.821
    677.653     -1.422
    679.094     -0.391
    681.256     -1.564
    683.418     -0.405
    684.138     -1.445
    686.660     -1.583
    687.381     -0.289
    690.263     -0.818
    692.425     -0.177
    693.506     -1.088
    695.307     -0.057
    697.469     -0.972
    698.910     -0.459
ENDDATA           1292
ENDSUBENT         1310
ENDENTRY             5
