ENTRY            10489   20120331   20120921   20120725       1381
SUBENT        10489001   20120331   20120921   20120725       1381
BIB                 10         20
INSTITUTE  (1USALAS)
REFERENCE  (J,NSE,62,652,1977)
AUTHOR     (A.E.Evans,M.S.Krick)
TITLE      Equilibrium Delayed Neutron Spectra from Fast Fission
            of Uranium-235, Uranium-238, and Plutonium-239
FACILITY   (VDG,1USALAS) 3.75 MeV Van de Graaff
INC-SPECT  Incident neutron spectrum  80-420 keV
DETECTOR   (LONGC) Long counter for calibration.
           (HE3SP) Shalev gridded 3He ion chamber
MONITOR    Detector efficiency measured relative to 3He long
            counter.
STATUS     (APRVD) Approved by author 1975/9/29
           (TABLE) Final data available only as listing in
            pdf-file, private communication, Evans, 1977/6/2.
HISTORY    (19750402C)
           (19830614A) Converted to REACTION formalism
           (19930319A) Updated to later reference, status changed
                     on data, converted to lower case.
           (20040114A) Converted to new date formats, lower case.
           (20120121U) SD: year of publ.corrected.
ENDBIB              20
NOCOMMON             0          0
ENDSUBENT           23
SUBENT        10489002   20040114   20040406   20050926       0000
BIB                  5          8
REACTION   (92-U-235(N,F),DL,DE,N,REL)
SAMPLE     Plate of uranium enriched to 97% 235U
CORRECTION Corrected for data efficiency as a function of energy,
           No correction made for continuum of pulses below 250
            keV, or for detector wall and end effects.
ERR-ANALYS No information
STATUS     (PRELM) Taken from private communication, Evans,
                   1975/3/5.
ENDBIB               8
COMMON               2          3
EN-MIN     EN-MAX
KEV        KEV
 80.       420.
ENDCOMMON            3
DATA                 3       1300
E-MIN      E-MAX      DATA
KEV        KEV        ARB-UNITS
       0.00       2.40      2842.
       2.40       4.79      2792.
       4.79       7.19      2611.
       7.19       9.59      2234.
       9.59      11.98      1954.
      11.98      14.38      1711.
      14.38      16.78      1553.
      16.78      19.18      1459.
      19.18      21.57      1383.
      21.57      23.97      1286.
      23.97      26.37      1220.
      26.37      28.76      1168.
      28.76      31.16      1099.
      31.16      33.56      1036.
      33.56      35.95       972.
      35.95      38.35       962.
      38.35      40.75       982.
      40.75      43.15       956.
      43.15      45.54       956.
      45.54      47.94       947.
      47.94      50.34       970.
      50.34      52.73       995.
      52.73      55.13      1053.
      55.13      57.53      1048.
      57.53      59.92      1066.
      59.92      62.32      1127.
      62.32      64.72      1162.
      64.72      67.12      1205.
      67.12      69.51      1205.
      69.51      71.91      1277.
      71.91      74.31      1251.
      74.31      76.70      1267.
      76.70      79.10      1302.
      79.10      81.50      1294.
      81.50      83.89      1126.
      83.89      86.29      1146.
      86.29      88.69      1124.
      88.69      91.09      1094.
      91.09      93.48      1141.
      93.48      95.88      1174.
      95.88      98.28      1133.
      98.28     100.67      1183.
     100.67     103.07      1201.
     103.07     105.47      1171.
     105.47     107.86      1227.
     107.86     110.26      1283.
     110.26     112.66      1354.
     112.66     115.06      1401.
     115.06     117.45      1383.
     117.45     119.85      1407.
     119.85     122.25      1519.
     122.25     124.64      1490.
     124.64     127.04      1584.
     127.04     129.44      1706.
     129.44     131.83      1674.
     131.83     134.23      1740.
     134.23     136.63      1692.
     136.63     139.03      1573.
     139.03     141.42      1600.
     141.42     143.82      1542.
     143.82     146.22      1455.
     146.22     148.61      1450.
     148.61     151.01      1492.
     151.01     153.41      1350.
     153.41     155.80      1404.
     155.80     158.20      1514.
     158.20     160.60      1588.
     160.60     163.00      1542.
     163.00     165.39      1604.
     165.39     167.79      1575.
     167.79     170.19      1658.
     170.19     172.58      1623.
     172.58     174.98      1759.
     174.98     177.38      1750.
     177.38     179.77      1836.
     179.77     182.17      1853.
     182.17     184.57      1867.
     184.57     186.97      1816.
     186.97     189.36      1747.
     189.36     191.76      1736.
     191.76     194.16      1759.
     194.16     196.55      1732.
     196.55     198.95      1705.
     198.95     201.35      1732.
     201.35     203.74      1712.
     203.74     206.14      1734.
     206.14     208.54      1632.
     208.54     210.94      1668.
     210.94     213.33      1792.
     213.33     215.73      1727.
     215.73     218.13      1621.
     218.13     220.52      1672.
     220.52     222.92      1778.
     222.92     225.32      1726.
     225.32     227.71      1768.
     227.71     230.11      1883.
     230.11     232.51      1766.
     232.51     234.91      1903.
     234.91     237.30      1720.
     237.30     239.70      2043.
     239.70     242.10      1968.
     242.10     244.49      1932.
     244.49     246.89      2019.
     246.89     249.29      1992.
     249.29     251.68      1922.
     251.68     254.08      2089.
     254.08     256.48      1993.
     256.48     258.88      2128.
     258.88     261.27      1980.
     261.27     263.67      2136.
     263.67     266.07      2048.
     266.07     268.46      2055.
     268.46     270.86      1921.
     270.86     273.26      1949.
     273.26     275.65      1938.
     275.65     278.05      1880.
     278.05     280.45      1672.
     280.45     282.85      1828.
     282.85     285.24      1767.
     285.24     287.64      1480.
     287.64     290.04      1752.
     290.04     292.43      1827.
     292.43     294.83      1760.
     294.83     297.23      1629.
     297.23     299.63      1758.
     299.63     302.02      1719.
     302.02     304.42      1903.
     304.42     306.82      1876.
     306.82     309.21      1781.
     309.21     311.61      1682.
     311.61     314.01      1653.
     314.01     316.40      1719.
     316.40     318.80      1690.
     318.80     321.20      1654.
     321.20     323.59      1657.
     323.59     325.99      1602.
     325.99     328.39      1824.
     328.39     330.79      1762.
     330.79     333.18      1878.
     333.18     335.58      1890.
     335.58     337.98      1796.
     337.98     340.37      1779.
     340.37     342.77      1829.
     342.77     345.17      1809.
     345.17     347.56      1818.
     347.56     349.96      1620.
     349.96     352.36      1675.
     352.36     354.76      1715.
     354.76     357.15      1593.
     357.15     359.55      1720.
     359.55     361.95      1817.
     361.95     364.34      1722.
     364.34     366.74      1754.
     366.74     369.14      1792.
     369.14     371.53      1811.
     371.53     373.93      1926.
     373.93     376.33      1849.
     376.33     378.73      1888.
     378.73     381.12      1690.
     381.12     383.52      1602.
     383.52     385.92      1648.
     385.92     388.31      1604.
     388.31     390.71      1497.
     390.71     393.11      1492.
     393.11     395.50      1394.
     395.50     397.90      1425.
     397.90     400.30      1461.
     400.30     402.70      1439.
     402.70     405.09      1414.
     405.09     407.49      1424.
     407.49     409.89      1296.
     409.89     412.28      1318.
     412.28     414.68      1365.
     414.68     417.08      1273.
     417.08     419.47      1320.
     419.47     421.87      1338.
     421.87     424.27      1200.
     424.27     426.67      1238.
     426.67     429.06      1128.
     429.06     431.46      1200.
     431.46     433.86      1020.
     433.86     436.25      1108.
     436.25     438.65      1171.
     438.65     441.05      1179.
     441.05     443.44      1201.
     443.44     445.84      1291.
     445.84     448.24      1160.
     448.24     450.64      1128.
     450.64     453.03      1199.
     453.03     455.43      1261.
     455.43     457.83      1267.
     457.83     460.22      1203.
     460.22     462.62      1222.
     462.62     465.02      1137.
     465.02     467.41      1179.
     467.41     469.81      1263.
     469.81     472.21      1181.
     472.21     474.61      1199.
     474.61     477.00      1152.
     477.00     479.40      1173.
     479.40     481.80      1170.
     481.80     484.19      1212.
     484.19     486.59      1236.
     486.59     488.99      1201.
     488.99     491.38      1214.
     491.38     493.78      1078.
     493.78     496.18      1177.
     496.18     498.58      1129.
     498.58     500.97      1157.
     500.97     503.37      1064.
     503.37     505.77      1105.
     505.77     508.16      1133.
     508.16     510.56      1145.
     510.56     512.96      1106.
     512.96     515.35       930.
     515.35     517.75       999.
     517.75     520.15       944.
     520.15     522.55       891.
     522.55     524.94       877.
     524.94     527.34       862.
     527.34     529.74       826.
     529.74     532.13       888.
     532.13     534.53       893.
     534.53     536.93       917.
     536.93     539.32       942.
     539.32     541.72       853.
     541.72     544.12       906.
     544.12     546.52       950.
     546.52     548.91      1109.
     548.91     551.31       998.
     551.31     553.71      1041.
     553.71     556.10       952.
     556.10     558.50       969.
     558.50     560.90       885.
     560.90     563.29      1002.
     563.29     565.69      1003.
     565.69     568.09       909.
     568.09     570.49       939.
     570.49     572.88       902.
     572.88     575.28       917.
     575.28     577.68       950.
     577.68     580.07       966.
     580.07     582.47       888.
     582.47     584.87       835.
     584.87     587.26       863.
     587.26     589.66       861.
     589.66     592.06       945.
     592.06     594.46       868.
     594.46     596.85       887.
     596.85     599.25       876.
     599.25     601.65       910.
     601.65     604.04       905.
     604.04     606.44       789.
     606.44     608.84       925.
     608.84     611.23       867.
     611.23     613.63       843.
     613.63     616.03       894.
     616.03     618.43       901.
     618.43     620.82       845.
     620.82     623.22       804.
     623.22     625.62       795.
     625.62     628.01       744.
     628.01     630.41       808.
     630.41     632.81       873.
     632.81     635.20       779.
     635.20     637.60       841.
     637.60     640.00       854.
     640.00     642.40       762.
     642.40     644.79       749.
     644.79     647.19       844.
     647.19     649.59       735.
     649.59     651.98       883.
     651.98     654.38       873.
     654.38     656.78       789.
     656.78     659.17       782.
     659.17     661.57       882.
     661.57     663.97       824.
     663.97     666.37       820.
     666.37     668.76       826.
     668.76     671.16       829.
     671.16     673.56       907.
     673.56     675.95       800.
     675.95     678.35       840.
     678.35     680.75       804.
     680.75     683.14       882.
     683.14     685.54       798.
     685.54     687.94       863.
     687.94     690.34       732.
     690.34     692.73       807.
     692.73     695.13       918.
     695.13     697.53       758.
     697.53     699.92       770.
     699.92     702.32       839.
     702.32     704.72       774.
     704.72     707.11       764.
     707.11     709.51       734.
     709.51     711.91       739.
     711.91     714.31       769.
     714.31     716.70       652.
     716.70     719.10       760.
     719.10     721.50       765.
     721.50     723.89       791.
     723.89     726.29       710.
     726.29     728.69       758.
     728.69     731.08       820.
     731.08     733.48       767.
     733.48     735.88       782.
     735.88     738.28       747.
     738.28     740.67       791.
     740.67     743.07       850.
     743.07     745.47       760.
     745.47     747.86       790.
     747.86     750.26       707.
     750.26     752.66       784.
     752.66     755.05       719.
     755.05     757.45       756.
     757.45     759.85       629.
     759.85     762.25       677.
     762.25     764.64       608.
     764.64     767.04       703.
     767.04     769.44       667.
     769.44     771.83       748.
     771.83     774.23       624.
     774.23     776.63       584.
     776.63     779.02       621.
     779.02     781.42       672.
     781.42     783.82       581.
     783.82     786.22       625.
     786.22     788.61       571.
     788.61     791.01       662.
     791.01     793.41       556.
     793.41     795.80       575.
     795.80     798.20       538.
     798.20     800.60       619.
     800.60     802.99       641.
     802.99     805.39       528.
     805.39     807.79       557.
     807.79     810.19       517.
     810.19     812.58       440.
     812.58     814.98       521.
     814.98     817.38       605.
     817.38     819.77       525.
     819.77     822.17       547.
     822.17     824.57       492.
     824.57     826.96       562.
     826.96     829.36       598.
     829.36     831.76       540.
     831.76     834.16       588.
     834.16     836.55       702.
     836.55     838.95       680.
     838.95     841.35       606.
     841.35     843.74       525.
     843.74     846.14       610.
     846.14     848.54       566.
     848.54     850.93       562.
     850.93     853.33       481.
     853.33     855.73       522.
     855.73     858.13       478.
     858.13     860.52       456.
     860.52     862.92       456.
     862.92     865.32       507.
     865.32     867.71       559.
     867.71     870.11       437.
     870.11     872.51       467.
     872.51     874.90       463.
     874.90     877.30       492.
     877.30     879.70       537.
     879.70     882.10       401.
     882.10     884.49       452.
     884.49     886.89       452.
     886.89     889.29       434.
     889.29     891.68       481.
     891.68     894.08       485.
     894.08     896.48       463.
     896.48     898.87       551.
     898.87     901.27       456.
     901.27     903.67       489.
     903.67     906.07       437.
     906.07     908.46       441.
     908.46     910.86       452.
     910.86     913.26       474.
     913.26     915.65       478.
     915.65     918.05       533.
     918.05     920.45       445.
     920.45     922.84       441.
     922.84     925.24       404.
     925.24     927.64       423.
     927.64     930.04       493.
     930.04     932.43       415.
     932.43     934.83       404.
     934.83     937.23       448.
     937.23     939.62       467.
     939.62     942.02       526.
     942.02     944.42       393.
     944.42     946.81       448.
     946.81     949.21       393.
     949.21     951.61       456.
     951.61     954.01       412.
     954.01     956.40       463.
     956.40     958.80       423.
     958.80     961.20       393.
     961.20     963.59       323.
     963.59     965.99       448.
     965.99     968.39       404.
     968.39     970.78       408.
     970.78     973.18       423.
     973.18     975.58       412.
     975.58     977.98       463.
     977.98     980.37       356.
     980.37     982.77       415.
     982.77     985.17       441.
     985.17     987.56       448.
     987.56     989.96       412.
     989.96     992.36       412.
     992.36     994.75       375.
     994.75     997.15       390.
     997.15     999.55       364.
     999.55    1001.95       353.
    1001.95    1004.34       338.
    1004.34    1006.74       342.
    1006.74    1009.14       316.
    1009.14    1011.53       419.
    1011.53    1013.93       305.
    1013.93    1016.33       371.
    1016.33    1018.72       283.
    1018.72    1021.12       320.
    1021.12    1023.52       316.
    1023.52    1025.92       356.
    1025.92    1028.31       309.
    1028.31    1030.71       356.
    1030.71    1033.11       364.
    1033.11    1035.50       345.
    1035.50    1037.90       316.
    1037.90    1040.30       375.
    1040.30    1042.69       345.
    1042.69    1045.09       345.
    1045.09    1047.49       312.
    1047.49    1049.89       309.
    1049.89    1052.28       242.
    1052.28    1054.68       294.
    1054.68    1057.08       342.
    1057.08    1059.47       213.
    1059.47    1061.87       261.
    1061.87    1064.27       309.
    1064.27    1066.66       283.
    1066.66    1069.06       264.
    1069.06    1071.46       301.
    1071.46    1073.86       275.
    1073.86    1076.25       298.
    1076.25    1078.65       309.
    1078.65    1081.05       253.
    1081.05    1083.44       268.
    1083.44    1085.84       275.
    1085.84    1088.24       312.
    1088.24    1090.63       220.
    1090.63    1093.03       287.
    1093.03    1095.43       239.
    1095.43    1097.83       309.
    1097.83    1100.22       287.
    1100.22    1102.62       279.
    1102.62    1105.02       301.
    1105.02    1107.41       264.
    1107.41    1109.81       242.
    1109.81    1112.21       309.
    1112.21    1114.60       290.
    1114.60    1117.00       316.
    1117.00    1119.40       375.
    1119.40    1121.80       294.
    1121.80    1124.19       290.
    1124.19    1126.59       320.
    1126.59    1128.99       268.
    1128.99    1131.38       301.
    1131.38    1133.78       279.
    1133.78    1136.18       268.
    1136.18    1138.57       331.
    1138.57    1140.97       338.
    1140.97    1143.37       272.
    1143.37    1145.77       268.
    1145.77    1148.16       264.
    1148.16    1150.56       257.
    1150.56    1152.96       298.
    1152.96    1155.35       261.
    1155.35    1157.75       239.
    1157.75    1160.15       242.
    1160.15    1162.54       253.
    1162.54    1164.94       257.
    1164.94    1167.34       261.
    1167.34    1169.74       305.
    1169.74    1172.13       257.
    1172.13    1174.53       217.
    1174.53    1176.93       235.
    1176.93    1179.32       257.
    1179.32    1181.72       198.
    1181.72    1184.12       209.
    1184.12    1186.51       228.
    1186.51    1188.91       250.
    1188.91    1191.31       235.
    1191.31    1193.71       231.
    1193.71    1196.10       246.
    1196.10    1198.50       191.
    1198.50    1200.90       191.
    1200.90    1203.29       202.
    1203.29    1205.69       209.
    1205.69    1208.09       183.
    1208.09    1210.48       180.
    1210.48    1212.88       231.
    1212.88    1215.28       180.
    1215.28    1217.68       206.
    1217.68    1220.07       209.
    1220.07    1222.47       139.
    1222.47    1224.87       169.
    1224.87    1227.26       191.
    1227.26    1229.66       191.
    1229.66    1232.06       139.
    1232.06    1234.45       169.
    1234.45    1236.85       143.
    1236.85    1239.25       161.
    1239.25    1241.65       139.
    1241.65    1244.04       165.
    1244.04    1246.44       125.
    1246.44    1248.84       143.
    1248.84    1251.23       161.
    1251.23    1253.63       139.
    1253.63    1256.03       125.
    1256.03    1258.42       150.
    1258.42    1260.82       206.
    1260.82    1263.22       110.
    1263.22    1265.62       172.
    1265.62    1268.01       132.
    1268.01    1270.41       139.
    1270.41    1272.81       150.
    1272.81    1275.20       125.
    1275.20    1277.60       143.
    1277.60    1280.00       110.
    1280.00    1282.39       183.
    1282.39    1284.79       154.
    1284.79    1287.19       114.
    1287.19    1289.59       165.
    1289.59    1291.98       147.
    1291.98    1294.38       139.
    1294.38    1296.78       125.
    1296.78    1299.17       136.
    1299.17    1301.57       158.
    1301.57    1303.97       147.
    1303.97    1306.36       161.
    1306.36    1308.76       139.
    1308.76    1311.16       136.
    1311.16    1313.56        99.
    1313.56    1315.95       165.
    1315.95    1318.35       154.
    1318.35    1320.75       136.
    1320.75    1323.14       117.
    1323.14    1325.54       132.
    1325.54    1327.94       180.
    1327.94    1330.33       136.
    1330.33    1332.73       125.
    1332.73    1335.13       114.
    1335.13    1337.53       132.
    1337.53    1339.92       132.
    1339.92    1342.32       132.
    1342.32    1344.72        99.
    1344.72    1347.11       143.
    1347.11    1349.51       132.
    1349.51    1351.91       110.
    1351.91    1354.30       158.
    1354.30    1356.70        95.
    1356.70    1359.10       117.
    1359.10    1361.50       106.
    1361.50    1363.89       150.
    1363.89    1366.29       106.
    1366.29    1368.69       128.
    1368.69    1371.08       143.
    1371.08    1373.48       183.
    1373.48    1375.88       117.
    1375.88    1378.27       125.
    1378.27    1380.67        95.
    1380.67    1383.07       132.
    1383.07    1385.47       128.
    1385.47    1387.86       117.
    1387.86    1390.26       147.
    1390.26    1392.66       128.
    1392.66    1395.05        88.
    1395.05    1397.45       125.
    1397.45    1399.85       110.
    1399.85    1402.24       114.
    1402.24    1404.64       110.
    1404.64    1407.04       110.
    1407.04    1409.44       136.
    1409.44    1411.83       110.
    1411.83    1414.23       114.
    1414.23    1416.63        99.
    1416.63    1419.02       147.
    1419.02    1421.42       132.
    1421.42    1423.82       132.
    1423.82    1426.21       136.
    1426.21    1428.61       110.
    1428.61    1431.01        99.
    1431.01    1433.41       114.
    1433.41    1435.80        88.
    1435.80    1438.20        91.
    1438.20    1440.60       143.
    1440.60    1442.99       103.
    1442.99    1445.39       132.
    1445.39    1447.79       132.
    1447.79    1450.18       132.
    1450.18    1452.58        95.
    1452.58    1454.98       106.
    1454.98    1457.38       114.
    1457.38    1459.77        91.
    1459.77    1462.17        73.
    1462.17    1464.57        69.
    1464.57    1466.96        77.
    1466.96    1469.36        80.
    1469.36    1471.76        95.
    1471.76    1474.15       103.
    1474.15    1476.55        88.
    1476.55    1478.95        77.
    1478.95    1481.35       103.
    1481.35    1483.74        91.
    1483.74    1486.14        88.
    1486.14    1488.54        73.
    1488.54    1490.93        69.
    1490.93    1493.33        69.
    1493.33    1495.73        77.
    1495.73    1498.12        91.
    1498.12    1500.52        91.
    1500.52    1502.92        73.
    1502.92    1505.32        73.
    1505.32    1507.71        99.
    1507.71    1510.11        73.
    1510.11    1512.51        84.
    1512.51    1514.90        62.
    1514.90    1517.30        73.
    1517.30    1519.70        69.
    1519.70    1522.09        77.
    1522.09    1524.49        51.
    1524.49    1526.89        77.
    1526.89    1529.29        69.
    1529.29    1531.68        51.
    1531.68    1534.08       103.
    1534.08    1536.48        47.
    1536.48    1538.87        69.
    1538.87    1541.27        62.
    1541.27    1543.67        36.
    1543.67    1546.06        69.
    1546.06    1548.46        84.
    1548.46    1550.86        58.
    1550.86    1553.26        47.
    1553.26    1555.65        62.
    1555.65    1558.05       121.
    1558.05    1560.45        58.
    1560.45    1562.84        55.
    1562.84    1565.24        77.
    1565.24    1567.64        69.
    1567.64    1570.03        91.
    1570.03    1572.43        80.
    1572.43    1574.83        66.
    1574.83    1577.23        77.
    1577.23    1579.62        36.
    1579.62    1582.02        66.
    1582.02    1584.42        47.
    1584.42    1586.81        47.
    1586.81    1589.21        62.
    1589.21    1591.61        69.
    1591.61    1594.00        55.
    1594.00    1596.40        91.
    1596.40    1598.80        69.
    1598.80    1601.20        62.
    1601.20    1603.59        77.
    1603.59    1605.99        84.
    1605.99    1608.39        62.
    1608.39    1610.78        84.
    1610.78    1613.18        40.
    1613.18    1615.58        62.
    1615.58    1617.97        58.
    1617.97    1620.37        69.
    1620.37    1622.77        58.
    1622.77    1625.17        47.
    1625.17    1627.56        69.
    1627.56    1629.96        47.
    1629.96    1632.36        66.
    1632.36    1634.75        51.
    1634.75    1637.15        58.
    1637.15    1639.55        66.
    1639.55    1641.94        44.
    1641.94    1644.34        66.
    1644.34    1646.74        62.
    1646.74    1649.14        62.
    1649.14    1651.53        51.
    1651.53    1653.93        69.
    1653.93    1656.33        91.
    1656.33    1658.72        58.
    1658.72    1661.12        22.
    1661.12    1663.52        73.
    1663.52    1665.91        58.
    1665.91    1668.31        44.
    1668.31    1670.71        55.
    1670.71    1673.11        40.
    1673.11    1675.50        40.
    1675.50    1677.90        77.
    1677.90    1680.30        25.
    1680.30    1682.69        62.
    1682.69    1685.09        40.
    1685.09    1687.49        55.
    1687.49    1689.88        14.
    1689.88    1692.28        55.
    1692.28    1694.68        51.
    1694.68    1697.08        73.
    1697.08    1699.47        36.
    1699.47    1701.87        51.
    1701.87    1704.27        47.
    1704.27    1706.66        66.
    1706.66    1709.06        55.
    1709.06    1711.46        18.
    1711.46    1713.85        44.
    1713.85    1716.25        33.
    1716.25    1718.65        40.
    1718.65    1721.05        55.
    1721.05    1723.44        44.
    1723.44    1725.84        36.
    1725.84    1728.24        44.
    1728.24    1730.63        22.
    1730.63    1733.03        62.
    1733.03    1735.43        29.
    1735.43    1737.82        29.
    1737.82    1740.22        40.
    1740.22    1742.62        25.
    1742.62    1745.02        36.
    1745.02    1747.41        36.
    1747.41    1749.81        36.
    1749.81    1752.21        40.
    1752.21    1754.60        55.
    1754.60    1757.00        51.
    1757.00    1759.40        58.
    1759.40    1761.79        40.
    1761.79    1764.19        40.
    1764.19    1766.59        40.
    1766.59    1768.99        33.
    1768.99    1771.38        62.
    1771.38    1773.78        58.
    1773.78    1776.18        44.
    1776.18    1778.57        40.
    1778.57    1780.97        33.
    1780.97    1783.37        40.
    1783.37    1785.76        33.
    1785.76    1788.16        40.
    1788.16    1790.56        44.
    1790.56    1792.96        25.
    1792.96    1795.35        40.
    1795.35    1797.75        58.
    1797.75    1800.15        51.
    1800.15    1802.54        51.
    1802.54    1804.94        44.
    1804.94    1807.34        47.
    1807.34    1809.73        36.
    1809.73    1812.13        25.
    1812.13    1814.53        77.
    1814.53    1816.93        36.
    1816.93    1819.32        29.
    1819.32    1821.72        40.
    1821.72    1824.12        55.
    1824.12    1826.51        47.
    1826.51    1828.91        22.
    1828.91    1831.31        40.
    1831.31    1833.70        44.
    1833.70    1836.10        40.
    1836.10    1838.50        47.
    1838.50    1840.90        51.
    1840.90    1843.29        51.
    1843.29    1845.69        47.
    1845.69    1848.09        55.
    1848.09    1850.48        36.
    1850.48    1852.88        29.
    1852.88    1855.28        25.
    1855.28    1857.67        29.
    1857.67    1860.07        22.
    1860.07    1862.47        29.
    1862.47    1864.87        29.
    1864.87    1867.26        14.
    1867.26    1869.66        29.
    1869.66    1872.06        36.
    1872.06    1874.45        44.
    1874.45    1876.85        29.
    1876.85    1879.25        22.
    1879.25    1881.64        29.
    1881.64    1884.04        33.
    1884.04    1886.44        14.
    1886.44    1888.84        36.
    1888.84    1891.23        36.
    1891.23    1893.63        44.
    1893.63    1896.03        14.
    1896.03    1898.42         7.
    1898.42    1900.82        40.
    1900.82    1903.22        14.
    1903.22    1905.61        18.
    1905.61    1908.01        40.
    1908.01    1910.41        25.
    1910.41    1912.81        36.
    1912.81    1915.20        29.
    1915.20    1917.60        25.
    1917.60    1920.00        25.
    1920.00    1922.39        44.
    1922.39    1924.79        33.
    1924.79    1927.19        29.
    1927.19    1929.58        44.
    1929.58    1931.98        22.
    1931.98    1934.38        29.
    1934.38    1936.78        14.
    1936.78    1939.17        33.
    1939.17    1941.57        22.
    1941.57    1943.97        25.
    1943.97    1946.36        33.
    1946.36    1948.76        55.
    1948.76    1951.16        33.
    1951.16    1953.55        25.
    1953.55    1955.95        22.
    1955.95    1958.35        22.
    1958.35    1960.75        29.
    1960.75    1963.14        25.
    1963.14    1965.54        29.
    1965.54    1967.94        29.
    1967.94    1970.33        25.
    1970.33    1972.73        33.
    1972.73    1975.13        25.
    1975.13    1977.52        18.
    1977.52    1979.92        25.
    1979.92    1982.32        11.
    1982.32    1984.72        44.
    1984.72    1987.11        29.
    1987.11    1989.51        14.
    1989.51    1991.91        33.
    1991.91    1994.30        14.
    1994.30    1996.70        14.
    1996.70    1999.10         7.
    1999.10    2001.49        14.
    2001.49    2003.89        18.
    2003.89    2006.29        33.
    2006.29    2008.69        18.
    2008.69    2011.08         7.
    2011.08    2013.48        11.
    2013.48    2015.88        29.
    2015.88    2018.27        18.
    2018.27    2020.67        14.
    2020.67    2023.07        14.
    2023.07    2025.46        14.
    2025.46    2027.86        22.
    2027.86    2030.26        18.
    2030.26    2032.66        11.
    2032.66    2035.05        29.
    2035.05    2037.45        29.
    2037.45    2039.85        18.
    2039.85    2042.24        25.
    2042.24    2044.64        25.
    2044.64    2047.04        36.
    2047.04    2049.43        22.
    2049.43    2051.83        25.
    2051.83    2054.23        22.
    2054.23    2056.63        40.
    2056.63    2059.02        11.
    2059.02    2061.42        33.
    2061.42    2063.82        14.
    2063.82    2066.21        18.
    2066.21    2068.61        11.
    2068.61    2071.01         7.
    2071.01    2073.40        18.
    2073.40    2075.80        25.
    2075.80    2078.20        18.
    2078.20    2080.60        18.
    2080.60    2082.99        11.
    2082.99    2085.39        22.
    2085.39    2087.79        14.
    2087.79    2090.18        14.
    2090.18    2092.58        33.
    2092.58    2094.98        18.
    2094.98    2097.38        14.
    2097.38    2099.77        22.
    2099.77    2102.17        29.
    2102.17    2104.57        22.
    2104.57    2106.96        14.
    2106.96    2109.36        11.
    2109.36    2111.76        25.
    2111.76    2114.15        14.
    2114.15    2116.55        18.
    2116.55    2118.95        25.
    2118.95    2121.35        22.
    2121.35    2123.74        18.
    2123.74    2126.14        25.
    2126.14    2128.54        25.
    2128.54    2130.93        14.
    2130.93    2133.33        18.
    2133.33    2135.73        22.
    2135.73    2138.12         7.
    2138.12    2140.52        33.
    2140.52    2142.92        22.
    2142.92    2145.31        29.
    2145.31    2147.71        22.
    2147.71    2150.11        18.
    2150.11    2152.51         7.
    2152.51    2154.90        25.
    2154.90    2157.30        18.
    2157.30    2159.70         3.
    2159.70    2162.09        14.
    2162.09    2164.49         3.
    2164.49    2166.89        14.
    2166.89    2169.28        18.
    2169.28    2171.68        18.
    2171.68    2174.08        14.
    2174.08    2176.48         3.
    2176.48    2178.87        14.
    2178.87    2181.27        22.
    2181.27    2183.67        14.
    2183.67    2186.06        36.
    2186.06    2188.46        14.
    2188.46    2190.86        25.
    2190.86    2193.25        11.
    2193.25    2195.65        11.
    2195.65    2198.05        14.
    2198.05    2200.45        14.
    2200.45    2202.84         7.
    2202.84    2205.24        11.
    2205.24    2207.64        11.
    2207.64    2210.03         7.
    2210.03    2212.43        22.
    2212.43    2214.83         0.
    2214.83    2217.22        11.
    2217.22    2219.62        18.
    2219.62    2222.02         7.
    2222.02    2224.42         3.
    2224.42    2226.81        11.
    2226.81    2229.21        11.
    2229.21    2231.61        22.
    2231.61    2234.00         3.
    2234.00    2236.40         7.
    2236.40    2238.80        11.
    2238.80    2241.19        14.
    2241.19    2243.59        18.
    2243.59    2245.99        11.
    2245.99    2248.39        14.
    2248.39    2250.78        14.
    2250.78    2253.18         0.
    2253.18    2255.58         7.
    2255.58    2257.97        22.
    2257.97    2260.37         0.
    2260.37    2262.77         3.
    2262.77    2265.16         7.
    2265.16    2267.56        36.
    2267.56    2269.96        11.
    2269.96    2272.36        11.
    2272.36    2274.75         7.
    2274.75    2277.15        11.
    2277.15    2279.55        18.
    2279.55    2281.94        22.
    2281.94    2284.34         7.
    2284.34    2286.74         7.
    2286.74    2289.13        22.
    2289.13    2291.53         3.
    2291.53    2293.93        18.
    2293.93    2296.33         7.
    2296.33    2298.72         7.
    2298.72    2301.12        14.
    2301.12    2303.52         3.
    2303.52    2305.91        14.
    2305.91    2308.31        22.
    2308.31    2310.71        14.
    2310.71    2313.10        11.
    2313.10    2315.50         0.
    2315.50    2317.90        25.
    2317.90    2320.30         7.
    2320.30    2322.69         7.
    2322.69    2325.09        11.
    2325.09    2327.49        11.
    2327.49    2329.88        11.
    2329.88    2332.28        11.
    2332.28    2334.68         3.
    2334.68    2337.07        14.
    2337.07    2339.47         7.
    2339.47    2341.87        11.
    2341.87    2344.27         7.
    2344.27    2346.66        22.
    2346.66    2349.06         7.
    2349.06    2351.46        11.
    2351.46    2353.85        11.
    2353.85    2356.25        18.
    2356.25    2358.65         3.
    2358.65    2361.04         7.
    2361.04    2363.44        11.
    2363.44    2365.84         7.
    2365.84    2368.24         0.
    2368.24    2370.63        11.
    2370.63    2373.03         3.
    2373.03    2375.43        11.
    2375.43    2377.82         0.
    2377.82    2380.22        14.
    2380.22    2382.62        11.
    2382.62    2385.01         3.
    2385.01    2387.41         7.
    2387.41    2389.81         7.
    2389.81    2392.21         7.
    2392.21    2394.60        14.
    2394.60    2397.00         3.
    2397.00    2399.40        14.
    2399.40    2401.79        11.
    2401.79    2404.19         0.
    2404.19    2406.59         3.
    2406.59    2408.98         7.
    2408.98    2411.38         7.
    2411.38    2413.78        11.
    2413.78    2416.18         7.
    2416.18    2418.57         7.
    2418.57    2420.97         3.
    2420.97    2423.37         7.
    2423.37    2425.76         7.
    2425.76    2428.16         0.
    2428.16    2430.56         3.
    2430.56    2432.95         7.
    2432.95    2435.35         7.
    2435.35    2437.75         7.
    2437.75    2440.15        11.
    2440.15    2442.54        18.
    2442.54    2444.94         3.
    2444.94    2447.34         0.
    2447.34    2449.73         3.
    2449.73    2452.13         0.
    2452.13    2454.53        11.
    2454.53    2456.92         7.
    2456.92    2459.32        14.
    2459.32    2461.72        14.
    2461.72    2464.12         7.
    2464.12    2466.51         0.
    2466.51    2468.91         0.
    2468.91    2471.31        14.
    2471.31    2473.70         3.
    2473.70    2476.10         0.
    2476.10    2478.50        14.
    2478.50    2480.89         7.
    2480.89    2483.29         0.
    2483.29    2485.69         7.
    2485.69    2488.09        14.
    2488.09    2490.48        22.
    2490.48    2492.88         3.
    2492.88    2495.28         3.
    2495.28    2497.67        18.
    2497.67    2500.07         3.
    2500.07    2502.47         3.
    2502.47    2504.86         7.
    2504.86    2507.26         3.
    2507.26    2509.66        11.
    2509.66    2512.06        18.
    2512.06    2514.45         3.
    2514.45    2516.85         0.
    2516.85    2519.25         3.
    2519.25    2521.64        11.
    2521.64    2524.04        11.
    2524.04    2526.44        11.
    2526.44    2528.83        14.
    2528.83    2531.23         7.
    2531.23    2533.63         3.
    2533.63    2536.03         0.
    2536.03    2538.42         7.
    2538.42    2540.82         7.
    2540.82    2543.22         7.
    2543.22    2545.61         7.
    2545.61    2548.01         3.
    2548.01    2550.41        11.
    2550.41    2552.80        14.
    2552.80    2555.20        11.
    2555.20    2557.60         0.
    2557.60    2560.00         0.
    2560.00    2562.39         3.
    2562.39    2564.79         7.
    2564.79    2567.19         7.
    2567.19    2569.58         0.
    2569.58    2571.98         0.
    2571.98    2574.38         0.
    2574.38    2576.77         3.
    2576.77    2579.17         3.
    2579.17    2581.57         7.
    2581.57    2583.97         0.
    2583.97    2586.36         3.
    2586.36    2588.76        14.
    2588.76    2591.16         3.
    2591.16    2593.55         3.
    2593.55    2595.95         0.
    2595.95    2598.35         3.
    2598.35    2600.74         3.
    2600.74    2603.14         0.
    2603.14    2605.54        14.
    2605.54    2607.94         7.
    2607.94    2610.33        14.
    2610.33    2612.73         3.
    2612.73    2615.13         0.
    2615.13    2617.52         0.
    2617.52    2619.92         7.
    2619.92    2622.32         0.
    2622.32    2624.71         0.
    2624.71    2627.11         3.
    2627.11    2629.51         3.
    2629.51    2631.91        11.
    2631.91    2634.30         3.
    2634.30    2636.70        11.
    2636.70    2639.10         0.
    2639.10    2641.49         3.
    2641.49    2643.89         7.
    2643.89    2646.29        14.
    2646.29    2648.68         7.
    2648.68    2651.08         7.
    2651.08    2653.48         3.
    2653.48    2655.88         3.
    2655.88    2658.27         0.
    2658.27    2660.67        18.
    2660.67    2663.07         7.
    2663.07    2665.46         0.
    2665.46    2667.86         0.
    2667.86    2670.26         0.
    2670.26    2672.65         0.
    2672.65    2675.05         0.
    2675.05    2677.45         3.
    2677.45    2679.85         3.
    2679.85    2682.24         0.
    2682.24    2684.64         0.
    2684.64    2687.04         7.
    2687.04    2689.43         0.
    2689.43    2691.83        11.
    2691.83    2694.23        11.
    2694.23    2696.62        11.
    2696.62    2699.02         7.
    2699.02    2701.42         7.
    2701.42    2703.82         7.
    2703.82    2706.21         0.
    2706.21    2708.61         7.
    2708.61    2711.01         7.
    2711.01    2713.40        14.
    2713.40    2715.80         7.
    2715.80    2718.20         7.
    2718.20    2720.59         0.
    2720.59    2722.99         3.
    2722.99    2725.39         7.
    2725.39    2727.79         7.
    2727.79    2730.18         0.
    2730.18    2732.58         0.
    2732.58    2734.98         3.
    2734.98    2737.37         0.
    2737.37    2739.77         0.
    2739.77    2742.17        14.
    2742.17    2744.56         0.
    2744.56    2746.96         3.
    2746.96    2749.36         3.
    2749.36    2751.76         3.
    2751.76    2754.15         3.
    2754.15    2756.55         7.
    2756.55    2758.95        14.
    2758.95    2761.34         7.
    2761.34    2763.74         3.
    2763.74    2766.14         7.
    2766.14    2768.53         0.
    2768.53    2770.93         3.
    2770.93    2773.33         7.
    2773.33    2775.73         3.
    2775.73    2778.12         3.
    2778.12    2780.52        11.
    2780.52    2782.92         0.
    2782.92    2785.31        11.
    2785.31    2787.71         3.
    2787.71    2790.11         7.
    2790.11    2792.50         7.
    2792.50    2794.90         3.
    2794.90    2797.30         3.
    2797.30    2799.70         3.
    2799.70    2802.09         3.
    2802.09    2804.49         3.
    2804.49    2806.89         3.
    2806.89    2809.28         3.
    2809.28    2811.68         0.
    2811.68    2814.08         3.
    2814.08    2816.47         3.
    2816.47    2818.87         7.
    2818.87    2821.27         3.
    2821.27    2823.67         7.
    2823.67    2826.06         3.
    2826.06    2828.46         3.
    2828.46    2830.86         3.
    2830.86    2833.25         7.
    2833.25    2835.65         0.
    2835.65    2838.05         0.
    2838.05    2840.44         3.
    2840.44    2842.84         3.
    2842.84    2845.24         3.
    2845.24    2847.64         0.
    2847.64    2850.03         3.
    2850.03    2852.43         3.
    2852.43    2854.83        11.
    2854.83    2857.22         0.
    2857.22    2859.62         7.
    2859.62    2862.02         0.
    2862.02    2864.41         0.
    2864.41    2866.81         0.
    2866.81    2869.21         3.
    2869.21    2871.61         3.
    2871.61    2874.00         7.
    2874.00    2876.40         0.
    2876.40    2878.80         3.
    2878.80    2881.19         0.
    2881.19    2883.59         3.
    2883.59    2885.99         3.
    2885.99    2888.38         3.
    2888.38    2890.78         3.
    2890.78    2893.18        11.
    2893.18    2895.58         0.
    2895.58    2897.97         3.
    2897.97    2900.37         0.
    2900.37    2902.77         3.
    2902.77    2905.16         0.
    2905.16    2907.56         0.
    2907.56    2909.96         0.
    2909.96    2912.35         7.
    2912.35    2914.75         0.
    2914.75    2917.15         3.
    2917.15    2919.55         3.
    2919.55    2921.94         3.
    2921.94    2924.34         7.
    2924.34    2926.74         3.
    2926.74    2929.13         3.
    2929.13    2931.53         3.
    2931.53    2933.93         0.
    2933.93    2936.32         7.
    2936.32    2938.72         0.
    2938.72    2941.12         0.
    2941.12    2943.52         0.
    2943.52    2945.91         0.
    2945.91    2948.31         3.
    2948.31    2950.71         7.
    2950.71    2953.10         3.
    2953.10    2955.50         0.
    2955.50    2957.90         3.
    2957.90    2960.29         7.
    2960.29    2962.69         0.
    2962.69    2965.09         3.
    2965.09    2967.49         0.
    2967.49    2969.88         3.
    2969.88    2972.28         3.
    2972.28    2974.68         3.
    2974.68    2977.07         3.
    2977.07    2979.47         3.
    2979.47    2981.87         0.
    2981.87    2984.26         0.
    2984.26    2986.66         0.
    2986.66    2989.06         0.
    2989.06    2991.46         7.
    2991.46    2993.85         7.
    2993.85    2996.25         3.
    2996.25    2998.65         3.
    2998.65    3001.04         0.
    3001.04    3003.44         3.
    3003.44    3005.84         7.
    3005.84    3008.23         7.
    3008.23    3010.63         3.
    3010.63    3013.03         0.
    3013.03    3015.43         0.
    3015.43    3017.82         0.
    3017.82    3020.22         0.
    3020.22    3022.62         0.
    3022.62    3025.01         0.
    3025.01    3027.41         3.
    3027.41    3029.81         3.
    3029.81    3032.20         3.
    3032.20    3034.60         7.
    3034.60    3037.00         0.
    3037.00    3039.40         0.
    3039.40    3041.79         3.
    3041.79    3044.19         3.
    3044.19    3046.59         3.
    3046.59    3048.98         0.
    3048.98    3051.38         0.
    3051.38    3053.78         3.
    3053.78    3056.17         0.
    3056.17    3058.57         3.
    3058.57    3060.97         3.
    3060.97    3063.37         0.
    3063.37    3065.76         3.
    3065.76    3068.16         3.
    3068.16    3070.56         0.
    3070.56    3072.95         3.
    3072.95    3075.35         0.
    3075.35    3077.75         0.
    3077.75    3080.14         0.
    3080.14    3082.54         0.
    3082.54    3084.94         0.
    3084.94    3087.34         0.
    3087.34    3089.73         3.
    3089.73    3092.13         0.
    3092.13    3094.53         0.
    3094.53    3096.92         0.
    3096.92    3099.32         7.
    3099.32    3101.72         0.
    3101.72    3104.11         0.
    3104.11    3106.51         0.
    3106.51    3108.91         0.
    3108.91    3111.31         7.
    3111.31    3113.70         3.
    3113.70    3116.10         3.
ENDDATA           1302
ENDSUBENT         1319
ENDENTRY             2
