ENTRY            10499   20040114   20040406
SUBENT        10499001   20040114   20040406
BIB                 12         18
INSTITUTE  (1USACOL,1USAALB)
REFERENCE  (J,PR/C,10,2147,197412)
AUTHOR     (U.N.Singh,H.I.Liou,J.Rainwater,G.Hacken,J.B.Garg)
TITLE      Neutron resonance spectroscopy: Fluorine
FACILITY   (SYNCH,1USACOL) Nevis synchrocyclotron
SAMPLE     High purity teflon (CF2) of varying thicknesses
METHOD     (TOF) Time-of-flight
DETECTOR   (SCIN) Plastic scintillators for self-indication
                  measurements
           (NAICR) Sodium-iodide crystals viewing boron slab
CORRECTION Data corrected for dead-time and carbon in sample
ERR-ANALYS (DATA-ERR) No information on source.on uncertainties.
STATUS     (APRVD) Approved by author
            Total cross section received in private comm., Singh,
            1975/4.
HISTORY    (19750428C)
           (19830620A) Converted to REACTION formalism
           (20040114A) Converted to new date formats, lower case.
ENDBIB              18
NOCOMMON             0          0
ENDSUBENT           21
SUBENT        10499002   20040114   20040406
BIB                  3          5
REACTION  1(9-F-19(N,0),,EN)
          2(9-F-19(N,EL),,WID)
          3(9-F-19(N,0),,J)
ANALYSIS   (MLA) R-matrix multi-level analysis
STATUS     Data taken from reference text.
ENDBIB               5
COMMON               1          3
MOMENTUM L
NO-DIM
1.
ENDCOMMON            3
DATA                 4          3
DATA      1DATA      2DATA-ERR  2DATA      3
KEV        KEV        KEV        NO-DIM
26.99       0.325     0.020      2.
48.78       1.67      0.10       1.
97.50      14.5       0.8        1.
ENDDATA              5
ENDSUBENT           19
SUBENT        10499003   20040114   20040406
BIB                  3          3
REACTION   (9-F-19(N,TOT),,SIG)
INC-SPECT  Data taken with iron filter
STATUS     Data taken from Table I in reference.
ENDBIB               3
NOCOMMON             0          0
DATA                 2          7
EN         DATA
KEV        B
 70.2      3.89
 80.5      5.02
 81.8      5.59
127.7      5.87
136.3      4.91
167.6      4.18
183.2      4.03
ENDDATA              9
ENDSUBENT           17
SUBENT        10499004   20040114   20040406
BIB                  3          3
REACTION   (9-F-19(N,TOT),,SIG)
INC-SPECT  Data taken with cobalt filter
STATUS     Data taken from Table I in reference.
ENDBIB               3
NOCOMMON             0          0
DATA                 2          9
EN         DATA
KEV        B
 7.79      3.64
10.4       3.72
13.1       3.65
15.2       3.63
20.3       3.72
20.9       3.71
29.7       4.20
34.5       3.63
52.8       4.62
ENDDATA             11
ENDSUBENT           19
SUBENT        10499005   20040114   20040406
BIB                  3          3
REACTION   (9-F-19(N,TOT),,SIG)
INC-SPECT  Data taken with copper filter
STATUS     Data taken from Table I in reference.
ENDBIB               3
NOCOMMON             0          0
DATA                 2         11
EN         DATA
KEV        B
 0.542     3.71
 1.79      3.76
 2.43      3.75
 3.70      3.72
 5.20      3.84
 6.25      3.76
 9.64      3.72
10.6       3.81
12.9       3.70
17.2       3.80
22.4       3.64
ENDDATA             13
ENDSUBENT           21
SUBENT        10499006   20040114   20040406
BIB                  3          4
REACTION   (9-F-19(N,TOT),,SIG)
INC-SPECT  Unfiltered beam results
STATUS     Data received in private communication, U.N.Singh,
            1975/4/24.
ENDBIB               4
NOCOMMON             0          0
DATA                 2        297
EN         DATA
EV         B
   568.413   3.70
   867.143   3.76
  1128.182   3.82
  1384.949   3.83
  1616.153   3.82
  1910.481   3.82
  2293.196   3.81
  2803.584   3.81
  3505.450   3.82
  4508.078   3.80
  4939.590   3.82
  5436.152   3.73
  6011.535   3.87
  6683.355   3.81
  7474.406   3.79
  8414.719   3.77
  9544.293   3.75
 10428.609   3.61
 10917.590   3.62
 11441.773   3.59
 12004.633   3.67
 12610.078   3.60
 13262.520   3.63
 13966.930   3.67
 14728.984   3.60
 15555.141   3.58
 16452.828   3.64
 17430.516   3.62
 18498.016   3.64
 19666.680   3.61
 20080.910   3.62
 20508.391   3.59
 20949.668   3.57
 21405.355   3.56
 21876.047   3.63
 22362.434   3.49
 22865.254   3.68
 23385.191   3.60
 23923.090   3.81
 24479.762   3.88
 25056.102   4.36
 25653.027   5.39
 26062.902   7.10
 26132.156   7.54
 26201.695   8.40
 26271.516   9.42
 26341.625  10.35
 26412.020  11.95
 26482.668  14.36
 26553.609  17.96
 26624.875  24.48
 26696.379  31.20
 26768.191  41.23
 26840.293  54.22
 26912.676  77.76
 26985.359  93.36
 27033.980 103.09
 27058.340  88.50
 27131.625  68.11
 27205.191  46.70
 27279.074  33.78
 27353.250  23.45
 27427.711  20.53
 27502.512  15.32
 27577.598  12.86
 27652.977  11.44
 27728.699   9.50
 27804.723   8.72
 27881.027   8.00
 27957.691   7.34
 28267.441   5.70
 28503.156   5.32
 28741.836   4.98
 28983.531   4.64
 29228.262   4.40
 29476.125   4.27
 29727.152   4.31
 29981.395   4.08
 30238.910   3.79
 30499.785   4.00
 30764.020   3.87
 31031.727   3.87
 31302.938   4.03
 31577.699   3.82
 31856.094   3.76
 32138.227   3.85
 32424.070   3.85
 32713.777   3.78
 33007.363   3.68
 33304.941   3.61
 33606.570   3.81
 33912.305   3.86
 34222.227   3.61
 34536.406   3.72
 34854.918   3.76
 35177.895   3.73
 35505.363   3.78
 35837.441   3.85
 36174.176   3.56
 36515.688   3.67
 36862.086   4.00
 37213.395   3.82
 37569.754   3.97
 37931.297   3.98
 38298.047   3.94
 38670.148   4.17
 39047.727   3.85
 39430.816   4.01
 39819.855   3.98
 40214.145   4.13
 40614.586   4.18
 41021.063   4.21
 41433.652   4.19
 41852.492   4.21
 42277.727   4.48
 42709.477   4.69
 43147.887   4.87
 43593.051   5.02
 44045.145   5.17
 44197.406   5.45
 44350.480   5.43
 44504.340   5.56
 44658.965   5.30
 44814.441   5.68
 44970.703   6.05
 45127.816   5.85
 45285.727   6.30
 45444.465   5.74
 45604.059   6.46
 45764.484   6.88
 45925.754   6.77
 46087.895   7.76
 46250.875   8.03
 46414.727   8.85
 46579.473   9.22
 46745.063   9.92
 46911.574  10.96
 47078.941  12.38
 47247.211  13.54
 47416.406  14.72
 47586.516  18.43
 47757.516  20.47
 47929.430  25.01
 48102.316  27.01
 48276.129  31.62
 48450.855  34.37
 48626.543  38.37
 48803.223  43.85
 48980.828  40.09
 49159.402  36.49
 49338.980  32.48
 49519.535  28.30
 49701.066  22.02
 49883.613  19.52
 50067.188  14.69
 50251.750  12.76
 50437.336  11.06
 50623.961   9.78
 50811.609   8.51
 51000.313   7.60
 51190.090   7.21
 51380.879   6.73
 51572.797   5.86
 51765.766   5.73
 51959.785   5.61
 52351.152   5.09
 52946.523   4.56
 53552.184   4.08
 54168.270   4.00
 54795.063   3.72
 55432.766   3.68
 56081.684   3.52
 56742.070   3.62
 57414.188   3.50
 58098.352   3.49
 58794.750   3.36
 59503.809   3.40
 60225.758   3.50
 60960.859   3.47
 61709.586   3.51
 62472.145   3.40
 63248.938   3.54
 64040.305   3.50
 64846.617   3.44
 65668.250   3.58
 66505.625   3.60
 67359.125   3.74
 68229.125   3.73
 69116.063   3.78
 70020.438   3.65
 70942.688   3.83
 71883.313   3.82
 72842.750   3.94
 73821.500   4.06
 74820.188   4.12
 75839.188   4.33
 76879.188   4.55
 77940.688   4.62
 79024.375   4.81
 80130.813   5.10
 81260.625   5.46
 82027.188   5.26
 82414.563   5.19
 82804.625   5.92
 83197.500   5.92
 83593.188   6.10
 83991.625   6.25
 84393.000   7.04
 84797.313   6.56
 85204.438   7.10
 85614.563   6.94
 86027.625   7.04
 86443.688   7.70
 86862.750   8.27
 87284.875   8.43
 87710.125   8.49
 88138.438   8.69
 88569.938   8.80
 89004.625   9.85
 89442.500  10.87
 89883.563  10.64
 90328.000  12.00
 90775.625  12.82
 91226.688  13.46
 91681.063  14.35
 92138.875  16.24
 92600.063  16.33
 93064.813  18.00
 93533.000  18.54
 94004.813  19.70
 94480.063  20.42
 94959.063  21.46
 95441.625  21.88
 95927.938  22.81
 96417.938  23.63
 96911.688  23.93
 97409.250  24.31
 97910.750  23.73
 98416.000  23.55
 98925.250  23.14
 99438.375  22.89
 99955.625  21.89
100476.875  21.42
101002.125  20.28
101531.625  19.99
102065.313  18.86
102603.125  18.24
103145.188  17.35
103691.563  16.01
104242.438  15.69
104797.563  14.86
105357.188  13.86
105921.313  13.00
106490.000  12.44
107063.125  11.79
107641.125  11.70
108223.625  11.09
108810.938  10.66
109403.125  10.04
110000.000   9.57
110601.938   9.36
111208.750   8.91
111820.563   8.43
112437.438   8.32
113059.375   7.88
113686.563   7.99
114319.063   7.23
114956.688   7.64
115599.688   7.33
117561.625   6.89
119573.813   6.61
121638.250   6.52
123756.438   6.21
125930.563   6.28
128162.438   5.95
130454.188   5.38
132808.000   5.12
135226.063   4.92
137710.813   4.94
140264.625   4.98
142890.063   4.68
145590.063   4.52
148367.250   4.57
151224.750   4.35
154165.500   4.47
157192.875   4.12
160310.438   4.25
163521.563   4.22
166830.063   4.14
170240.000   4.17
173755.750   4.12
177381.438   4.12
181121.813   4.11
184981.750   4.05
188966.500   4.18
193081.313   4.31
197331.875   4.43
ENDDATA            299
ENDSUBENT          308
SUBENT        10499007   20040114   20040406
BIB                  2          2
REACTION   (9-F-19(N,EL),,STF)
STATUS     Data taken from reference text.
ENDBIB               2
NOCOMMON             0          0
DATA                 6          1
EN-MIN     EN-MAX     DATA       +DATA-ERR  -DATA-ERR  MOMENTUM L
KEV        KEV        NO-DIM     NO-DIM     NO-DIM     NO-DIM
0.         200.          11.1E-04   12.4E-04    5.2E-04 1.
ENDDATA              3
ENDSUBENT           10
ENDENTRY             7
