ENTRY            22154   19910103              20050926       0000
SUBENT        22154001   19910103              20050926       0000
BIB                 11         35
REFERENCE  (P,NEANDC(J)-140,42,8908)
           (J,ANE,15,381,88) EXPERIMENTAL DETAILS.
           (J,NIM/A,287,570,90) DETAILS OF BGO SCINTILLATOR AND
            USE AS A RESONANCE CAPTURE DETECTOR (SUBENTRIES 3 AND
            4), SEE ALSO EXFOR 22153.
TITLE      -NEUTRON TOTAL CROSS SECTION OF SB.
AUTHOR     (K.KOBAYASHI,S.YAMAMOTO,S.M.LEE,Y.FUJITA,I.KIMURA,
            S.KANAZAWA)
INSTITUTE  (2JPNKTO)
           (3INDKAL) S.M.L.
FACILITY   (LINAC,2JPNKTO) THE 46 MEV ELECTRON LINAC AT THE
            RESEARCH REACTOR INSTITUTE OF KYOTO UNIVERSITY, OPER-
            ATED AT A FREQUENCY OF 240 - 250 PULSES/SEC.
INC-SOURCE (PHOTO) BURSTS OF NEUTRONS WERE PRODUCED FROM THE
            WATER-COOLED PHOTONEUTRON TARGET, WHICH WERE MADE OF
            SEVERAL SHEETS OF TA PLATES, 5 CM BY 5 CM SQUARE WITH
            AN EFFECTIVE TOTAL THICKNESS OF ABOUT 3.5 CM. THE TAR-
            GET WAS PLACED IN THE CENTER OF AN OCTAGONAL WATER
            TANK, 30 CM IN DIAMETER AND 8 CM THICK, TO MODERATE
            THE NEUTRON ENERGIES. A 7 CM DIAMETER BY 20 CM THICK
            PB BLOCK WAS PLACED IN THE FLIGHT PATH TO SUPPRESS THE
            PROMPT GAMMA-FLASH. THE NEUTRONS WERE COLLIMATED TO A
            4 CM DIAMETER AT THE SAMPLE POSITION BY B4C AND PB
            COLLIMATORS. OVERLAP OF THERMAL NEUTRONS FROM THE
            PREVIOUS PULSES WAS SUPPRESSED USING A 0.5 MM CD
            FILTER IN THE NEUTRON BEAM.
SAMPLE     .SIX SAMPLE THICKNESSES OF POWDERED NATURAL SB WITH A
            PURITY OF 99.9%, PACKED IN A CYLINDRICAL ACRYL CASE
            WITH AL WINDOWS.
CORRECTION .THE DATA WERE CORRECTED FOR DEAD-TIME LOSSES AND BACK-
            GROUND.
ERR-ANALYS (DATA-ERR) NO DETAILS GIVEN.
STATUS     (PRELM) DATA OBTAINED FROM K.KOBAYASHI.
HISTORY    (901001C) S.W.
           (910103E)
ENDBIB              35
NOCOMMON             0          0
ENDSUBENT           38
SUBENT        22154002   19910103              20050926       0000
BIB                  6         12
REACTION  1(51-SB-0(N,TOT),,SIG)
          2(51-SB-0(N,TOT),,SIG)
COMMENT   1.EXPERIMENTAL RUN NO.1
          2.EXPERIMENTAL RUN NO.2
METHOD     (TOF  ) TIME-OF-FLIGHT TRANSMISSION MEASUREMENT WITH A
            FLIGHT PATH OF 22.2 M. THE TOF DATA WERE SUMMED EVERY
            0.1 LETHARGY UNIT.
DETECTOR   (GLASD) A 6-LITHIUM-LOADED GLASS SCINTILLATOR OF 12.7
            CM DIAMETER BY 1.27 CM THICK, MOUNTED ON A PM-TUBE.
STATUS     (PRELM) DATA OBTAINED FROM K.KOBAYASHI.
HISTORY    (901001C) S.W.
           (910103E)
ENDBIB              12
NOCOMMON             0          0
DATA                 6         64
EN-MIN     EN-MAX     DATA      1DATA-ERR  1DATA      2DATA-ERR  2
EV         EV         B          B          B          B
 2.7441E+06 3.0327E+06 5.1571E+00 1.0227E-01
 2.4829E+06 2.7441E+06 5.2752E+00 9.5153E-02 5.1555E+00 1.4574E-01
 2.2466E+06 2.4829E+06 5.6119E+00 6.1589E-02 5.5691E+00 7.2896E-02
 2.0328E+06 2.2466E+06 5.6438E+00 5.6343E-02 5.5653E+00 9.8118E-02
 1.8394E+06 2.0328E+06 5.8629E+00 5.8705E-02 5.8307E+00 7.8477E-02
 1.6644E+06 1.8394E+06 5.9509E+00 5.0338E-02 6.0258E+00 8.6875E-02
 1.5060E+06 1.6644E+06 6.2261E+00 4.7533E-02 6.1231E+00 6.6514E-02
 1.3627E+06 1.5060E+06 6.2717E+00 5.3159E-02 6.1895E+00 7.4072E-02
 1.2330E+06 1.3627E+06 6.4409E+00 5.3153E-02 6.4269E+00 5.8218E-02
 1.1157E+06 1.2330E+06 6.5427E+00 5.8743E-02 6.4989E+00 6.7232E-02
 1.0095E+06 1.1157E+06 6.5019E+00 5.2296E-02 6.4899E+00 6.4431E-02
 9.1342E+05 1.0095E+06 6.5256E+00 5.4697E-02 6.4781E+00 6.7222E-02
 8.2650E+05 9.1342E+05 6.5439E+00 5.6297E-02 6.5643E+00 6.7218E-02
 7.4784E+05 8.2650E+05 6.5201E+00 5.8731E-02 6.5247E+00 5.6013E-02
 6.7668E+05 7.4784E+05 6.5913E+00 6.4287E-02 6.5018E+00 6.1611E-02
 6.1228E+05 6.7668E+05 6.5203E+00 6.1420E-02 6.5377E+00 7.0004E-02
 5.5402E+05 6.1228E+05 6.5692E+00 5.8691E-02 6.5485E+00 6.7201E-02
 5.0130E+05 5.5402E+05 6.4851E+00 4.6318E-02 6.4904E+00 6.7197E-02
 4.5359E+05 5.0130E+05 6.4625E+00 4.0610E-02 6.4321E+00 6.1524E-02
 4.1043E+05 4.5359E+05 6.3989E+00 5.0110E-02 6.4587E+00 6.6960E-02
 3.7137E+05 4.1043E+05 6.3496E+00 6.1415E-02 6.4300E+00 5.5910E-02
 3.3603E+05 3.7137E+05 6.3623E+00 5.8697E-02 6.4072E+00 4.9165E-02
 3.0405E+05 3.3603E+05 6.2601E+00 4.9918E-02 6.2917E+00 6.6690E-02
 2.7512E+05 3.0405E+05 6.2708E+00 4.5277E-02 6.2254E+00 6.3989E-02
 2.4894E+05 2.7512E+05 6.2228E+00 4.4453E-02 6.1890E+00 6.9615E-02
 2.2525E+05 2.4894E+05 6.1905E+00 5.5586E-02 6.1799E+00 7.5253E-02
 2.0381E+05 2.2525E+05 6.2634E+00 6.9585E-02 6.2483E+00 7.2506E-02
 1.8442E+05 2.0381E+05 6.2527E+00 6.9631E-02 6.3388E+00 6.9763E-02
 1.6687E+05 1.8442E+05 6.2804E+00 8.3648E-02 6.3843E+00 6.4220E-02
 1.5099E+05 1.6687E+05 6.2881E+00 9.2064E-02 6.2228E+00 1.0896E-01
 1.3662E+05 1.5099E+05 6.1759E+00 1.0469E-01 6.1585E+00 1.2299E-01
 1.2362E+05 1.3662E+05 6.2473E+00 1.1167E-01 6.2701E+00 1.2864E-01
 1.1185E+05 1.2362E+05 6.1509E+00 1.2633E-01 6.1773E+00 1.3709E-01
 1.0121E+05 1.1185E+05 6.2695E+00 1.2576E-01 6.0925E+00 1.1475E-01
 9.1579E+04 1.0121E+05 6.2054E+00 1.0897E-01 6.1495E+00 1.9594E-01
 8.2864E+04 9.1579E+04 6.2012E+00 1.2298E-01 5.9617E+00 1.8750E-01
 7.4978E+04 8.2864E+04 6.1580E+00 1.0079E-01 6.0424E+00 1.5955E-01
 6.7843E+04 7.4978E+04 6.2660E+00 1.4534E-01 6.2240E+00 1.9873E-01
 6.1387E+04 6.7843E+04 6.2282E+00 1.3412E-01 6.0782E+00 1.8193E-01
 5.5545E+04 6.1387E+04 6.3584E+00 1.4126E-01 6.1422E+00 2.2951E-01
 5.0259E+04 5.5545E+04 5.9073E+00 1.6048E-01 6.0243E+00 1.8631E-01
 4.5477E+04 5.0259E+04 6.0794E+00 1.5092E-01 6.2451E+00 2.0710E-01
 4.1149E+04 4.5477E+04 6.2176E+00 1.6206E-01 5.9368E+00 2.0713E-01
 3.7233E+04 4.1149E+04 6.1829E+00 1.5367E-01 6.1574E+00 2.4068E-01
 3.3690E+04 3.7233E+04 6.3185E+00 1.4244E-01 6.2606E+00 2.0989E-01
 3.0484E+04 3.3690E+04 6.1159E+00 1.5092E-01 6.1258E+00 2.0427E-01
 2.7583E+04 3.0484E+04 6.0561E+00 1.6051E-01 6.1338E+00 1.9869E-01
 2.4958E+04 2.7583E+04 6.1527E+00 1.5766E-01 5.9235E+00 2.0149E-01
 2.2583E+04 2.4958E+04 6.0786E+00 1.8558E-01 5.8336E+00 2.0145E-01
 2.0434E+04 2.2583E+04 6.1755E+00 1.7195E-01 6.1438E+00 2.0708E-01
 1.8489E+04 2.0434E+04 5.9701E+00 1.8161E-01 6.2694E+00 1.9305E-01
 1.6730E+04 1.8489E+04 6.1559E+00 1.8040E-01 5.9361E+00 1.9588E-01
 1.5138E+04 1.6730E+04 6.1019E+00 1.8720E-01 6.0729E+00 2.0940E-01
 1.3697E+04 1.5138E+04 6.0392E+00 2.0109E-01 6.2097E+00 2.4344E-01
 1.2394E+04 1.3697E+04 6.0743E+00 2.0113E-01 6.1451E+00 2.5180E-01
 1.1214E+04 1.2394E+04 5.8555E+00 1.8157E-01 5.9993E+00 2.0424E-01
 1.0147E+04 1.1214E+04 6.0024E+00 1.9556E-01 5.9430E+00 1.9586E-01
 9.1816E+03 1.0147E+04 5.9958E+00 1.1100E-01 5.9425E+00 1.4612E-01
 8.3078E+03 9.1816E+03 6.4846E+00 1.2840E-01 6.1466E+00 1.3368E-01
 7.5172E+03 8.3078E+03 5.7750E+00 1.1961E-01 5.8381E+00 1.2031E-01
 6.8019E+03 7.5172E+03 5.7543E+00 1.1923E-01 5.6424E+00 1.2012E-01
 6.1546E+03 6.8019E+03 6.0779E+00 1.3933E-01 6.2277E+00 1.3768E-01
 5.5689E+03 6.1546E+03 6.3715E+00 1.4605E-01 6.1408E+00 1.4169E-01
 5.0390E+03 5.5689E+03 5.9768E+00 1.3043E-01 5.6942E+00 1.2992E-01
ENDDATA             66
ENDSUBENT           83
SUBENT        22154003   19910103              20050926       0000
BIB                  5          9
REACTION   (51-SB-0(N,TOT),,SIG)
            ENERGIES BELOW 10 EV.
METHOD     (TOF  ) TIME-OF-FLIGHT TRANSMISSION MEASUREMENT WITH A
            FLIGHT PATH OF 12.7 M. THE TOF DATA WERE SUMMED EVERY
            0.1 LETHARGY UNIT.
DETECTOR   (SCIN ) BGO SCINTILLATOR WITH A 10-B PLUG.
STATUS     (PRELM) DATA OBTAINED FROM K.KOBAYASHI.
HISTORY    (901001C) S.W.
           (910103E)
ENDBIB               9
NOCOMMON             0          0
DATA                 4         66
EN-MIN     EN-MAX     DATA       DATA-ERR
EV         EV         B          B
 9.0484E+00 1.0000E+01 5.2238E+00 3.5328E-02
 8.1873E+00 9.0484E+00 5.7525E+00 3.6589E-02
 7.4082E+00 8.1873E+00 7.4589E+00 3.8900E-02
 6.7032E+00 7.4082E+00 1.5661E+01 4.6122E-02
 6.0653E+00 6.7032E+00 5.7521E+01 2.9115E-02
 5.4881E+00 6.0653E+00 2.1352E+01 5.9482E-02
 4.9659E+00 5.4881E+00 9.0018E+00 4.0553E-02
 4.4933E+00 4.9659E+00 6.4899E+00 3.5811E-02
 4.0657E+00 4.4933E+00 5.6898E+00 3.9737E-02
 3.6788E+00 4.0657E+00 5.2900E+00 3.6748E-02
 3.3287E+00 3.6788E+00 5.0631E+00 3.7446E-02
 3.0119E+00 3.3287E+00 5.0292E+00 3.5364E-02
 2.7253E+00 3.0119E+00 4.9181E+00 3.6344E-02
 2.4660E+00 2.7253E+00 4.8349E+00 3.7229E-02
 2.2313E+00 2.4660E+00 4.8098E+00 3.8207E-02
 2.0190E+00 2.2313E+00 4.8422E+00 3.6624E-02
 1.8268E+00 2.0190E+00 4.8956E+00 3.5550E-02
 1.6530E+00 1.8268E+00 4.9132E+00 3.6596E-02
 1.4957E+00 1.6530E+00 4.8832E+00 3.7643E-02
 1.3534E+00 1.4957E+00 4.8618E+00 3.6766E-02
 1.2246E+00 1.3534E+00 4.9251E+00 3.7846E-02
 1.1080E+00 1.2246E+00 4.9379E+00 3.7274E-02
 1.0026E+00 1.1080E+00 4.9190E+00 3.8521E-02
 9.0718E-01 1.0026E+00 5.0086E+00 3.8278E-02
 8.2085E-01 9.0718E-01 5.0042E+00 3.9720E-02
 7.4274E-01 8.2085E-01 5.0390E+00 3.9780E-02
 6.7206E-01 7.4274E-01 5.0349E+00 4.0228E-02
 6.0810E-01 6.7206E-01 5.0882E+00 4.1105E-02
 5.5023E-01 6.0810E-01 5.1772E+00 4.3629E-02
 4.9787E-01 5.5023E-01 5.1595E+00 4.5323E-02
 4.5049E-01 4.9787E-01 5.3780E+00 4.6988E-02
 4.0762E-01 4.5049E-01 5.1923E+00 4.8868E-02
 3.6883E-01 4.0762E-01 5.2692E+00 5.1696E-02
 3.3373E-01 3.6883E-01 5.2711E+00 5.0895E-02
 3.0197E-01 3.3373E-01 5.4504E+00 5.1460E-02
 2.7324E-01 3.0197E-01 5.3959E+00 5.2669E-02
 2.4724E-01 2.7324E-01 5.5249E+00 5.0980E-02
 2.2371E-01 2.4724E-01 5.6781E+00 4.9783E-02
 2.0242E-01 2.2371E-01 5.7033E+00 4.7771E-02
 1.8316E-01 2.0242E-01 5.8163E+00 4.3987E-02
 1.6573E-01 1.8316E-01 5.9546E+00 4.0688E-02
 1.4996E-01 1.6573E-01 6.1686E+00 3.7641E-02
 1.3569E-01 1.4996E-01 6.2184E+00 3.4433E-02
 1.2277E-01 1.3569E-01 6.2836E+00 3.2091E-02
 1.1109E-01 1.2277E-01 6.4280E+00 2.9831E-02
 1.0052E-01 1.1109E-01 6.6365E+00 2.8249E-02
 9.0953E-02 1.0052E-01 6.6622E+00 2.7344E-02
 8.2298E-02 9.0953E-02 6.8079E+00 2.6184E-02
 7.4466E-02 8.2298E-02 6.9894E+00 2.6092E-02
 6.7380E-02 7.4466E-02 7.1741E+00 2.5693E-02
 6.0958E-02 6.7380E-02 7.2835E+00 2.5927E-02
 5.5166E-02 6.0958E-02 7.4207E+00 2.6429E-02
 4.9916E-02 5.5166E-02 7.6033E+00 2.6931E-02
 4.5166E-02 4.9916E-02 7.7496E+00 2.8102E-02
 4.0868E-02 4.5166E-02 7.9806E+00 2.9185E-02
 3.6979E-02 4.0868E-02 8.8051E+00 3.0654E-02
 3.3460E-02 3.6979E-02 8.2449E+00 3.2381E-02
 3.0276E-02 3.3460E-02 8.5286E+00 3.4471E-02
 2.7395E-02 3.0276E-02 8.6548E+00 3.6798E-02
 2.4788E-02 2.7395E-02 8.8464E+00 3.9499E-02
 2.2429E-02 2.4788E-02 9.0436E+00 4.2262E-02
 2.0294E-02 2.2429E-02 9.3960E+00 4.6276E-02
 1.8363E-02 2.0294E-02 9.5272E+00 4.9771E-02
 1.6616E-02 1.8363E-02 9.5462E+00 5.4108E-02
 1.5034E-02 1.6616E-02 9.7964E+00 5.9631E-02
 1.3604E-02 1.5034E-02 1.0066E+01 6.4690E-02
ENDDATA             68
ENDSUBENT           82
SUBENT        22154004   19910103              20050926       0000
BIB                  6         14
REACTION   (51-SB-0(N,TOT),,SIG)
            SUPPLEMENTARY MEASUREMENTS AT 1.46 AND 4.91 EV.
METHOD     (TOF  ) TIME-OF-FLIGHT TRANSMISSION MEASUREMENT WITH A
            FLIGHT PATH OF 12.7 M.
DETECTOR   (SCIN ) A RESONANCE CAPTURE DETECTOR CONSISTING OF A
            BGO SCINTILLATOR USING EITHER IN OR AU CAPTURE SAMPLES
FLAG       (1.) AU CAPTURE SAMPLE.
           (2.) IN CAPTURE SAMPLE.
           .THE INDICATED INCIDENT ENERGY AND RESOLUTION CORRES-
            PONDS TO THE RESONANCE PEAK AND FWHM OF THE RESPECTIVE
            CAPTURE SAMPLE.
STATUS     (PRELM) DATA OBTAINED FROM K.KOBAYASHI.
HISTORY    (901001C) S.W.
           (910103E)
ENDBIB              14
NOCOMMON             0          0
DATA                 5          2
EN         EN-RSL-FW  DATA       DATA-ERR   FLAG
EV         EV         B          B          NO-DIM
 4.91       0.95       6.943      0.0298     1.
 1.46       0.27       4.830      0.0207     2.
ENDDATA              4
ENDSUBENT           23
ENDENTRY             4
