ENTRY            22194   20230517   20230928   20230915       2317
SUBENT        22194001   20230517   20230928   20230915       2317
BIB                 12         32
TITLE       Measurements of eta of 235-U for subthermal neutron
            energies
AUTHOR     (H.Weigmann,B.Keck,J.A.Wartena,P.Geltenbort,
            K.Schreckenbach)
REFERENCE  (C,90MARSEI,3,(PI),33,1990)
INSTITUTE  (2ZZZGEL) H.W., B.K., J.A.W
           (2FR ILL) P.G., K.S.
COMMENT     Data have been normalised to 2.075 at 25 milli-eV.
SAMPLE      'Black' metallic U sample of 4.59 g/cm2 inserted in
            cylindrical 6-Li sleeve to shield from out-of-time
            scattered neutrons.
DETECTOR   (SCIN) 5 cm diam and 5 cm thick NE213 liquid scinti-
            llator for detection of fission neutrons from sample.
METHOD     (PSD) To distinguish fission neutrons from gammas
CORRECTION *Count losses of all kinds, especially due to analyzer
            and PSD dead-times
           *Backgrounds
           *Incomplete absorption and scattering of incident slow
            neutrons in the U and B sample
           *Multiple scattering of the fission neutrons produced
            in the U sample
           *Self-absorption of the gammas in the B sample
ERR-ANALYS (ERR-S) Statistical error
           (ERR-1) Total systematic error. The data have been
            normalized to 2.075 at 25 milli-eV, therefore ERR-1
            goes to zero at this energy.
            In the figures of the main reference the error bars
            represent a linear addition of ERR-S and ERR-1.
STATUS     (TABLE) Data obtained from author on tape.
HISTORY    (19910719C) S.W.
           (20230517A) SD:Updated to new date formats,lower case.
           Corrections in all Subents.
ENDBIB              32
NOCOMMON             0          0
ENDSUBENT           35
SUBENT        22194002   20230517   20230928   20230915       2317
BIB                  9         24
REACTION   (92-U-235(N,ABS),,ETA)
FACILITY   (LINAC,2ZZZGEL) Electron linac, 40 Hz repetition rate
METHOD     (TOF) 8.8 m flight path
MONITOR    (5-B-10(N,A)3-LI-7,PAR,SIG,G)
INC-SOURCE (PHOTO) With liquid methane moderator as white source
            of subthermal neutrons. The beam was defined by a
            3.5 m collimation system also containing a 2 cm thick
            Be filter to reduce flux above 6.8 milli-eV.
SAMPLE      0.11 g/cm2 thick 10-B slab replaced the U sample for
            the precise flux measurement, inserted in 6-Li sleeve.
DETECTOR   (PROPC) Two parallel plate proportional counters used
            as flux monitors and located 80 cm upstream from the
            U sample. The first counter was as follows:
              1st run:  162 ug/cm2 6-LiF layer (95.65% 6-Li)
                        evaporated on 40 micron thick Al backing
              2nd run:  3.6 ug/cm2 10-B layer (90% 10-B)
                        evaporated on 40 micron thick Al backing
            and the second counter:
             both runs: 279 ug/cm2 uf4 (97.6% 235-U) evaporated
                        on Au coated 3.5 micron mylar foil.
           (SCIN) Gammas from the boron sample were detected
            with a hydrogen free C6F6 liquid scintillator.
STATUS     (TABLE) Data obtained from author on tape.
HISTORY    (20230517A) SD: Data units corrected.
ENDBIB              24
NOCOMMON             0          0
DATA                 4         73
EN         DATA       ERR-S      ERR-1
MILLI-EV   PRT/REAC   PRT/REAC   PRT/REAC
  1.80      2.018      0.015      0.131
  2.25      2.026      0.010      0.066
  2.75      2.024      0.007      0.033
  3.50      2.036      0.005      0.017
  4.50      2.045      0.004      0.009
  5.50      2.050      0.005      0.008
  6.50      2.052      0.006      0.007
  7.50      2.054      0.006      0.006
  8.50      2.062      0.006      0.005
  9.50      2.052      0.005      0.004
 11.00      2.059      0.004      0.003
 13.00      2.064      0.004      0.002
 15.00      2.071      0.003      0.002
 17.00      2.068      0.004      0.001
 19.00      2.071      0.004      0.001
 21.00      2.082      0.005      0.001
 23.00      2.066      0.005      0.000
 25.00      2.075      0.005      0.000
 27.00      2.071      0.006      0.000
 29.00      2.078      0.006      0.001
 31.00      2.080      0.006      0.001
 33.00      2.084      0.007      0.001
 35.00      2.080      0.007      0.001
 37.00      2.073      0.008      0.002
 39.00      2.089      0.011      0.002
 42.50      2.072      0.011      0.002
 47.50      2.092      0.012      0.003
 52.50      2.087      0.007      0.006
 57.50      2.092      0.008      0.012
 62.50      2.082      0.007      0.013
 67.50      2.089      0.008      0.013
 72.50      2.085      0.009      0.015
 77.50      2.082      0.009      0.016
 82.50      2.080      0.010      0.016
 87.50      2.074      0.010      0.017
 92.50      2.073      0.011      0.017
 97.50      2.086      0.011      0.017
105.00      2.065      0.008      0.016
115.00      2.063      0.009      0.016
125.00      2.057      0.009      0.016
135.00      2.058      0.009      0.016
145.00      2.050      0.010      0.016
155.00      2.044      0.010      0.016
165.00      2.035      0.011      0.016
175.00      2.027      0.011      0.016
185.00      2.021      0.011      0.016
195.00      2.016      0.011      0.016
205.00      2.000      0.012      0.016
215.00      1.989      0.012      0.016
225.00      1.995      0.012      0.016
235.00      1.975      0.013      0.016
245.00      1.966      0.013      0.016
255.00      1.969      0.013      0.016
265.00      1.962      0.014      0.016
275.00      1.956      0.014      0.016
285.00      1.967      0.014      0.016
295.00      1.985      0.014      0.016
305.00      1.997      0.015      0.016
315.00      2.031      0.016      0.016
325.00      2.046      0.016      0.016
335.00      2.074      0.017      0.017
345.00      2.087      0.017      0.017
355.00      2.110      0.018      0.017
365.00      2.115      0.018      0.017
375.00      2.132      0.019      0.017
385.00      2.139      0.019      0.018
395.00      2.146      0.020      0.018
405.00      2.159      0.020      0.018
415.00      2.160      0.021      0.018
425.00      2.138      0.020      0.018
435.00      2.146      0.022      0.018
445.00      2.130      0.022      0.018
455.00      2.135      0.022      0.018
ENDDATA             75
ENDSUBENT          104
SUBENT        22194003   20230517   20230928   20230915       2317
BIB                  8         19
REACTION   (92-U-235(N,ABS),,ETA)
FACILITY   (REAC,2FR ILL) High flux reactor
MONITOR    (48-CD-0(N,G),,SIG)
INC-SOURCE (REAC) Thermal neutron guide with double chopper
            set-up. The two choppers were separated by 2.9 m, and
            were run at slightly different speeds such that their
            relative phase and therefore en is varied continuously
SAMPLE      0.7 mm thick Cd 'black' capture sample replaced the
            U sample for the precise flux measurement, inserted in
            6-Li sleeve.
DETECTOR   (IOCH) Used as flux monitor, loaded with a
            175 ug/cm2 235-U sample (99% 235-U) deposited
            onto Au coated 3.5 micron mylar foil, and located
            65 cm upstream from the U sample.
           (COIN,SCIN,SCIN) Two hydrogen free C6F6 liquid
            scintillators to detect gammas from the Cd capture
            sample.
STATUS     (TABLE) Data obtained from author on tape.
HISTORY    (20230517A) SD: Data units corrected.
ENDBIB              19
NOCOMMON             0          0
DATA                 4         47
EN         DATA       ERR-S      ERR-1
MILLI-EV   PRT/REAC   PRT/REAC   PRT/REAC
  1.50      1.987      0.012      0.030
  1.80      2.024      0.012      0.025
  2.25      2.038      0.007      0.023
  2.75      2.042      0.003      0.021
  3.50      2.026      0.012      0.008
  4.50      2.031      0.012      0.007
  5.50      2.046      0.012      0.007
  6.50      2.056      0.011      0.006
  7.50      2.052      0.011      0.006
  8.50      2.070      0.009      0.006
  9.50      2.046      0.010      0.005
 11.00      2.056      0.006      0.005
 13.00      2.070      0.007      0.004
 15.00      2.057      0.006      0.003
 17.00      2.063      0.006      0.003
 19.00      2.082      0.007      0.002
 21.00      2.077      0.006      0.001
 23.00      2.083      0.008      0.000
 25.00      2.075      0.007      0.000
 27.00      2.068      0.007      0.001
 29.00      2.071      0.007      0.001
 31.00      2.082      0.009      0.002
 33.00      2.087      0.007      0.002
 35.00      2.072      0.009      0.002
 36.76      2.079      0.009      0.003
 38.50      2.077      0.009      0.003
 40.36      2.075      0.009      0.003
 42.35      2.103      0.009      0.004
 44.51      2.089      0.010      0.004
 46.82      2.108      0.010      0.004
 49.33      2.081      0.010      0.004
 52.04      2.088      0.011      0.004
 54.98      2.073      0.011      0.004
 58.18      2.093      0.011      0.004
 61.66      2.091      0.011      0.004
 65.47      2.099      0.011      0.004
 69.64      2.089      0.011      0.004
 74.23      2.103      0.011      0.005
 79.27      2.094      0.012      0.005
 84.86      2.094      0.012      0.005
 91.06      2.078      0.011      0.006
 97.96      2.089      0.011      0.006
105.67      2.073      0.012      0.006
114.34      2.070      0.011      0.008
124.11      2.068      0.013      0.011
135.20      2.067      0.015      0.018
147.83      2.042      0.018      0.029
ENDDATA             49
ENDSUBENT           73
ENDENTRY             3
