ENTRY            O1630   20080228   20080604   20080526       O035
SUBENT        O1630001   20080228   20080604   20080526       O035
BIB                 12         35
TITLE      Structure of Be-10 from the C-12(C-12,O-14)Be-10
           reaction.
AUTHOR     (H.G.Bohlen, T.Dorsch, Tz.Kokalova, W.von Oertzen,
           Ch.Schulz, C.Wheldon)
REFERENCE  (J,PR/C,75,054604,2007)
           (J,PR/C,68,054606,2003) it is O1627 and C-13(C-12,C-9)
            reaction
           (J,EPJ/A,31,279,2007) it is o1609 and C-12(C-12,C-9)
            reaction
           (J,PR/C,64,024312,2001) More details of experiment
           (J,NP/A,787,451,2007)
INSTITUTE  (2GERBER)
FACILITY   (ISOCY,2GERBER) the isochron cyclotron at ISL.
SAMPLE     The C-12 target, thickness 200-mug/cm**2 was used.
METHOD     (EDE)
           (TOF)
DETECTOR   (MAGSP) Q3D magnetic spectrograph at Hahn-Meitner-
            Institute.
            The reaction products were identified in the focal
            plane of the spectrograph in a detector system, which
            consists of a gas-fulled chamber, where the energy-
            loss(delta-E) and the position of the particles are
            measured and a scintillator bar behind it for the rest
            energy(E) and a fast timing signal to trigger the
            start of the time-of-flight measurement.
INC-SOURCE *EN-RSL-FW*.An overall energy resolution of 350 keV was
           obtained.
ADD-RES    (COMP).Coupled-reaction-channels calculations.
           Spectrum of the two-proton pick-up reaction
           C-12(C-12,O-14)Be-10 at E(lab)=211.4 MeV are shown in
           fig.2.
ERR-ANALYS (ERR-S).The error is reported by authors on fig.
           (ERR-DIG).Digitizing error of data.
           (ANG-ERR-D).Digitizing error of angle.
HISTORY    (20080228C) SB
ENDBIB              35
COMMON               4          3
EN         EN-RSL     ERR-DIG    ANG-ERR-D
MEV        KEV        PER-CENT   ADEG
211.4      350.       5.         0.11
ENDCOMMON            3
ENDSUBENT           42
SUBENT        O1630002   20080228   20080604   20080526       O035
BIB                  4         12
REACTION   (6-C-12(6-C-12,4-BE-10)8-O-14,PAR,DA)   fig 3 a-d,f,g
EN-SEC     (E-LVL,4-BE-10)
LEVEL-PROP (4-BE-10,E-LVL=0.000,SPIN=0.0,PARITY=+1.)
           (4-BE-10,E-LVL=3.370,SPIN=2.0,PARITY=+1.)
           (4-BE-10,E-LVL=5.960,SPIN=1.0,PARITY=-1.)
           (4-BE-10,E-LVL=7.370,SPIN=3.0,PARITY=-1.)
           (4-BE-10,E-LVL=10.50,SPIN=3.0,PARITY=-1.)
           (4-BE-10,E-LVL=11.80,SPIN=4.0,PARITY=+1.)
FLAG       (1.).The angular setting of the magnetic spectrograph
                at 3.5-degree.
           (2.).The angular setting of the magnetic spectrograph
                at 5.5-degree.
ENDBIB              12
NOCOMMON             0          0
DATA                 5        140
E-LVL      ANG-CM     DATA-CM    ERR-S      FLAG
MEV        ADEG       MU-B/SR    PER-CENT   NO-DIM
    0.00000    6.32000   49.60000               1.00000
    0.00000    6.79000   60.00000               1.00000
    0.00000    7.25000   72.00000               1.00000
    0.00000    7.64000   64.00000               1.00000
    0.00000    8.11000   53.80000               1.00000
    0.00000    8.50000   43.30000               1.00000
    0.00000    8.89000   31.20000               1.00000
    0.00000    9.28000   18.70000               1.00000
    0.00000    9.76000    6.70000               1.00000
    0.00000    9.83000   10.40000    6.00000    2.00000
    0.00000   10.15000    3.50000   17.00000    1.00000
    0.00000   10.47000    1.30000   23.00000    1.00000
    0.00000   10.47000    2.30000   13.00000    2.00000
    0.00000   10.93000    2.40000   17.00000    2.00000
    0.00000   10.94000    1.70000   18.00000    1.00000
    0.00000   11.39000    6.10000    8.00000    2.00000
    0.00000   11.40000    3.10000   16.00000    1.00000
    0.00000   11.78000    7.80000               1.00000
    0.00000   11.93000    9.10000               2.00000
    0.00000   12.24000   10.50000               1.00000
    0.00000   12.24000   13.10000               2.00000
    0.00000   12.63000   10.90000               1.00000
    0.00000   12.70000   13.60000               2.00000
    0.00000   13.09000   13.20000               2.00000
    0.00000   13.48000   13.20000               2.00000
    0.00000   13.95000   11.00000               2.00000
    0.00000   14.34000    9.50000               2.00000
    0.00000   14.73000    6.90000    6.00000    2.00000
    0.00000   15.12000    5.50000   13.00000    2.00000
    0.00000   15.59000    3.80000   18.00000    2.00000
    0.00000   15.98000    2.70000   15.00000    2.00000
    0.00000   16.37000    1.70000   18.00000    2.00000
    0.00000   16.85000    0.74000   30.00000    2.00000
    3.37000    6.76000   31.40000               1.00000
    3.37000    7.15000   33.90000               1.00000
    3.37000    7.62000   26.30000               1.00000
    3.37000    8.01000   24.50000               1.00000
    3.37000    8.47000   17.70000               1.00000
    3.37000    8.87000   12.80000               1.00000
    3.37000    9.26000    8.30000               1.00000
    3.37000    9.65000    5.00000   10.00000    1.00000
    3.37000   10.05000    2.90000   17.00000    1.00000
    3.37000   10.44000    2.20000   18.00000    1.00000
    3.37000   10.51000    3.40000   12.00000    2.00000
    3.37000   10.90000    2.40000   17.00000    1.00000
    3.37000   11.28000    4.10000   15.00000    1.00000
    3.37000   11.29000    3.00000   13.00000    2.00000
    3.37000   11.75000    2.80000   14.00000    1.00000
    3.37000   12.14000    5.70000   14.00000    1.00000
    3.37000   12.60000    4.60000   13.00000    1.00000
    3.37000   12.60000    5.47000               2.00000
    3.37000   12.91000    6.30000    8.00000    2.00000
    3.37000   13.38000    5.90000    7.00000    2.00000
    3.37000   13.84000    6.90000   12.00000    2.00000
    3.37000   14.23000    5.70000    7.00000    2.00000
    3.37000   14.62000    6.20000   10.00000    2.00000
    3.37000   15.09000    5.00000   14.00000    2.00000
    3.37000   15.56000    3.70000   11.00000    2.00000
    3.37000   15.95000    3.00000   13.00000    2.00000
    3.37000   16.34000    1.90000   16.00000    2.00000
    3.37000   16.73000    1.31000   21.00000    2.00000
    3.37000   17.20000    1.05000   23.00000    2.00000
    5.96000    6.34000    2.20000   18.00000    1.00000
    5.96000    7.12000    1.44000   19.00000    1.00000
    5.96000    7.67000    1.60000   19.00000    1.00000
    5.96000    8.22000    0.90000   24.00000    1.00000
    5.96000    8.84000    0.56000   29.00000    1.00000
    5.96000    9.46000    0.94000   24.00000    1.00000
    5.96000   10.08000    1.09000   22.00000    1.00000
    5.96000   10.39000    1.10000   20.00000    2.00000
    5.96000   10.77000    1.53000   16.00000    1.00000
    5.96000   11.01000    1.37000   15.00000    2.00000
    5.96000   11.47000    1.84000   12.00000    1.00000
    5.96000   11.55000    1.53000   10.00000    2.00000
    5.96000   12.09000    1.80000   17.00000    1.00000
    5.96000   12.25000    1.28000   16.00000    2.00000
    5.96000   12.64000    1.03000   22.00000    1.00000
    5.96000   12.87000    1.07000   15.00000    2.00000
    5.96000   13.42000    0.74000   28.00000    2.00000
    5.96000   14.05000    0.50000   26.00000    2.00000
    5.96000   14.67000    0.54000   28.00000    2.00000
    5.96000   15.28000    1.01000   24.00000    2.00000
    5.96000   15.98000    0.76000   24.00000    2.00000
    5.96000   16.60000    0.91000   21.00000    2.00000
    7.37000    7.04000    1.20000   16.00000    1.00000
    7.37000    7.71000    0.97000   21.00000    1.00000
    7.37000    8.40000    0.43000   30.00000    1.00000
    7.37000    8.98000    0.48000   30.00000    1.00000
    7.37000    9.72000    0.46000   30.00000    1.00000
    7.37000   10.46000    0.41000   30.00000    1.00000
    7.37000   10.92000    0.21000   40.00000    2.00000
    7.37000   11.18000    0.76000   22.00000    1.00000
    7.37000   11.58000    0.26000   30.00000    2.00000
    7.37000   11.94000    0.40000   40.00000    1.00000
    7.37000   12.30000    0.59000   24.00000    2.00000
    7.37000   12.60000    0.36000   30.00000    1.00000
    7.37000   13.04000    0.43000   30.00000    2.00000
    7.37000   13.35000    0.27000   40.00000    1.00000
    7.37000   13.80000    0.18000   40.00000    2.00000
    7.37000   14.46000    0.25000   40.00000    2.00000
    7.37000   15.12000    0.24000   30.00000    2.00000
    7.37000   15.93000    0.28000   30.00000    2.00000
    7.37000   16.61000    0.14000   50.00000    2.00000
    7.37000   17.26000    0.22000   40.00000    2.00000
    7.37000   17.93000    0.16000   40.00000    2.00000
   10.50000    7.66000    0.98000   15.00000    1.00000
   10.50000    8.40000    1.05000   19.00000    1.00000
   10.50000    9.00000    0.70000   29.00000    1.00000
   10.50000    9.82000    0.53000   24.00000    1.00000
   10.50000   10.48000    0.55000   28.00000    1.00000
   10.50000   11.16000    0.34000   30.00000    1.00000
   10.50000   11.68000    0.25000   40.00000    2.00000
   10.50000   11.89000    0.43000   28.00000    1.00000
   10.50000   12.28000    0.20500   40.00000    2.00000
   10.50000   13.01000    0.21000   40.00000    2.00000
   10.50000   13.82000    0.28000   40.00000    2.00000
   10.50000   14.40000    0.29000   40.00000    2.00000
   10.50000   15.21000    0.40500   30.00000    2.00000
   10.50000   15.86000    0.48000   29.00000    2.00000
   10.50000   16.54000    0.32000   40.00000    2.00000
   10.50000   17.29000    0.27500   40.00000    2.00000
   10.50000   18.02000    0.29000   40.00000    2.00000
   11.80000    7.67000    1.05000   24.00000    1.00000
   11.80000    8.33000    1.02000   21.00000    1.00000
   11.80000    9.08000    0.89000   27.00000    1.00000
   11.80000    9.75000    0.70000   30.00000    1.00000
   11.80000   10.41000    0.78000   30.00000    1.00000
   11.80000   11.14000    0.90000   27.00000    1.00000
   11.80000   11.83000    0.43000   40.00000    1.00000
   11.80000   12.56000    0.49000   40.00000    1.00000
   11.80000   13.02000    0.26000   30.00000    2.00000
   11.80000   13.30000    0.48000   30.00000    1.00000
   11.80000   13.77000    0.16000   40.00000    2.00000
   11.80000   14.42000    0.31000   29.00000    2.00000
   11.80000   15.17000    0.18000   30.00000    2.00000
   11.80000   15.83000    0.20000   40.00000    2.00000
   11.80000   16.42000    0.19000   40.00000    2.00000
   11.80000   17.30000    0.27000   30.00000    2.00000
   11.80000   17.98000    0.14000   40.00000    2.00000
   11.80000   18.64000    0.16000   40.00000    2.00000
ENDDATA            142
ENDSUBENT          159
SUBENT        O1630003   20080228   20080604   20080526       O035
BIB                  4         10
REACTION   (6-C-12(6-C-12,4-BE-10)8-O-14,PAR,DA)   fig 3-e
            it is sum 9.56+9.40+9.27-MeV states Be-10
EN-SEC     (E-LVL,4-BE-10)
LEVEL-PROP (4-BE-10,E-LVL=9.560,SPIN=2.0,PARITY=+1.)
           (4-BE-10,E-LVL=9.400,SPIN=3.0,PARITY=+1.)
           (4-BE-10,E-LVL=9.270,SPIN=4.0,PARITY=-1.)
FLAG       (1.).The angular setting of the magnetic spectrograph
                at 3.5-degree.
           (2.).The angular setting of the magnetic spectrograph
                at 5.5-degree.
ENDBIB              10
COMMON               3          3
E-LVL      E-LVL      E-LVL
MEV        MEV        MEV
9.27       9.40       9.56
ENDCOMMON            3
DATA                 4         20
ANG-CM     DATA-CM    ERR-S      FLAG
ADEG       MU-B/SR    PER-CENT   NO-DIM
       6.94        2.2        14.         1.
        7.6        2.4        13.         1.
       8.34       1.73        17.         1.
       9.02       1.04        19.         1.
       9.77       0.77        23.         1.
      10.43        0.8        25.         1.
      10.96       0.53        30.         2.
      11.26       0.38        30.         1.
      11.55       0.43        30.         2.
       11.9       0.86        26.         1.
      12.29        0.5        28.         2.
       12.5       0.65        26.         1.
      13.08       0.99        17.         2.
      13.83       0.64        20.         2.
      14.41       0.81        21.         2.
      15.16       0.54        26.         2.
      15.91       0.33        30.         2.
       16.5        0.4        30.         2.
      17.31        0.4        40.         2.
      17.91       0.28        30.         2.
ENDDATA             22
ENDSUBENT           41
ENDENTRY             3
