ENTRY            O1642   20080321   20080828   20080828       O036
SUBENT        O1642001   20080321   20080828   20080828       O036
BIB                  8         12
TITLE      Valence and inner proton hole states in In-119 via the
            (d,He3) reaction.
AUTHOR     (H.Langevin-Joliot, E.Gerlic, J.Guillot,
           J.Van de Wiele, S.Y.Van Der Werf, T.H.Martens,
           J.M.Schippers)
INSTITUTE  (2FR PAR)
           (2NEDKVI)
REFERENCE  (J,ZP/A,334,133,1989)
ADD-RES    (COMP).DWBA analysis.
METHOD     (SITA)
STATUS     (CURVE).By CAJAD.
HISTORY    (20080321C)
ENDBIB              12
NOCOMMON             0          0
ENDSUBENT           15
SUBENT        O1642002   20080321   20080828   20080828       O036
BIB                  6         13
REACTION   (50-SN-120(D,HE3)49-IN-119,PAR,DA) fig 3
EN-SEC     (E-EXC,49-IN-119)
SAMPLE     Sn-120, thickness of 130-mg/cm**2, was used as target.
DETECTOR   (MAGSP) The outgoing deuterons have been momentum
           analyzed with the QMG/2-spectrograph and detected in
           the focal plane of the spectrograph with a multi-wire
           drift chamber. The obtained overall energy resolution
           was typically 20 keV at E(d)=51 MeV.
FACILITY   (CYCLO,2NEDKVI) The KVI cyclotron for the
            Sn-120(d,He3)In-119 at E(d)=51 MeV.
ERR-ANALYS (DATA-ERR).The error is reported by authors on fig.
           (ERR-DIG).Digitizing error of data.
           (ANG-ERR-D).Digitizing error of angle.
ENDBIB              13
COMMON               3          3
EN         ANG-ERR-D  ERR-DIG
MEV        ADEG       PER-CENT
51.        0.19       4.
ENDCOMMON            3
DATA                 4        222
E-EXC      ANG-CM     DATA-CM    DATA-ERR
MEV        ADEG       MB/SR      PER-CENT
    0.00000    4.73000    0.16500
    0.00000    5.28000    0.14100
    0.00000    7.97000    0.28100
    0.00000   10.39000    0.51800
    0.00000   12.01000    0.70300
    0.00000   14.04000    0.79600
    0.00000   17.04000    0.62700
    0.00000   20.33000    0.28800
    0.31140    5.24000    1.85000
    0.31140    5.26000    1.55000
    0.31140    8.33000    0.79700
    0.31140   10.89000    0.25900
    0.31140   12.37000    0.33500
    0.31140   14.38000    0.50400
    0.31140   17.34000    0.39100
    0.31140   20.43000    0.13700
    0.60410    5.51000    2.13000
    0.60410    5.56000    1.74000
    0.60410    8.60000    0.96000
    0.60410   11.42000    0.32300
    0.60410   12.77000    0.43400
    0.60410   12.90000    0.36500
    0.60410   14.78000    0.60000
    0.60410   17.61000    0.46800
    0.60410   20.83000    0.16100
    0.94140    5.80000    0.04560
    0.94140    9.07000    0.03680
    0.94140   11.54000    0.01900
    0.94140   11.81000    0.02150
    0.94140   13.32000    0.01170
    0.94140   15.52000    0.00601
    0.94140   18.49000    0.01040
    0.94140   21.48000    0.01020
    1.04430    4.52000    0.03930
    1.04430    7.55000    0.13800
    1.04430   10.11000    0.05530
    1.04430   10.22000    0.09700
    1.04430   11.62000    0.12000
    1.04430   11.77000    0.07940
    1.04430   13.74000    0.05860
    1.04430   17.11000    0.05600
    1.04430   20.37000    0.01740
    1.05020    6.16000    0.12200
    1.05020    6.20000    0.15800
    1.05020    9.31000    0.06460
    1.05020   11.74000    0.09700
    1.05020   12.02000    0.06460
    1.05020   13.53000    0.05270
    1.05020   13.70000    0.01600   50.00000
    1.05020   15.43000    0.04520
    1.05020   18.44000    0.03080
    1.05020   21.69000    0.03880
    1.20370    4.84000    0.00297
    1.20370    4.90000    0.00496
    1.20370    7.78000    0.00344
    1.20370   10.27000    0.00634
    1.20370   11.52000    0.00930
    1.20370   11.92000    0.01430   10.00000
    1.20370   14.18000    0.00900
    1.20370   17.43000    0.00404
    1.20370   20.52000    0.00335
    1.39000    8.28000    0.01210
    1.39000   10.64000    0.02160
    1.39000   10.93000    0.01860
    1.39000   12.31000    0.03060
    1.39000   12.45000    0.02640
    1.39000   14.43000    0.01490
    1.39000   17.95000    0.01080
    1.39000   20.91000    0.00567
    1.43650    4.73000    0.03370
    1.43650    7.96000    0.07640
    1.43650   10.66000    0.13500   17.00000
    1.43650   12.00000    0.20000   25.00000
    1.43650   14.17000    0.21000
    1.43650   17.30000    0.16100
    1.43650   20.32000    0.07300
    1.47400    4.84000    0.01830
    1.47400    5.25000    0.01660
    1.47400    8.23000    0.01870
    1.47400   10.81000    0.02230
    1.47400   10.94000    0.02710
    1.47400   12.29000    0.03220
    1.47400   12.42000    0.03740
    1.47400   14.32000    0.03470
    1.47400   17.19000    0.02290
    1.47400   20.36000    0.00795
    1.55300    5.78000    0.30000
    1.55300    9.01000    0.12400
    1.55300   11.69000    0.04170
    1.55300   13.17000    0.05500
    1.55300   15.05000    0.08430
    1.55300   18.01000    0.05340
    1.55300   20.83000    0.02040
    1.72900    5.95000    0.05400
    1.72900    6.00000    0.04510
    1.72900   12.90000    0.01620
    1.72900   13.04000    0.01940
    1.72900   15.05000    0.02150
    1.72900   18.15000    0.01200
    1.72900   20.97000    0.00477
    1.83700    6.86000    0.32000
    1.83700    9.67000    0.11900
    1.83700   13.69000    0.05800
    1.83700   13.71000    0.09100
    1.83700   15.74000    0.09100
    1.83700   18.70000    0.06440
    1.83700   21.63000    0.02160
    1.97900    5.33000    0.00507
    1.97900    5.45000    0.00740
    1.97900    8.29000    0.01060
    1.97900   11.13000    0.01300
    1.97900   11.26000    0.01590
    1.97900   12.60000    0.02440
    1.97900   12.75000    0.02050
    1.97900   14.51000    0.02050
    1.97900   17.64000    0.02010
    1.97900   20.79000    0.00940
    2.05000    6.45000    0.06330
    2.05000    6.50000    0.05200
    2.05000    9.53000    0.02810
    2.05000   11.79000    0.00930
    2.05000   12.06000    0.01070
    2.05000   13.40000    0.00706
    2.05000   15.45000    0.01470
    2.05000   18.54000    0.00990
    2.05000   21.64000    0.00667
    2.27200    6.30000    0.10600
    2.27200    9.26000    0.06920
    2.27200   11.67000    0.03620
    2.27200   11.68000    0.04760
    2.27200   13.17000    0.04880
    2.27200   15.33000    0.04880
    2.27200   18.01000    0.03200
    2.27200   21.10000    0.01720
    2.34300    3.08000    0.39300
    2.34300    6.36000    0.15700
    2.34300    8.95000    0.05600   23.00000
    2.34300    9.04000    0.09800   13.00000
    2.34300   10.43000    0.10600   21.00000
    2.34300   12.22000    0.16100
    2.34300   15.29000    0.15300
    2.34300   18.58000    0.05500
    2.41000    5.27000    0.00630   22.00000
    2.41000    8.20000    0.00740   24.00000
    2.41000   10.69000    0.01560
    2.41000   10.98000    0.01310
    2.41000   12.36000    0.02100   19.00000
    2.41000   14.61000    0.01630   12.00000
    2.41000   18.00000    0.00830   17.00000
    2.46000    5.46000    0.04060
    2.46000    5.50000    0.03250
    2.46000    8.69000    0.03670
    2.46000   11.21000    0.03850
    2.46000   11.22000    0.02780
    2.46000   12.60000    0.04570
    2.46000   12.88000    0.04140
    2.46000   14.71000    0.03650
    2.46000   18.52000    0.01720
    2.46000   21.50000    0.00560
    2.50200    3.69000    0.07250
    2.50200    3.72000    0.05130
    2.50200    7.24000    0.03180
    2.50200    9.67000    0.01430
    2.50200    9.70000    0.01010
    2.50200   11.19000    0.01800   17.00000
    2.50200   13.13000    0.02200
    2.50200   16.35000    0.01930
    2.50200   19.69000    0.00380   11.00000
    2.67000    4.25000    0.02720
    2.67000    4.31000    0.02220
    2.67000    7.94000    0.01310
    2.67000   10.21000    0.00852
    2.67000   11.74000    0.00920   12.00000
    2.67000   11.85000    0.01210   14.00000
    2.67000   13.83000    0.00870
    2.67000   16.90000    0.00920
    2.81100    4.81000    0.10900    6.00000
    2.81100    8.22000    0.04900
    2.81100   10.52000    0.02050
    2.81100   11.10000    0.01580
    2.81100   12.31000    0.02780
    2.81100   12.46000    0.02330
    2.81100   14.26000    0.03010
    2.81100   17.49000    0.02380
    2.81100   20.35000    0.00920
    2.88500    5.12000    0.02860    8.00000
    2.88500    5.17000    0.02500   12.00000
    2.88500   11.05000    0.01130
    2.88500   12.72000    0.01310   15.00000
    2.88500   14.70000    0.00920
    2.88500   17.77000    0.00900   18.00000
    2.88500   20.91000    0.00380   18.00000
    3.00500    5.90000    0.02000
    3.00500    6.10000    0.01600
    3.00500    8.99000    0.01610
    3.00500   11.50000    0.02080
    3.00500   11.65000    0.01840
    3.00500   13.03000    0.02880
    3.00500   13.18000    0.02250
    3.00500   15.58000    0.01520
    3.00500   18.95000    0.01200
    3.00500   21.92000    0.00558
    3.13100    5.51000    0.00310   19.00000
    3.13100    5.77000    0.00430   30.00000
    3.13100    8.60000    0.00950   17.00000
    3.13100   11.18000    0.00980
    3.13100   11.31000    0.01170
    3.13100   13.06000    0.01820
    3.13100   13.07000    0.01380
    3.13100   14.83000    0.01360
    3.13100   17.96000    0.01280
    3.13100   21.11000    0.00624
    3.33000    5.59000    0.03680
    3.33000    5.61000    0.04490
    3.33000    9.15000    0.01490   12.00000
    3.33000   11.56000    0.00950   11.00000
    3.33000   11.68000    0.01160    9.00000
    3.33000   13.07000    0.01270   13.00000
    3.33000   13.09000    0.01020    9.00000
    3.33000   14.89000    0.01180
    3.33000   18.11000    0.01010   11.00000
    3.33000   21.24000    0.00490   16.00000
ENDDATA            224
ENDSUBENT          246
SUBENT        O1642003   20080321   20080828   20080828       O036
BIB                  6         13
REACTION   (50-SN-120(D,HE3)49-IN-119,PAR,DA) fig 4
EN-SEC     (E-LVL,49-IN-119)
DETECTOR   (MAGSP) The standard detection system at the focal
            plane of the spectrometer Montpellier.
            The overall energy resolution was typically of 350 keV
            due to the chosen target thickness-10.2 mg/cm**2.
SAMPLE     Sn-120, thickness 10.2-mg/cm**2, was used.
FACILITY   (SYNCY,2FR PAR) The Orsay synchrocyclotron-for typical
           excitation energy spectra from the reaction
           Sn-120(d,He3)In-119 at E(d)=108.4 MeV.
ERR-ANALYS (DATA-ERR).The error is reported by authors on fig.
           (ERR-DIG).Digitizing error of data.
           (ANG-ERR-D).Digitizing error of angle.
ENDBIB              13
COMMON               3          3
EN         ANG-ERR-D  ERR-DIG
MEV        ADEG       PER-CENT
108.4      0.13       2.
ENDCOMMON            3
DATA                 4         75
E-LVL      ANG-CM     DATA-CM    DATA-ERR
MEV        ADEG       MB/SR      PER-CENT
    0.00000    3.89000    2.34000
    0.00000    6.15000    2.00000
    0.00000    7.94000    2.10000
    0.00000   10.01000    2.05000
    0.00000   12.09000    1.55500
    0.00000   14.36000    0.86200
    0.00000   16.16000    0.47000
    0.00000   18.24000    0.33700
    0.60000    3.85000    1.90000
    0.60000    6.01000    1.26700
    0.60000    7.83000    0.32400
    0.60000    9.87000    0.31700
    0.60000   12.01000    0.36300
    0.60000   14.00000    0.12270
    0.60000   15.97000    0.07740
    0.60000   18.09000    0.14330
    1.40000    3.51000    0.47800
    1.40000    5.85000    0.38100
    1.40000    7.80000    0.34700
    1.40000    9.66000    0.34300
    1.40000   11.90000    0.27000
    1.40000   13.88000    0.14520
    1.40000   15.76000    0.08030
    1.40000   17.90000    0.07320
    2.35000    3.34000    0.44300
    2.35000    5.58000    0.35600
    2.35000    7.53000    0.29800
    2.35000    9.77000    0.24900
    2.35000   11.65000    0.16200
    2.35000   13.72000    0.09420
    2.35000   15.68000    0.07300    8.00000
    2.35000   17.73000    0.06100    5.00000
    4.60000    3.37000    0.63700
    4.60000    5.51000    0.49100
    4.60000    7.39000    0.29700
    4.60000    9.26000    0.28000
    4.60000   11.50000    0.21300
    4.60000   13.39000    0.10130
    4.60000   15.44000    0.07800
    4.60000   17.21000    0.07630
    7.00000    3.91000    0.69000    6.00000
    7.00000    5.87000    0.56000    7.00000
    7.00000    8.02000    0.35000   11.00000
    7.00000    9.87000    0.34000    9.00000
    7.00000   11.83000    0.24000   13.00000
    7.00000   14.08000    0.10700   22.00000
    7.00000   16.21000    0.09700   25.00000
    7.00000   18.16000    0.09200   25.00000
   10.00000    3.67000    0.32000    9.00000
   10.00000    5.62000    0.24000   13.00000
   10.00000    7.57000    0.21600   12.00000
   10.00000    9.61000    0.21200   12.00000
   10.00000   11.57000    0.13500   15.00000
   10.00000   13.73000    0.05800   29.00000
   10.00000   15.86000    0.06000   27.00000
   10.00000   17.99000    0.05300   25.00000
   13.00000    3.22000    0.19200    8.00000
   13.00000    5.36000    0.14100   12.00000
   13.00000    7.49000    0.14300   11.00000
   13.00000    9.34000    0.13700   12.00000
   13.00000   11.31000    0.07600   17.00000
   13.00000   13.47000    0.03800   30.00000
   13.00000   15.68000    0.04400   25.00000
   13.00000   17.82000    0.03200   28.00000
   16.00000    3.41000    0.14070
   16.00000    5.38000    0.08400
   16.00000    7.50000    0.10820
   16.00000    9.45000    0.08950
   16.00000   11.24000    0.03850
   16.00000   13.39000    0.02190
   16.00000   17.75000    0.01870
   25.00000    3.01000    0.12860
   25.00000    7.27000    0.11570
   25.00000    9.22000    0.10540
   25.00000   17.38000    0.06200
ENDDATA             77
ENDSUBENT           99
ENDENTRY             3
