ENTRY            O1821   20100106   20100809   20100806       O041
SUBENT        O1821001   20100106   20100809   20100806       O041
BIB                 12         36
TITLE      High-resolution study of four-nucleon pickup via the
            (d,3-Li-6) reaction at E(d)=55 MeV on sd shell nuclei.
           Even-A nuclei.
AUTHOR     (J.C.Vermeulen, A.G.Drentje, L.W.Put,
           R.R.de Ruyter van Steveninck, R.H.Siemssen,
           J.F.A.van Hienen, H.Hasper)
INSTITUTE  (2NEDKVI)
           (2NEDFUL)
           (2NEDGRN)
REFERENCE  (J,NP/A,362,189,1981)
FACILITY   (CYCLO,2NEDKVI) the KVI variable energy cyclotron
INC-SOURCE The total energy resolution of about 40 keV at forward
           angles was mainly determined by the target thickness
           and was found to be somewhat better for the aluminium
           target than for the magnesium target in agreement with
           the smaller thickness of the aluminium target. Due to
           kinematic effects the energy resolution was 60-80 keV
           for angles larger than 25 degree.
METHOD     (BCINT) beam currents between 100 and 400 nA.
DETECTOR   (MAGSP) QMG/2 broad-range magnetic spectrograph.
           (SCIN)
           (MWDC,SWPC) The position-sensitive gas detectors were
           a combination of a drift chamber and a resistive wire
           proportional detector
ADD-RES    (COMP).DWBA calculations.
           Spectra for the (d,Li-6) reaction of Mg-24 and Mg-26
           and Si-28 are observed.
ERR-ANALYS (ERR-1). The estimated error in the absolute cross
           sections is 20%, which is mainly due to uncertainties
           in the target thickness.
           (ANG-ERR-D).Digitizing error of angle.
           (ERR-DIG). Digitizing error of data.
           (DATA-ERR).The uncertainty is reported by authors on
           figures.
STATUS     (CURVE).By CAJAD.
HISTORY    (20100106C) SB
ENDBIB              36
COMMON               3          3
EN         ANG-ERR-D  ERR-1
MEV        ADEG       PER-CENT
55.0       0.3        20.
ENDCOMMON            3
ENDSUBENT           43
SUBENT        O1821002   20100122   20100809   20100806       O041
BIB                  4         24
REACTION   (12-MG-24(D,3-LI-6)10-NE-20,PAR,DA) fig.2
SAMPLE     Self-supporting, metallic targets of Mg-24,
           thickness 66+-15 mug/cm**2, contaminations in target
           C-12 thickness 13+-3 mug/cm**2, O-16 thickness
            6+-2 mug/cm**2  was used.
EN-SEC     (E-LVL,10-NE-20)
LEVEL-PROP (10-NE-20,E-LVL=0.000,SPIN=0.0,PARITY=+1.)
           (10-NE-20,E-LVL=1.634,SPIN=2.0,PARITY=+1.)
           (10-NE-20,E-LVL=4.248,SPIN=4.0,PARITY=+1.)
           (10-NE-20,E-LVL=4.968,SPIN=2.0,PARITY=-1.)
           (10-NE-20,E-LVL=5.621,SPIN=3.0,PARITY=-1.)
           (10-NE-20,E-LVL=5.784,SPIN=1.0,PARITY=-1.)
           (10-NE-20,E-LVL=6.724,SPIN=0.0,PARITY=+1.)
           (10-NE-20,E-LVL=7.004,SPIN=4.0,PARITY=-1.)
           (10-NE-20,E-LVL=7.168,SPIN=3.0,PARITY=-1.)
           (10-NE-20,E-LVL=7.191,SPIN=0.0,PARITY=+1.)
           (10-NE-20,E-LVL=7.421,SPIN=2.0,PARITY=+1.)
           (10-NE-20,E-LVL=7.829,SPIN=2.0,PARITY=+1.)
           (10-NE-20,E-LVL=8.449,SPIN=5.0,PARITY=-1.)
           (10-NE-20,E-LVL=8.694,SPIN=1.0,PARITY=-1.)
           (10-NE-20,E-LVL=8.777,SPIN=6.0,PARITY=+1.)
           (10-NE-20,E-LVL=8.848,SPIN=1.0,PARITY=-1.)
           (10-NE-20,E-LVL=9.030,SPIN=4.0,PARITY=+1.)
           (10-NE-20,E-LVL=9.115,SPIN=3.0,PARITY=-1.)
ENDBIB              24
COMMON               1          3
ERR-DIG
PER-CENT
2.4
ENDCOMMON            3
DATA                 5        248
E-LVL      E-LVL      ANG-CM     DATA-CM    DATA-ERR
MEV        MEV        ADEG       MU-B/SR    PER-CENT
    0.00000              11.55000   12.78000
    0.00000              14.18000   18.20000   12.00000
    0.00000              14.69000   24.70000
    0.00000              17.53000   28.20000    9.00000
    0.00000              19.41000   29.70000
    0.00000              22.20000   20.80000
    0.00000              24.72000   11.55000
    0.00000              27.75000    8.80000   13.00000
    0.00000              29.14000    7.84000
    0.00000              30.81000    9.10000   14.00000
    0.00000              33.14000    7.40000   12.00000
    0.00000              36.44000    7.70000   13.00000
    0.00000              39.00000    6.40000   11.00000
    0.00000              42.21000    3.10000   13.00000
    0.00000              44.77000    2.33000
    1.63400              11.23000   10.00000   12.00000
    1.63400              13.79000    8.10000   14.00000
    1.63400              17.58000   10.00000   12.00000
    1.63400              19.23000   10.70000   16.00000
    1.63400              22.27000    8.80000   16.00000
    1.63400              25.07000    6.90000   14.00000
    1.63400              27.66000    7.10000   15.00000
    1.63400              30.68000    5.00000   14.00000
    1.63400              33.02000    4.50000   11.00000
    1.63400              36.34000    5.60000   13.00000
    1.63400              39.15000    5.00000    8.00000
    1.63400              42.17000    3.50000   17.00000
    1.63400              44.95000    2.50000   12.00000
    4.24800              11.03000    7.60000   18.00000
    4.24800              14.08000    7.50000   17.00000
    4.24800              17.37000    6.80000   18.00000
    4.24800              19.25000    6.50000   18.00000
    4.24800              22.29000    5.60000   16.00000
    4.24800              24.81000    3.40000   18.00000
    4.24800              27.85000    2.90000   17.00000
    4.24800              33.53000    3.80000   18.00000
    4.24800              36.41000    5.70000   12.00000
    4.24800              39.22000    5.10000   12.00000
    4.24800              42.29000    5.60000   11.00000
    4.24800              45.09000    4.70000   11.00000
    4.96800               8.50000    2.70000   22.00000
    4.96800              11.89000    3.10000   16.00000
    4.96800              16.73000    2.80000   11.00000
    4.96800              22.42000    2.40000   17.00000
    4.96800              28.47000    0.97000   23.00000
    4.96800              34.36000    0.77000   26.00000
    5.62100              12.85000   15.60000
    5.62100              14.27000   16.40000
    5.62100              16.82000   12.12000
    5.62100              19.19000   13.40000
    5.62100              21.49000    9.10000   13.00000
    5.62100              25.03000    9.60000    9.00000
    5.62100              27.87000   11.50000   13.00000
    5.62100              30.72000   14.50000   12.00000
    5.62100              33.55000   15.00000   12.00000
    5.62100              36.14000   14.50000   13.00000
    5.62100              38.91000    9.70000   14.00000
    5.62100              42.20000    8.80000    9.00000
    5.62100              44.80000   10.02000
    5.78400               9.70000    2.20000   27.00000
    5.78400              13.00000    0.78000   27.00000
    5.78400              17.91000    1.60000   19.00000
    5.78400              23.62000    2.08000   14.00000
    5.78400              29.30000    1.80000   22.00000
    5.78400              35.42000    1.70000   24.00000
    5.78400              41.06000    0.80000   24.00000
    6.72400              10.49000    0.40000   40.00000
    6.72400              13.49000    0.76000   24.00000
    6.72400              18.34000    0.73000   29.00000
    6.72400              24.06000    0.93000   27.00000
    6.72400              29.54000    0.86000   29.00000
    6.72400              35.65000    0.84000   20.00000
    6.72400              41.53000    0.56000   40.00000
    7.00400              10.44000    1.11000   21.00000
    7.00400              14.02000    1.07000   22.00000
    7.00400              18.48000    1.49000   12.00000
    7.00400              24.62000    1.97000   12.00000
    7.00400              30.32000    2.15000   14.00000
    7.00400              36.01000    2.04000   13.00000
    7.00400              41.72000    2.40000   13.00000
    7.16800      7.191   11.63000    2.40000   17.00000
    7.16800      7.191   14.83000    3.60000   11.00000
    7.16800      7.191   19.27000    4.10000   12.00000
    7.16800      7.191   25.35000    2.51000    6.00000
    7.16800      7.191   31.26000    2.60000   12.00000
    7.16800      7.191   36.90000    1.28000   22.00000
    7.16800      7.191   42.77000    0.75000   25.00000
    7.42100              12.67000    2.32000    9.00000
    7.42100              16.04000    2.79000   10.00000
    7.42100              20.54000    2.09000    9.00000
    7.42100              26.78000    2.08000   10.00000
    7.42100              32.35000    1.72000    9.00000
    7.42100              38.16000    1.67000    9.00000
    7.42100              43.98000    1.67000   11.00000
    7.82900              12.92000    2.41000   11.00000
    7.82900              16.18000    1.74000   16.00000
    7.82900              20.81000    2.26000    9.00000
    7.82900              26.81000    1.93000   13.00000
    7.82900              32.59000    1.62000
    7.82900              38.31000    0.41000   60.00000
    7.82900              43.86000    0.77000   23.00000
    8.44900              12.94000    0.96000   10.00000
    8.44900              16.38000    1.61000
    8.44900              20.97000    1.70000
    8.44900              26.79000    1.75000
    8.44900              32.82000    1.78000
    8.44900              38.41000    1.59000   11.00000
    8.44900              44.08000    0.83000   14.00000
    8.69400              12.80000    1.14000   12.00000
    8.69400              16.28000    0.88000   15.00000
    8.69400              20.80000    0.69000   22.00000
    8.69400              26.44000    0.78000   15.00000
    8.69400              32.06000    0.82000   16.00000
    8.69400              38.00000    0.54000   40.00000
    8.69400              43.87000    0.27000   30.00000
    8.77700              12.99000    1.42000   16.00000
    8.77700              16.14000    1.61000   13.00000
    8.77700              20.98000    2.07000    9.00000
    8.77700              26.83000    2.36000
    8.77700              32.64000    2.26000
    8.77700              38.20000    1.74000   13.00000
    8.77700              44.27000    0.84000   24.00000
    8.84800              12.67000    0.53000   25.00000
    8.84800              16.27000    0.71000   24.00000
    8.84800              21.17000    0.48000   50.00000
    8.84800              26.96000    0.41000   40.00000
    8.84800              32.36000    0.41000   40.00000
    9.03000              12.20000    1.49000   13.00000
    9.03000              15.89000    1.18000   18.00000
    9.03000              20.46000    1.16000   11.00000
    9.03000              26.28000    1.17000   14.00000
    9.03000              31.74000    1.49000   17.00000
    9.03000              38.03000    0.80000   40.00000
    9.03000              43.57000    0.55000   50.00000
    9.11500              12.01000    1.43000   20.00000
    9.11500              15.17000    1.75000   16.00000
    9.11500              19.95000    1.66000   16.00000
    9.11500              26.22000    0.75000   29.00000
    9.11500              31.81000    0.70000   40.00000
    9.11500              37.58000    0.52000   40.00000
    9.11500              43.33000    0.39000   50.00000
    9.30000              12.04000    1.65000   13.00000
    9.30000              15.29000    1.15000   22.00000
    9.30000              20.08000    1.20000   21.00000
    9.30000              25.83000    0.87000   30.00000
    9.30000              31.69000    1.07000   22.00000
    9.30000              37.49000    0.97000   29.00000
    9.46600              13.70000    2.51000   10.00000
    9.46600              17.34000    2.28000    8.00000
    9.46600              21.79000    1.75000   10.00000
    9.46600              27.50000    1.15000   16.00000
    9.46600              33.62000    0.71000   13.00000
    9.46600              39.66000    0.77000   23.00000
    9.94300              13.53000    0.58000   40.00000
    9.94300              17.10000    0.42000   60.00000
    9.94300              21.99000    0.80000   50.00000
    9.94300              27.83000    0.89000   24.00000
    9.94300              33.41000    0.85000   26.00000
    9.94300              39.68000    0.96000   25.00000
   10.04000              13.43000    1.11000   22.00000
   10.04000              16.99000    1.90000   26.00000
   10.04000              21.82000    2.80000   18.00000
   10.04000              27.53000    1.90000   30.00000
   10.04000              33.53000    1.70000   40.00000
   10.04000              39.28000    1.40000   40.00000
   10.57200              12.93000    2.42000
   10.57200              16.49000    1.63000   10.00000
   10.57200              21.12000    1.06000   18.00000
   10.57200              27.22000    1.46000   17.00000
   10.57200              33.08000    1.85000   14.00000
   10.57200              38.78000    1.15000   20.00000
   10.57200              44.82000    1.23000   15.00000
   10.84800              13.01000    2.76000
   10.84800              16.65000    2.64000
   10.84800              21.29000    1.77000   13.00000
   10.84800              27.24000    1.33000   16.00000
   10.84800              32.82000    1.27000   18.00000
   10.84800              38.88000    1.60000   19.00000
   10.84800              44.67000    1.47000   18.00000
   10.90000              12.84000    1.60000   19.00000
   10.90000              16.46000    1.32000   20.00000
   10.90000              21.00000    1.50000   15.00000
   10.90000              27.16000    1.10000   21.00000
   10.90000              32.83000    1.49000   15.00000
   10.90000              38.67000    1.75000   17.00000
   10.90000              44.49000    0.77000   25.00000
   11.00000              12.59000    1.60000   25.00000
   11.00000              16.25000    1.61000   16.00000
   11.00000              21.00000    1.78000   11.00000
   11.00000              26.73000    1.27000   16.00000
   11.00000              32.40000    0.73000   30.00000
   11.00000              38.26000    0.90000   30.00000
   11.00000              44.04000    0.35000   70.00000
   11.22000              12.45000    1.10000   40.00000
   11.22000              16.00000    0.66000   30.00000
   11.22000              32.33000    0.60000   50.00000
   11.30000              12.02000    1.30000   30.00000
   11.30000              15.75000    0.72000   30.00000
   11.56000              17.50000    1.19000   15.00000
   11.56000              20.57000    0.76000   16.00000
   11.56000              25.39000    1.10000   27.00000
   11.85000              16.56000    1.31000   11.00000
   11.85000              20.04000    1.53000
   11.85000              24.60000    1.00000   30.00000
   11.85000              30.47000    1.30000   30.00000
   11.85000              36.17000    0.99000   28.00000
   11.85000              42.06000    0.70000   60.00000
   11.85000              48.26000    0.67000   40.00000
   11.92000              16.19000    2.20000   23.00000
   11.92000              19.35000    1.90000   21.00000
   11.92000              24.09000    1.00000   30.00000
   11.92000              29.70000    1.10000   40.00000
   11.92000              35.81000    0.83000   30.00000
   11.92000              41.58000    0.80000   40.00000
   11.92000              47.73000    1.30000   23.00000
   12.39000              15.37000    1.70000   24.00000
   12.39000              18.75000    1.46000   18.00000
   12.39000              23.85000    1.30000   40.00000
   12.39000              29.15000    1.10000   27.00000
   12.39000              35.28000    0.80000   50.00000
   12.39000              40.91000    1.00000   40.00000
   12.39000              47.01000    0.70000   60.00000
   12.54000              14.60000    1.80000   28.00000
   12.54000              17.85000    2.20000   27.00000
   12.54000              22.70000    1.70000   29.00000
   12.54000              28.45000    0.70000   40.00000
   12.54000              40.49000    0.90000   40.00000
   12.54000              46.45000    0.80000   50.00000
   12.95000              13.96000    2.50000   20.00000
   12.95000              17.43000    3.00000   23.00000
   12.95000              21.95000    3.10000   19.00000
   12.95000              27.96000    1.60000   40.00000
   12.95000              33.46000    1.30000   50.00000
   12.95000              39.93000    1.50000   40.00000
   12.95000              45.62000    1.10000   50.00000
   13.34000              13.03000    1.40000   29.00000
   13.34000              16.31000    0.88000   28.00000
   13.34000              21.53000    1.20000   25.00000
   13.34000              27.27000    1.00000   30.00000
   13.68000              12.65000    1.21000   19.00000
   13.68000              16.27000    1.10000   23.00000
   13.68000              21.03000    1.30000   23.00000
   13.68000              26.75000    1.10000   27.00000
   13.68000              38.78000    1.20000   40.00000
   13.91000              12.20000    1.70000   18.00000
   13.91000              15.62000    1.70000   24.00000
   13.91000              20.55000    1.70000   24.00000
   13.91000              26.28000    1.40000   40.00000
ENDDATA            250
ENDSUBENT          283
SUBENT        O1821003   20100122   20100809   20100806       O041
BIB                  4         21
REACTION   (12-MG-26(D,3-LI-6)10-NE-22,PAR,DA) fig.4
SAMPLE     Self-supporting, metallic targets of Mg-26,
           thickness 73+-15 mug/cm**2, contaminations in target
           C-12 thickness 8+-3 mug/cm**2, O-16 thickness
            7+-2 mug/cm**2, Mg-24 thickness 4.3+-0.7 was used.
EN-SEC     (E-LVL,10-NE-22)
LEVEL-PROP (10-NE-22,E-LVL=0.000,SPIN=0.0,PARITY=+1.)
           (10-NE-22,E-LVL=1.275,SPIN=2.0,PARITY=+1.)
           (10-NE-22,E-LVL=3.357,SPIN=4.0,PARITY=+1.)
           (10-NE-22,E-LVL=4.457,SPIN=2.0,PARITY=+1.)
           (10-NE-22,E-LVL=5.148,SPIN=2.0,PARITY=-1.)
           (10-NE-22,E-LVL=5.365,SPIN=2.0,PARITY=+1.)
           (10-NE-22,E-LVL=5.523,SPIN=4.0,PARITY=+1.)
           (10-NE-22,E-LVL=5.641,SPIN=3.0,PARITY=+1.)
           (10-NE-22,E-LVL=5.910,SPIN=3.0,PARITY=-1.)
           (10-NE-22,E-LVL=6.115,SPIN=2.0,PARITY=+1.)
           (10-NE-22,E-LVL=6.237,SPIN=0.0,PARITY=+1.)
           (10-NE-22,E-LVL=6.311,SPIN=6.0,PARITY=+1.)
           (10-NE-22,E-LVL=6.345,SPIN=4.0,PARITY=+1.)
           (10-NE-22,E-LVL=6.691,SPIN=1.0,PARITY=-1.)
           (10-NE-22,E-LVL=6.817,SPIN=2.0,PARITY=+1.)
ENDBIB              21
COMMON               1          3
ERR-DIG
PER-CENT
2.2
ENDCOMMON            3
DATA                 5        225
E-LVL      E-LVL      ANG-CM     DATA-CM    DATA-ERR
MEV        MEV        ADEG       MU-B/SR    PER-CENT
    0.00000              10.13000    9.60000   10.00000
    0.00000              13.44000   11.40000   21.00000
    0.00000              13.67000   14.50000   17.00000
    0.00000              16.99000   19.50000   12.00000
    0.00000              18.21000   16.20000   13.00000
    0.00000              21.70000   14.80000   14.00000
    0.00000              24.11000    8.37000
    0.00000              27.16000    5.90000   15.00000
    0.00000              29.66000    7.50000   11.00000
    0.00000              32.94000    6.70000   16.00000
    0.00000              35.78000    4.60000    9.00000
    0.00000              38.22000    3.10000   10.00000
    0.00000              41.01000    1.34000   10.00000
    0.00000              43.92000    1.80000   12.00000
    1.27500              10.64000    6.40000   11.00000
    1.27500              13.71000    5.70000   11.00000
    1.27500              16.62000    6.90000   12.00000
    1.27500              18.47000    6.80000   15.00000
    1.27500              21.76000    6.80000   13.00000
    1.27500              24.65000    7.30000   12.00000
    1.27500              26.87000    5.00000   16.00000
    1.27500              30.15000    4.10000   17.00000
    1.27500              32.65000    5.50000   11.00000
    1.27500              35.55000    6.70000    9.00000
    1.27500              38.40000    5.10000   14.00000
    1.27500              41.26000    4.10000   15.00000
    1.27500              43.73000    3.80000   11.00000
    3.35700              12.36000    0.88000   22.00000
    3.35700              16.07000    0.96000   25.00000
    3.35700              20.20000    1.09000   21.00000
    3.35700              25.93000    0.76000   30.00000
    3.35700              37.20000    0.47000   40.00000
    3.35700              42.58000    0.59000   40.00000
    4.45700              10.31000    3.80000   11.00000
    4.45700              13.41000    4.20000   10.00000
    4.45700              14.00000    3.30000    9.00000
    4.45700              17.07000    2.70000   11.00000
    4.45700              18.87000    1.50000   20.00000
    4.45700              21.74000    1.36000   18.00000
    4.45700              24.36000    0.86000   19.00000
    4.45700              27.22000    0.66000   30.00000
    4.45700              30.35000    0.96000   28.00000
    4.45700              33.44000    0.98000   27.00000
    4.45700              36.08000    0.72000   30.00000
    4.45700              38.98000    0.83000   17.00000
    4.45700              44.52000    0.72000   21.00000
    5.14800              11.20000    0.67000   22.00000
    5.14800              15.03000    0.69000   13.00000
    5.14800              19.24000    0.69000   17.00000
    5.14800              25.35000    0.51000   16.00000
    5.14800              30.89000    0.36000   30.00000
    5.14800              42.54000    0.25000   30.00000
    5.36500              11.69000    2.30000   13.00000
    5.36500              15.12000    1.72000   17.00000
    5.36500              19.70000    1.03000    9.00000
    5.36500              25.25000    1.45000    8.00000
    5.36500              31.18000    1.36000   10.00000
    5.36500              37.11000    1.35000   11.00000
    5.36500              42.65000    1.16000    9.00000
    5.52300              10.76000    3.58000
    5.52300              13.88000    4.70000    6.00000
    5.52300              14.11000    5.90000   10.00000
    5.52300              17.19000    5.60000   13.00000
    5.52300              18.87000    7.50000   13.00000
    5.52300              21.51000    5.40000   11.00000
    5.52300              24.58000    4.50000   13.00000
    5.52300              27.44000    3.40000    9.00000
    5.52300              30.06000    2.02000   13.00000
    5.52300              33.13000    1.70000   14.00000
    5.52300              36.05000    2.44000   11.00000
    5.52300              38.92000    2.20000   14.00000
    5.52300              41.83000    2.83000   10.00000
    5.52300              44.70000    2.49000   11.00000
    5.64100              13.62000    0.32000   50.00000
    5.64100              17.25000    0.38000   29.00000
    5.64100              21.86000    0.57000   50.00000
    5.64100              27.89000    0.33000   50.00000
    5.91000              10.74000    5.60000   11.00000
    5.91000              13.43000    6.60000    8.00000
    5.91000              14.03000    5.40000    9.00000
    5.91000              16.91000    5.50000   13.00000
    5.91000              18.74000    4.10000   12.00000
    5.91000              21.80000    3.31000    9.00000
    5.91000              24.26000    2.90000   17.00000
    5.91000              27.79000    4.00000   13.00000
    5.91000              30.28000    4.80000   10.00000
    5.91000              33.34000    3.70000   14.00000
    5.91000              36.21000    3.20000    9.00000
    5.91000              39.09000    3.20000   13.00000
    5.91000              41.96000    2.70000   15.00000
    5.91000              44.66000    3.58000    2.00000
    6.11500              13.10000    0.85000   15.00000
    6.11500              16.70000    0.77000   18.00000
    6.11500              21.06000    0.65000   20.00000
    6.11500              26.75000    0.51000   25.00000
    6.11500              32.71000    0.88000   20.00000
    6.11500              38.57000    0.60000   20.00000
    6.11500              44.26000    0.55000   40.00000
    6.23700              12.79000    0.89000   17.00000
    6.23700              16.51000    2.21000
    6.23700              21.04000    1.60000   25.00000
    6.23700              26.89000    0.95000   19.00000
    6.23700              32.67000    1.80000   17.00000
    6.23700              38.43000    0.54000   22.00000
    6.31100      6.345   12.74000    1.59000    9.00000
    6.31100      6.345   16.23000    2.91000    8.00000
    6.31100      6.345   20.99000    3.00000   13.00000
    6.31100      6.345   26.48000    2.27000   10.00000
    6.31100      6.345   32.56000    2.07000
    6.31100      6.345   38.26000    1.92000    8.00000
    6.31100      6.345   43.96000    1.80000   17.00000
    6.63600              12.32000    0.38000   40.00000
    6.63600              15.92000    0.32000   50.00000
    6.63600              20.66000    0.26000   50.00000
    6.69100              12.09000    1.29000   14.00000
    6.69100              15.65000    0.78000   22.00000
    6.69100              20.25000    1.09000   22.00000
    6.69100              25.79000    1.34000    8.00000
    6.69100              31.66000    0.95000   29.00000
    6.69100              37.35000    0.81000   17.00000
    6.69100              43.06000    0.81000   21.00000
    6.81700              15.30000    1.39900
    6.81700              18.81000    0.98000   13.00000
    6.81700              23.20000    0.46000   24.00000
    6.81700              29.17000    0.39000   26.00000
    6.81700              34.88000    0.68000   29.00000
    6.81700              40.90000    0.76000   16.00000
    6.81700              46.31000    0.63000   19.00000
    6.88600              14.94000    0.35000   26.00000
    6.88600              18.50000    0.35000   40.00000
    6.88600              22.83000    0.38000   40.00000
    6.88600              28.79000    0.29000   40.00000
    7.08000              22.37000    0.44000   30.00000
    7.08000              28.04000    0.17000   50.00000
    7.08000              39.55000    0.27000   30.00000
    7.32000              13.65000    0.49000   22.00000
    7.32000              17.25000    0.65000   17.00000
    7.32000              22.00000    0.94000   21.00000
    7.32000              27.60000    0.80000   16.00000
    7.32000              33.38000    0.64000   27.00000
    7.32000              39.01000    0.67000   30.00000
    7.32000              45.05000    0.90000   30.00000
    7.39700               9.91000    9.12000
    7.39700              13.01000   10.34000
    7.39700              13.43000   11.25000
    7.39700              16.72000   11.39000
    7.39700              18.36000   10.46000
    7.39700              19.58000    8.96000
    7.39700              21.22000    8.34000
    7.39700              21.82000    7.04000
    7.39700              22.64000    6.47000
    7.39700              23.86000    5.78000
    7.39700              27.11000    3.70000   11.00000
    7.39700              29.61000    4.90000   12.00000
    7.39700              32.72000    6.50000   11.00000
    7.39700              36.00000    5.30000   13.00000
    7.39700              38.48000    6.20000    5.00000
    7.39700              41.55000    5.10000   18.00000
    7.39700              44.24000    5.90000   10.00000
    7.62300              12.94000    0.80000   21.00000
    7.62300              16.35000    1.01000   20.00000
    7.62300              21.04000    0.96000   19.00000
    7.62300              26.89000    1.30000   30.00000
    7.62300              32.43000    0.73000   23.00000
    7.62300              38.39000    0.53000   21.00000
    7.62300              43.62000    0.47000   21.00000
    7.70000              12.80000    0.22000   40.00000
    7.70000              16.07000    0.40000   25.00000
    7.70000              20.57000    0.42000   29.00000
    7.70000              37.81000    0.37000   30.00000
    7.70000              43.15000    0.19000   40.00000
    7.92000              12.07000    0.57000   28.00000
    7.92000              15.45000    0.61000   18.00000
    7.92000              19.91000    0.45000   29.00000
    7.92000              31.58000    0.58000   30.00000
    7.92000              42.98000    0.46000   28.00000
    8.13400              14.23000    0.71000   13.00000
    8.13400              17.65000    0.70000   16.00000
    8.13400              22.62000    0.90000   17.00000
    8.13400              28.54000    1.08000   19.00000
    8.13400              34.44000    1.11000   19.00000
    8.13400              40.03000    0.46000   30.00000
    8.13400              45.56000    0.52000   40.00000
    8.37000              14.08000    0.43000   16.00000
    8.37000              17.58000    0.17000   40.00000
    8.37000              22.46000    0.51000   30.00000
    8.37000              28.10000    0.29000   30.00000
    8.45200              13.50000    0.36000   22.00000
    8.45200              16.99000    0.66000   17.00000
    8.45200              21.56000    0.68000   21.00000
    8.45200              27.52000    1.26000   11.00000
    8.45200              33.38000    0.97000   18.00000
    8.45200              38.85000    0.68000   25.00000
    8.45200              45.09000    0.49000   30.00000
    8.57300              13.22000    0.76000   14.00000
    8.57300              16.67000    0.93000   18.00000
    8.57300              21.43000    1.04000   20.00000
    8.57300              27.34000    1.22000   11.00000
    8.57300              33.17000    0.71000   15.00000
    8.57300              39.08000    0.84000   21.00000
    8.57300              44.58000    0.73000   30.00000
    8.72400              12.85000    0.69000   13.00000
    8.72400              16.23000    0.52000   19.00000
    8.72400              20.76000    0.37000   27.00000
    8.72400              26.52000    0.64000   17.00000
    8.72400              38.04000    0.35000   30.00000
    8.72400              44.09000    0.26000   40.00000
    9.04200              12.12000    0.82000   15.00000
    9.04200              15.77000    1.09000   15.00000
    9.04200              20.54000    1.27000   20.00000
    9.04200              26.25000    1.40000   12.00000
    9.04200              31.96000    1.46000   11.00000
    9.04200              37.66000    1.40000   10.00000
    9.04200              43.72000    1.21000   18.00000
    9.22900              12.09000    1.32000   17.00000
    9.22900              15.71000    1.41000   17.00000
    9.22900              20.60000    0.98000   17.00000
    9.22900              26.29000    0.84000   20.00000
    9.22900              32.16000    0.71000   25.00000
    9.22900              37.76000    0.32000   50.00000
    9.22900              43.57000    0.75000   29.00000
    9.49000              11.98000    0.49000   22.00000
    9.49000              15.58000    0.46000   22.00000
    9.49000              26.07000    0.62000   29.00000
    9.49000              31.66000    0.24000   40.00000
ENDDATA            227
ENDSUBENT          257
SUBENT        O1821004   20100122   20100809   20100806       O041
BIB                  4         22
REACTION   (14-SI-28(D,3-LI-6)12-MG-24,PAR,DA) fig.6
SAMPLE     Self-supporting, metallic targets of Si-28,
           thickness 65+-10 mug/cm**2, contaminations in target
           C-12 thickness 5+-2 mug/cm**2, O-16 thickness
            2+-1 mug/cm**2, Si-29 thickness 3.4+-0.5,
            Si-30 thickness 2.4+-0.3, was used.
EN-SEC     (E-LVL,12-MG-24)
LEVEL-PROP (12-MG-24,E-LVL=0.000,SPIN=0.0,PARITY=+1.)
           (12-MG-24,E-LVL=1.369,SPIN=2.0,PARITY=+1.)
           (12-MG-24,E-LVL=4.123,SPIN=4.0,PARITY=+1.)
           (12-MG-24,E-LVL=4.238,SPIN=2.0,PARITY=+1.)
           (12-MG-24,E-LVL=5.236,SPIN=3.0,PARITY=+1.)
           (12-MG-24,E-LVL=6.010,SPIN=4.0,PARITY=+1.)
           (12-MG-24,E-LVL=6.432,SPIN=0.0,PARITY=+1.)
           (12-MG-24,E-LVL=7.348,SPIN=2.0,PARITY=+1.)
           (12-MG-24,E-LVL=7.616,SPIN=3.0,PARITY=-1.)
           (12-MG-24,E-LVL=8.113,SPIN=6.0,PARITY=+1.)
           (12-MG-24,E-LVL=8.358,SPIN=3.0,PARITY=-1.)
           (12-MG-24,E-LVL=8.653,SPIN=2.0,PARITY=+1.)
           (12-MG-24,E-LVL=8.863,SPIN=2.0,PARITY=-1.)
           (12-MG-24,E-LVL=9.002,SPIN=2.0,PARITY=+1.)
           (12-MG-24,E-LVL=9.148,SPIN=1.0,PARITY=-1.)
ENDBIB              22
COMMON               1          3
ERR-DIG
PER-CENT
2.7
ENDCOMMON            3
DATA                 5        282
E-LVL      E-LVL      ANG-CM     DATA-CM    DATA-ERR
MEV        MEV        ADEG       MU-B/SR    PER-CENT
    0.00000               7.32000    9.60000   13.00000
    0.00000               9.97000   14.30000    9.00000
    0.00000              10.17000   16.80000    9.00000
    0.00000              13.43000   18.50000   11.00000
    0.00000              14.85000   15.80000    9.00000
    0.00000              17.50000   11.30000   10.00000
    0.00000              20.75000    5.50000    5.00000
    0.00000              23.40000    4.90000   10.00000
    0.00000              26.25000    7.10000   14.00000
    0.00000              28.89000    7.00000   16.00000
    0.00000              31.94000    5.30000   11.00000
    0.00000              34.18000    2.80000   11.00000
    0.00000              37.64000    1.31000   11.00000
    0.00000              40.08000    1.85000   15.00000
    1.36900               7.32000    9.80000   10.00000
    1.36900              10.58000    8.30000   11.00000
    1.36900              11.19000    7.00000    7.00000
    1.36900              14.24000    5.20000   13.00000
    1.36900              15.67000    6.80000   15.00000
    1.36900              18.31000    6.90000   19.00000
    1.36900              21.16000    8.40000   14.00000
    1.36900              23.81000    7.70000   14.00000
    1.36900              26.45000    9.50000   13.00000
    1.36900              29.71000    9.00000   10.00000
    1.36900              31.94000    9.00000   14.00000
    1.36900              35.20000    8.90000   12.00000
    1.36900              38.05000    6.40000   11.00000
    1.36900              40.49000    5.80000   14.00000
    4.12300               8.95000    3.30000   18.00000
    4.12300              12.21000    3.80000   16.00000
    4.12300              16.48000    3.90000   21.00000
    4.12300              19.13000    4.50000   18.00000
    4.12300              21.97000    4.20000   24.00000
    4.12300              25.23000    3.20000   25.00000
    4.12300              28.08000    2.50000   30.00000
    4.12300              33.57000    2.80000   21.00000
    4.12300              36.62000    3.20000   16.00000
    4.12300              39.07000    4.60000   17.00000
    4.12300              41.71000    3.90000   15.00000
    4.23800               8.14000   12.10000   12.00000
    4.23800              11.19000    8.50000    9.00000
    4.23800              11.80000    6.90000    9.00000
    4.23800              14.65000    4.60000   15.00000
    4.23800              16.07000    3.20000   22.00000
    4.23800              18.92000    2.00000   25.00000
    4.23800              21.77000    3.50000   29.00000
    4.23800              24.62000    2.10000   30.00000
    4.23800              27.26000    1.50000   30.00000
    4.23800              30.52000    1.70000   29.00000
    4.23800              33.17000    1.74000   15.00000
    4.23800              36.01000    1.57000   19.00000
    4.23800              38.46000    1.90000   21.00000
    4.23800              41.71000    1.20000   25.00000
    5.23600               9.00000    0.74000   23.00000
    5.23600              12.00000    1.43000   15.00000
    5.23600              16.50000    0.96000   20.00000
    5.23600              22.20000    1.40000   21.00000
    5.23600              28.40000    0.89000   19.00000
    5.23600              33.70000    0.66000   24.00000
    5.23600              39.70000    0.90000   30.00000
    6.01000               9.77000    1.90000   30.00000
    6.01000              13.43000    3.00000   20.00000
    6.01000              16.07000    3.90000   18.00000
    6.01000              17.70000    4.30000   14.00000
    6.01000              20.75000    3.80000   21.00000
    6.01000              23.20000    3.00000   20.00000
    6.01000              26.04000    2.20000   23.00000
    6.01000              29.10000    1.57000   18.00000
    6.01000              31.74000    2.00000   20.00000
    6.01000              34.79000    1.30000   23.00000
    6.01000              37.23000    1.61000   18.00000
    6.01000              40.49000    1.20000   25.00000
    6.01000              43.34000    1.30000   30.00000
    6.43200              12.90000    0.96000   19.00000
    6.43200              23.30000    0.51000   40.00000
    6.43200              28.70000    0.50000   22.00000
    6.43200              34.90000    0.50000   30.00000
    7.34800              10.00000    0.96000   21.00000
    7.34800              13.30000    0.96000    9.00000
    7.34800              18.10000    0.76000   30.00000
    7.34800              23.70000    0.91000   24.00000
    7.34800              29.40000    0.85000   26.00000
    7.34800              35.60000    0.83000   19.00000
    7.34800              40.70000    0.85000   19.00000
    7.61600              10.38000   14.70000   14.00000
    7.61600              13.63000   16.40000    9.00000
    7.61600              16.89000   15.70000
    7.61600              18.52000   12.91000
    7.61600              20.75000   11.36000
    7.61600              23.81000    6.70000    7.00000
    7.61600              26.86000    5.20000   12.00000
    7.61600              29.30000    5.70000   18.00000
    7.61600              32.35000    5.60000   14.00000
    7.61600              35.20000    6.20000   11.00000
    7.61600              37.85000    6.50000   11.00000
    7.61600              40.69000    7.10000   13.00000
    7.61600              43.54000    7.70000   12.00000
    8.11300              14.40000    0.31000   40.00000
    8.11300              19.20000    0.57000   28.00000
    8.11300              24.50000    0.68000   25.00000
    8.11300              30.20000    0.81000   26.00000
    8.11300              36.10000    0.82000   16.00000
    8.11300              42.10000    0.61000   15.00000
    8.35800              10.40000    1.31000   20.00000
    8.35800              14.30000    0.98000   21.00000
    8.35800              18.70000    0.67000   19.00000
    8.35800              24.50000    0.61000   18.00000
    8.35800              30.40000    0.54000   30.00000
    8.35800              36.30000    0.57000   23.00000
    8.35800              41.60000    0.52000   27.00000
    8.43700      8.438    9.90000    3.44000
    8.43700      8.438   13.30000    3.72000
    8.43700      8.438   17.80000    4.18000
    8.43700      8.438   23.60000    3.50000    8.00000
    8.43700      8.438   29.40000    1.95000   13.00000
    8.43700      8.438   35.60000    1.73000   13.00000
    8.43700      8.438   41.20000    1.80000   28.00000
    8.65300              10.30000    0.79000   16.00000
    8.65300              13.30000    0.26000   50.00000
    8.65300              18.10000    0.66000   40.00000
    8.65300              24.30000    0.63000   22.00000
    8.65300              30.20000    0.65000   30.00000
    8.65300              35.60000    0.27000   60.00000
    8.86300              14.80000    0.66000   40.00000
    8.86300              18.80000    0.82000   22.00000
    8.86300              23.30000    0.82000   21.00000
    8.86300              29.10000    0.55000   30.00000
    8.86300              34.90000    0.29000   50.00000
    9.00200              14.40000    0.25000   50.00000
    9.00200              34.00000    0.47000   40.00000
    9.00200              39.90000    0.50000   40.00000
    9.14800              13.70000    0.74000   18.00000
    9.14800              17.20000    1.19000    8.00000
    9.14800              22.00000    1.34000   12.00000
    9.14800              28.10000    1.02000   15.00000
    9.14800              33.70000    0.74000   19.00000
    9.14800              39.60000    0.66000   15.00000
    9.30100              13.40000    1.67000   13.00000
    9.30100              16.50000    1.61000    7.00000
    9.30100              21.30000    1.74000   10.00000
    9.30100              27.60000    2.23000
    9.30100              33.30000    2.31000
    9.30100              39.20000    2.18000
    9.30100              44.50000    1.98000
    9.44000              13.00000    0.45000   29.00000
    9.44000              16.30000    0.36000   40.00000
    9.44000              21.10000    0.34000   40.00000
    9.44000              26.80000    0.46000   30.00000
    9.44000              32.30000    0.32000   50.00000
    9.52600              12.60000    1.54000    8.00000
    9.52600              16.30000    1.54000   15.00000
    9.52600              20.80000    1.59000   11.00000
    9.52600              26.70000    1.85000    8.00000
    9.52600              32.60000    1.68000    7.00000
    9.52600              38.20000    1.40000    9.00000
    9.52600              43.70000    0.91000   16.00000
   10.02400              12.20000    0.59000   30.00000
   10.02400              16.10000    0.42000   40.00000
   10.02400              20.40000    0.55000   40.00000
   10.02400              26.30000    0.58000   30.00000
   10.02400              32.00000    0.69000   25.00000
   10.02400              38.00000    0.83000   25.00000
   10.11000              11.80000    0.22000   80.00000
   10.11000              15.30000    0.37000   50.00000
   10.11000              25.50000    0.51000   40.00000
   10.11000              31.50000    0.66000   27.00000
   10.11000              37.40000    0.58000   30.00000
   10.35200              13.70000    2.60000   12.00000
   10.35200              17.20000    2.22000    9.00000
   10.35200              21.70000    1.43000   10.00000
   10.35200              27.60000    1.70000   14.00000
   10.35200              33.20000    1.41000   12.00000
   10.35200              38.90000    1.85000   10.00000
   10.35200              44.20000    1.29000   11.00000
   10.58000              13.60000    0.85000   25.00000
   10.58000              16.80000    0.99000   26.00000
   10.58000              21.90000    0.72000   40.00000
   10.58000              27.30000    0.81000   23.00000
   10.58000              32.90000    0.72000   24.00000
   10.58000              38.30000    0.83000   25.00000
   10.58000              44.00000    0.81000   23.00000
   10.68000              16.60000    0.49000   50.00000
   10.68000              21.00000    0.65000   50.00000
   10.68000              26.80000    0.39000   50.00000
   10.68000              32.80000    0.59000   30.00000
   10.68000              38.00000    0.30000   40.00000
   10.92500              10.90000    0.57000   21.00000
   10.92500              14.70000    0.59000   25.00000
   10.92500              19.30000    0.58000   40.00000
   11.01600              11.30000    1.42000   10.00000
   11.01600              14.80000    1.42000    8.00000
   11.01600              19.40000    1.03000   14.00000
   11.01600              25.00000    0.76000   22.00000
   11.01600              30.90000    0.81000   15.00000
   11.01600              36.30000    0.87000   10.00000
   11.01600              41.90000    1.05000   19.00000
   11.13000              11.00000    1.22000   12.00000
   11.13000              14.70000    1.01000   14.00000
   11.13000              19.50000    1.05000   22.00000
   11.13000              25.20000    0.82000   27.00000
   11.13000              30.80000    0.76000   21.00000
   11.13000              36.20000    0.67000   21.00000
   11.13000              41.40000    0.25000   80.00000
   11.20000              11.60000    0.61000   21.00000
   11.20000              14.90000    0.91000   16.00000
   11.20000              19.40000    0.84000   25.00000
   11.20000              25.30000    0.80000   26.00000
   11.20000              30.90000    0.57000   28.00000
   11.20000              36.30000    0.56000   25.00000
   11.20000              42.00000    0.52000   40.00000
   11.31000              15.20000    0.20000   70.00000
   11.31000              19.30000    0.40000   40.00000
   11.31000              25.00000    0.45000   30.00000
   11.39000              11.70000    2.52000
   11.39000              15.10000    1.67000
   11.39000              19.40000    1.58000   14.00000
   11.39000              25.30000    1.87000   12.00000
   11.39000              31.20000    1.29000   17.00000
   11.39000              36.60000    1.44000   10.00000
   11.39000              42.20000    0.96000   18.00000
   11.46000              11.80000    1.69000   12.00000
   11.46000              15.00000    1.60000    9.00000
   11.46000              20.10000    1.16000   22.00000
   11.46000              25.70000    0.68000   30.00000
   11.46000              31.00000    0.72000   21.00000
   11.46000              36.70000    0.67000   19.00000
   11.46000              42.30000    0.53000   28.00000
   11.51000              17.70000    1.05000   17.00000
   11.51000              21.20000    0.81000   15.00000
   11.51000              25.90000    0.83000   30.00000
   11.51000              37.40000    0.60000   70.00000
   11.59600              17.00000    0.72000   26.00000
   11.59600              20.30000    0.83000   16.00000
   11.59600              25.10000    1.21000   17.00000
   11.59600              30.80000    2.10000   14.00000
   11.59600              36.70000    1.61000   12.00000
   11.59600              42.20000    0.98000   17.00000
   11.59600              47.60000    0.57000   25.00000
   11.69300              16.10000    0.40000   30.00000
   11.69300              19.50000    0.57000   21.00000
   11.69300              24.60000    0.70000   29.00000
   11.69300              29.90000    0.70000   29.00000
   11.69300              35.40000    0.50000   60.00000
   11.69300              41.50000    0.39000   70.00000
   11.85100              14.80000    0.87000   20.00000
   11.85100              18.30000    0.75000   28.00000
   11.85100              23.10000    1.03000   24.00000
   11.85100              28.80000    1.10000   40.00000
   11.85100              40.00000    0.40000   50.00000
   11.85100              46.00000    0.49000   22.00000
   11.98600              14.10000    2.00000   20.00000
   11.98600              17.60000    2.03000   14.00000
   11.98600              22.30000    1.46000   18.00000
   11.98600              28.00000    2.00000   20.00000
   11.98600              39.50000    0.74000   23.00000
   11.98600              45.10000    0.72000   17.00000
   12.14000              13.80000    0.90000   26.00000
   12.14000              17.50000    1.40000   21.00000
   12.14000              22.10000    0.90000   30.00000
   12.14000              44.60000    0.32000   40.00000
   12.24000              13.30000    0.62000   40.00000
   12.24000              17.00000    0.86000   30.00000
   12.24000              21.40000    0.80000   40.00000
   12.24000              38.20000    0.78000   30.00000
   12.24000              44.00000    0.49000   27.00000
   13.31000              20.40000    0.77000   29.00000
   13.31000              26.40000    0.89000   30.00000
   13.31000              31.90000    0.65000   40.00000
   13.79000              12.40000    0.72000   40.00000
   13.79000              15.40000    0.33000   60.00000
   13.79000              20.30000    0.68000   30.00000
   13.79000              26.20000    0.58000   40.00000
   13.79000              32.20000    0.69000   30.00000
   13.79000              37.70000    0.60000   40.00000
   13.79000              43.40000    0.69000   40.00000
   14.10000              11.80000    0.90000   30.00000
   14.10000              15.30000    0.90000   30.00000
   14.10000              20.40000    1.36000   20.00000
   14.10000              26.10000    1.50000   20.00000
   14.10000              31.40000    1.50000   20.00000
   14.10000              37.20000    1.13000   25.00000
   14.10000              42.90000    1.17000   24.00000
ENDDATA            284
ENDSUBENT          315
ENDENTRY             4
