ENTRY            F0353   20040615
SUBENT        F0353001   20040615
BIB                  7         13
TITLE      Analysis of the angular distributions and excitation
           functions of the elastic scattering of 20-24 MeV alpha-
           particles by carbon and oxygen.
AUTHOR     (J.Aguilar,C.Fernandez Pineda,J.Catala,J.L.Ferrero,
           A.Garcia)
INSTITUTE  (2SPNJNE,2SPNVAL)
REFERENCE  (J,ARS,65,201,1969)
METHOD     The experimetal method is given in ref.J,These Anales/A
           LXIII,35,217,1967.
ERR-ANALYS (DATA-ERR1)Error from the graphic bars
           (ANG-ERR-D)Digitizing error
           (ERR-DIG)Digitizing error
HISTORY    (20040318C)
ENDBIB              13
NOCOMMON
ENDSUBENT           16
SUBENT        F0353002   20040615
BIB                  2          2
REACTION   (6-C-12(A,EL)6-C-12,,DA)
STATUS     (CURVE)Fig.1-4
ENDBIB               2
COMMON               2          3
ANG-ERR-D  ERR-DIG
ADEG       PER-CENT
 0.27       0.2
ENDCOMMON            3
DATA                 5        198
EN         EN-ERR     ANG-CM     DATA-CM    DATA-ERR1
MEV        MEV        ADEG       MB/SR      MB/SR
 20.100    0.17000     18.905     878.65     53.269
 20.100    0.17000     22.474     256.95     20.557
 20.100    0.17000     32.611     87.909     4.4666
 20.100    0.17000     34.660     112.92     6.8460
 20.100    0.17000     38.815     76.820     5.4056
 20.100    0.17000     42.202     47.576     4.2615
 20.100    0.17000     45.385     13.068     1.0458
 20.100    0.17000     48.760     9.7633    0.78138
 20.100    0.17000     51.816     18.254     1.4605
 20.100    0.17000     55.383     37.099     2.9682
 20.100    0.17000     58.453     56.310     2.8581
 20.100    0.17000     61.792     72.341     3.6737
 20.100    0.17000     63.617     55.178     2.2533
 20.100    0.17000     70.637     25.533     1.7967
 20.100    0.17000     73.506     16.145     1.1361
 20.100    0.17000     75.884     7.0146    0.56121
 20.100    0.17000     82.825     10.876    0.76557
 20.100    0.17000     87.719     12.723    0.89528
 20.100    0.17000     93.934     9.3126    0.65530
 20.100    0.17000     97.308     7.0307    0.56269
 20.100    0.17000     99.205     1.8138    0.11001
 20.100    0.17000     102.02     2.5860    0.18197
 20.100    0.17000     104.32     3.4996    0.24617
 20.100    0.17000     108.95     4.6394    0.32646
 20.100    0.17000     110.97     10.036    0.89843
 20.100    0.17000     114.04     13.869     1.6303
 20.100    0.17000     118.43     14.466     1.1574
 20.100    0.17000     123.60     13.178     1.1804
 20.100    0.17000     127.48     10.815    0.86498
 20.100    0.17000     130.07     9.8490     1.1580
 20.100    0.17000     132.96     4.5555    0.32056
 20.100    0.17000     136.31     4.7019    0.37618
 20.100    0.17000     140.69     5.7945    0.51888
 20.100    0.17000     144.56     5.9810    0.36261
 20.100    0.17000     148.96     4.6111    0.32435
 20.100    0.17000     152.07     3.7058    0.26077
 20.100    0.17000     156.74     2.7404    0.16621
 20.100    0.17000     160.02     8.3630    0.50702
 20.100    0.17000     163.10     11.678    0.59305
 20.100    0.17000     166.88     43.900     2.2283
 20.100    0.17000     169.20     47.235     1.9290
 20.100    0.17000     169.94     77.910     4.7234
 20.100    0.17000     172.49     124.57     9.9668
 20.100    0.17000     172.71     214.21     12.987
 20.600    0.23000     15.425     675.14     29.435
 20.600    0.23000     17.901     113.43     4.9453
 20.600    0.23000     21.111     70.187     4.5397
 20.600    0.23000     21.783     25.171     1.3642
 20.600    0.23000     28.671     244.10     10.627
 20.600    0.23000     31.950     241.20     10.516
 20.600    0.23000     34.876     138.06     3.0431
 20.600    0.23000     38.326     67.599     4.3723
 20.600    0.23000     41.832     7.3518    0.55172
 20.600    0.23000     44.329     9.4941    0.51397
 20.600    0.23000     48.360     39.060     1.7005
 20.600    0.23000     51.487     90.035     4.8853
 20.600    0.23000     54.518     106.34     5.7700
 20.600    0.23000     57.512     97.199     6.2869
 20.600    0.23000     60.510     91.865     4.9789
 20.600    0.23000     63.748     68.702     5.1516
 20.600    0.23000     66.097     31.824     2.0584
 20.600    0.23000     70.874     11.789    0.76180
 20.600    0.23000     73.038     10.081    0.54699
 20.600    0.23000     75.687     5.6433    0.42351
 20.600    0.23000     78.478     8.4234    0.54431
 20.600    0.23000     82.053     9.7283    0.42414
 20.600    0.23000     85.344     10.509    0.45819
 20.600    0.23000     88.054     8.9852    0.48698
 20.600    0.23000     91.045     8.0319    0.43581
 20.600    0.23000     92.873     4.4473    0.19418
 20.600    0.23000     96.313     2.0367    0.15272
 20.600    0.23000     98.080    0.73841    0.55459E-01
 20.600    0.23000     102.15    0.58375    0.43844E-01
 20.600    0.23000     104.88    0.57691    0.49208E-01
 20.600    0.23000     106.65     1.4706    0.12544
 20.600    0.23000     108.69     3.5059    0.33438
 20.600    0.23000     115.61     6.1107    0.45895
 20.600    0.23000     121.10     7.2130    0.46654
 20.600    0.23000     123.84     7.6214    0.41306
 20.600    0.23000     126.02     7.5329    0.40780
 20.600    0.23000     127.96     8.8008    0.66046
 20.600    0.23000     131.17     5.4458    0.17906
 20.600    0.23000     133.35     5.3826    0.34815
 20.600    0.23000     134.70     4.7601    0.30788
 20.600    0.23000     136.50     2.1091    0.15828
 20.600    0.23000     138.36     1.4273    0.15052
 20.600    0.23000     142.01     2.7831    0.23739
 20.600    0.23000     143.38     2.9416    0.19008
 20.600    0.23000     144.98     2.2756    0.19410
 20.600    0.23000     146.87     1.8820    0.17960
 20.600    0.23000     148.57     2.8413    0.18378
 20.600    0.23000     151.22     1.6447    0.10628
 20.600    0.23000     152.92     2.4831    0.16060
 20.600    0.23000     154.20     1.3751    0.11729
 20.600    0.23000     156.12     1.4371    0.10794
 20.600    0.23000     157.01     2.2190    0.25601
 20.600    0.23000     159.24     3.1331    0.36147
 20.600    0.23000     161.48     4.3746    0.28295
 20.600    0.23000     162.88     5.7142    0.36959
 20.600    0.23000     165.16     10.780     1.0281
 20.600    0.23000     167.09     11.649    0.87420
 20.600    0.23000     168.79     18.803     1.2162
 20.600    0.23000     169.23     58.597     4.3975
 20.600    0.23000     170.90     71.585     5.3722
 20.600    0.23000     173.10     77.353     5.8050
 21.800    0.16000     16.188     749.11     49.893
 21.800    0.16000     22.066     140.33     9.3462
 21.800    0.16000     24.435     84.895     4.0783
 21.800    0.16000     27.641     151.68     8.7016
 21.800    0.16000     30.839     250.49     12.033
 21.800    0.16000     33.996     276.26     15.859
 21.800    0.16000     37.569     157.51     10.491
 21.800    0.16000     40.410     85.501     6.4798
 21.800    0.16000     44.540     9.5073    0.63284
 21.800    0.16000     48.456     14.367     1.0883
 21.800    0.16000     51.233     43.690     2.9115
 21.800    0.16000     53.713     78.072     5.9138
 21.800    0.16000     56.157     97.874     7.4100
 21.800    0.16000     60.271     96.847     7.3359
 21.800    0.16000     63.837     51.540     3.9040
 21.800    0.16000     66.722     42.725     4.0047
 21.800    0.16000     70.444     9.9430    0.75316
 21.800    0.16000     73.482     3.4652    0.23079
 21.800    0.16000     76.787     1.5447    0.10288
 21.800    0.16000     78.858     5.7203    0.43308
 21.800    0.16000     82.244     5.5506    0.47050
 21.800    0.16000     84.629     3.9309    0.40351
 21.800    0.16000     87.708     2.0513    0.17396
 21.800    0.16000     94.180     1.1128    0.94329E-01
 21.800    0.16000     98.657     3.5538    0.20387
 21.800    0.16000     103.52     4.2394    0.16372
 21.800    0.16000     108.50     1.5669    0.89886E-01
 21.800    0.16000     113.80     1.2239    0.92751E-01
 21.800    0.16000     118.77     4.6659    0.43735
 21.800    0.16000     123.47     11.310    0.75281
 21.800    0.16000     126.86     12.596     1.0682
 21.800    0.16000     131.93     10.438    0.79104
 21.800    0.16000     135.79     9.6408    0.64210
 21.800    0.16000     140.35     6.5615    0.43726
 21.800    0.16000     144.52     11.381    0.75797
 21.800    0.16000     147.87     7.3027    0.61957
 21.800    0.16000     151.94     4.7786    0.31845
 21.800    0.16000     156.37     10.192    0.67879
 21.800    0.16000     159.04     10.914    0.92553
 21.800    0.16000     162.22     14.371     1.4752
 21.800    0.16000     164.97     34.165     1.9613
 21.800    0.16000     165.57     109.18     11.211
 21.800    0.16000     168.25     127.75     10.829
 21.800    0.16000     169.33     355.64     33.349
 23.900    0.18000     18.982     459.30     28.017
 23.900    0.18000     24.842     100.45     6.1276
 23.900    0.18000     27.048     69.613     4.2496
 23.900    0.18000     30.502     114.05     10.280
 23.900    0.18000     33.648     253.27     20.398
 23.900    0.18000     37.152     275.61     22.198
 23.900    0.18000     39.610     223.55     9.1967
 23.900    0.18000     43.755     105.12     6.4172
 23.900    0.18000     46.317     36.075     2.5540
 23.900    0.18000     50.786     10.919    0.98372
 23.900    0.18000     57.675     34.302     1.4095
 23.900    0.18000     60.319     55.603     3.9366
 23.900    0.18000     63.235     89.195     5.4409
 23.900    0.18000     66.527     59.283     4.1998
 23.900    0.18000     69.263     45.154     2.7564
 23.900    0.18000     72.278     31.959     1.9495
 23.900    0.18000     75.912     11.805    0.95080
 23.900    0.18000     79.219     6.9912    0.62952
 23.900    0.18000     82.002     3.6121    0.35955
 23.900    0.18000     84.747     2.5298    0.20363
 23.900    0.18000     86.903     2.6670    0.21480
 23.900    0.18000     87.949     3.5783    0.35618
 23.900    0.18000     89.319     3.0581    0.21650
 23.900    0.18000     91.308     1.3784    0.11089
 23.900    0.18000     94.327    0.93549    0.10191
 23.900    0.18000     96.684     1.7562    0.19131
 23.900    0.18000     99.887     2.4325    0.26520
 23.900    0.18000     102.73     7.1702    0.71403
 23.900    0.18000     104.85     10.355    0.73311
 23.900    0.18000     107.79     13.467     1.2139
 23.900    0.18000     110.20     15.604     1.5540
 23.900    0.18000     112.62     17.521     1.2396
 23.900    0.18000     118.84     17.358     1.7293
 23.900    0.18000     123.46     13.506     1.0871
 23.900    0.18000     128.01     20.781     1.4722
 23.900    0.18000     132.01     31.308     2.8206
 23.900    0.18000     136.92     22.401     1.5859
 23.900    0.18000     140.98     20.830     1.4747
 23.900    0.18000     145.39     10.542    0.64305
 23.900    0.18000     150.53     9.6012    0.58567
 23.900    0.18000     153.45     14.615     1.4547
 23.900    0.18000     158.28     20.896     2.4734
 23.900    0.18000     162.61     19.229     1.3614
 23.900    0.18000     164.80     15.273     1.6631
 23.900    0.18000     169.97     11.760     1.1712
 23.900    0.18000     170.68     26.939     2.9359
 23.900    0.18000     174.67     46.031     3.7052
 23.900    0.18000     175.92     102.19     8.2207
 23.900    0.18000     178.49     317.41     28.581
ENDDATA            200
ENDSUBENT          211
SUBENT        F0353003   20040615
BIB                  2          2
REACTION   (8-O-16(A,EL)8-O-16,,DA)
STATUS     (CURVE)Fig.5-7
ENDBIB               2
COMMON               2          3
ANG-ERR-D  ERR-DIG
ADEG       PER-CENT
  0.2       0.2
ENDCOMMON            3
DATA                 5        188
EN         EN-ERR     ANG-CM     DATA-CM    DATA-ERR1
MEV        MEV        ADEG       MB/SR      MB/SR
 20.100    0.23000     12.817     5323.4     282.34
 20.100    0.23000     15.583     3262.4     256.07
 20.100    0.23000     17.784     1143.5     60.645
 20.100    0.23000     21.412     245.51     16.167
 20.100    0.23000     23.469     187.07     12.319
 20.100    0.23000     24.533     134.94     8.8728
 20.100    0.23000     27.840     165.70     8.7884
 20.100    0.23000     31.123     233.18     12.367
 20.100    0.23000     33.522     170.58     11.233
 20.100    0.23000     36.027     70.411     2.8198
 20.100    0.23000     40.267     20.685     1.0991
 20.100    0.23000     43.490     6.5034    0.42826
 20.100    0.23000     46.859     35.262     2.7677
 20.100    0.23000     49.424     64.268     5.0384
 20.100    0.23000     52.694     96.815     6.3754
 20.100    0.23000     55.687     106.60     8.3772
 20.100    0.23000     57.744     81.225     6.3755
 20.100    0.23000     61.509     51.170     4.0164
 20.100    0.23000     64.655     24.542     1.6161
 20.100    0.23000     67.427     14.636     1.5100
 20.100    0.23000     73.103     15.483    0.82265
 20.100    0.23000     75.422     17.515     1.1534
 20.100    0.23000     77.115     15.714    0.83344
 20.100    0.23000     81.725     23.362     1.8315
 20.100    0.23000     84.081     21.543     1.4186
 20.100    0.23000     86.813     15.977    0.84893
 20.100    0.23000     88.872     12.009    0.94149
 20.100    0.23000     91.224     11.380    0.89434
 20.100    0.23000     93.598     9.5401    0.62822
 20.100    0.23000     96.948     9.2932    0.72943
 20.100    0.23000     99.597     10.804    0.84805
 20.100    0.23000     106.20     16.972    0.67970
 20.100    0.23000     109.18     20.558     1.3518
 20.100    0.23000     111.63     11.144    0.73276
 20.100    0.23000     114.66     10.279    0.54514
 20.100    0.23000     117.31     12.114    0.79887
 20.100    0.23000     118.83     26.349     2.0682
 20.100    0.23000     121.42     43.656     2.3196
 20.100    0.23000     123.68     65.743     4.3230
 20.100    0.23000     126.31     85.236     4.5289
 20.100    0.23000     127.99     85.280     5.6157
 20.100    0.23000     130.33     85.341     4.5345
 20.100    0.23000     131.69     72.499     4.7672
 20.100    0.23000     133.88     27.953     2.1941
 20.100    0.23000     136.66     15.786     1.0395
 20.100    0.23000     139.13     7.7790    0.41333
 20.100    0.23000     142.00     16.472     1.0847
 20.100    0.23000     143.50     42.770     3.3570
 20.100    0.23000     145.01     103.74     6.8314
 20.100    0.23000     147.30     140.10     9.2254
 20.100    0.23000     148.89     213.83     11.320
 20.100    0.23000     150.89     219.87     11.661
 20.100    0.23000     153.58     202.78     15.916
 20.100    0.23000     154.95     174.63     11.499
 20.100    0.23000     157.41     93.380     4.9616
 20.100    0.23000     158.88     45.378     2.4067
 20.100    0.23000     160.45     12.787    0.84325
 20.100    0.23000     163.27     35.075     1.8637
 20.100    0.23000     165.70     137.10     7.2713
 20.100    0.23000     167.60     249.82     19.609
 20.100    0.23000     169.46     536.09     28.433
 20.100    0.23000     170.52     402.83     31.618
 20.100    0.23000     171.33     1166.2     91.534
 20.100    0.23000     172.94     1618.0     106.55
 21.500    0.14000     10.899     5306.0     352.25
 21.500    0.14000     14.680     2527.7     135.23
 21.500    0.14000     16.435     940.15     62.413
 21.500    0.14000     20.588     248.09     10.017
 21.500    0.14000     21.966     178.43     11.840
 21.500    0.14000     24.684     185.98     17.058
 21.500    0.14000     26.369     238.20     15.813
 21.500    0.14000     28.064     262.28     17.412
 21.500    0.14000     30.108     241.57     16.037
 21.500    0.14000     35.292     52.597     4.8227
 21.500    0.14000     40.163     7.0800    0.28608
 21.500    0.14000     42.809     26.481     2.0953
 21.500    0.14000     45.466     81.714     6.4656
 21.500    0.14000     47.831     106.11     8.3930
 21.500    0.14000     51.564     118.48     7.8653
 21.500    0.14000     53.265     115.28     7.6533
 21.500    0.14000     56.016     65.652     2.6509
 21.500    0.14000     57.036     65.658     3.5089
 21.500    0.14000     60.827     25.806     1.3806
 21.500    0.14000     63.564     19.079     1.0202
 21.500    0.14000     66.309     11.962    0.63962
 21.500    0.14000     69.012     16.187    0.86555
 21.500    0.14000     75.108     24.124     1.9088
 21.500    0.14000     77.488     24.129     1.6018
 21.500    0.14000     80.562     18.591     1.2342
 21.500    0.14000     83.321     9.2281    0.49344
 21.500    0.14000     85.723     6.1123    0.32684
 21.500    0.14000     88.180     1.5264    0.10138
 21.500    0.14000     91.226     1.9552    0.17928
 21.500    0.14000     93.554     4.9097    0.32594
 21.500    0.14000     96.242     8.6256    0.68226
 21.500    0.14000     98.241     17.869     1.1857
 21.500    0.14000     101.63     22.889     1.8111
 21.500    0.14000     104.00     26.998     1.4428
 21.500    0.14000     106.38     25.211     1.3488
 21.500    0.14000     107.75     22.902     1.5197
 21.500    0.14000     111.85     13.593     1.0755
 21.500    0.14000     113.92     8.7590    0.58148
 21.500    0.14000     116.29     9.5137    0.50871
 21.500    0.14000     118.30     18.149     1.2043
 21.500    0.14000     121.32     33.228     2.2059
 21.500    0.14000     125.02     75.797     4.0530
 21.500    0.14000     126.71     83.461     5.5407
 21.500    0.14000     130.10     94.476     5.0518
 21.500    0.14000     132.50     73.793     5.8389
 21.500    0.14000     134.90     46.904     3.1138
 21.500    0.14000     136.96     32.822     1.7560
 21.500    0.14000     138.70     15.209    0.81325
 21.500    0.14000     141.10     11.717    0.92681
 21.500    0.14000     143.43     25.296     1.3526
 21.500    0.14000     144.75     57.690     3.8282
 21.500    0.14000     147.10     93.331     7.3822
 21.500    0.14000     149.12     137.14     10.855
 21.500    0.14000     151.14     173.25     11.502
 21.500    0.14000     152.85     164.02     10.888
 21.500    0.14000     154.55     146.97     11.625
 21.500    0.14000     156.27     104.26     6.9215
 21.500    0.14000     158.34     67.185     5.3141
 21.500    0.14000     161.15     13.468    0.89407
 21.500    0.14000     163.21     8.6785    0.57613
 21.500    0.14000     164.84     32.457     2.5681
 21.500    0.14000     166.46     121.38     9.6010
 21.500    0.14000     168.44     354.51     23.545
 21.500    0.14000     170.11     589.47     46.625
 23.200    0.14000     12.222     4407.5     290.58
 23.200    0.14000     14.635     2452.5     161.81
 23.200    0.14000     17.780     738.76     48.742
 23.200    0.14000     21.259     225.60     20.545
 23.200    0.14000     24.334     141.95     9.3585
 23.200    0.14000     27.004     184.02     12.123
 23.200    0.14000     30.724     156.32     14.236
 23.200    0.14000     33.110     115.84     13.383
 23.200    0.14000     35.937     28.436     1.8761
 23.200    0.14000     40.119     6.4331    0.58584
 23.200    0.14000     42.378     18.147     1.6526
 23.200    0.14000     44.649     45.276     4.1210
 23.200    0.14000     47.984     64.583     8.2351
 23.200    0.14000     52.014     73.065     7.5535
 23.200    0.14000     54.734     55.643     5.7524
 23.200    0.14000     58.114     48.573     1.3072
 23.200    0.14000     60.274     11.136    0.73420
 23.200    0.14000     63.755     3.3547    0.30534
 23.200    0.14000     66.848     1.7438    0.92597E-01
 23.200    0.14000     69.495     2.8898    0.22695
 23.200    0.14000     72.513     3.3137    0.38283
 23.200    0.14000     75.224     2.7764    0.18305
 23.200    0.14000     77.653     1.2939    0.85305E-01
 23.200    0.14000     81.691     1.3488    0.10606
 23.200    0.14000     83.289     3.3648    0.26458
 23.200    0.14000     85.577     7.0310    0.64030
 23.200    0.14000     88.244     9.3671    0.73610
 23.200    0.14000     91.259     11.038     1.0052
 23.200    0.14000     92.939     11.502    0.61020
 23.200    0.14000     95.959     13.011    0.85842
 23.200    0.14000     98.644     14.320    0.94342
 23.200    0.14000     101.97     21.280     1.4030
 23.200    0.14000     103.64     25.416     2.3133
 23.200    0.14000     106.01     23.749     1.2611
 23.200    0.14000     109.04     22.498     1.4833
 23.200    0.14000     110.42     15.784    0.83813
 23.200    0.14000     113.17     9.2759    0.61155
 23.200    0.14000     116.55     7.8794    0.51987
 23.200    0.14000     118.53     11.707    0.92050
 23.200    0.14000     120.84     21.053     1.3870
 23.200    0.14000     123.16     31.281     2.0623
 23.200    0.14000     125.82     42.246     3.3198
 23.200    0.14000     126.81     53.279     2.8318
 23.200    0.14000     129.83     58.645     3.1170
 23.200    0.14000     132.18     61.956     4.0877
 23.200    0.14000     134.25     40.605     2.6770
 23.200    0.14000     138.07     11.271    0.88627
 23.200    0.14000     141.18     5.0426    0.33245
 23.200    0.14000     143.46     11.281     1.0273
 23.200    0.14000     144.73     25.578     1.6851
 23.200    0.14000     149.03     55.696     3.6720
 23.200    0.14000     153.38     77.321     5.0977
 23.200    0.14000     156.45     52.084     4.7431
 23.200    0.14000     158.53     27.442     2.1578
 23.200    0.14000     161.31     10.858    0.98883
 23.200    0.14000     163.71     7.5157    0.59025
 23.200    0.14000     165.95     23.645     1.5589
 23.200    0.14000     166.52     72.370     5.6836
 23.200    0.14000     167.82     121.55     8.0138
 23.200    0.14000     170.45     240.52     18.912
ENDDATA            190
ENDSUBENT          201
SUBENT        F0353004   20040615
BIB                  2          2
REACTION   (6-C-12(A,EL)6-C-12,,DA,,RTH)
STATUS     (CURVE)Fig.12-16
ENDBIB               2
COMMON               2          3
ANG-ERR-D  ERR-DIG
ADEG       PER-CENT
 0.17       0.2
ENDCOMMON            3
DATA                 4        184
EN         ANG-CM     DATA-CM    DATA-ERR1
MEV        ADEG       NO-DIM     NO-DIM
 20.100     13.107    0.89892    0.68813E-01
 20.100     16.002    0.92368    0.70647E-01
 20.100     19.229    0.87659    0.77710E-01
 20.100     22.873    0.40654    0.40921E-01
 20.100     25.617    0.11388    0.58757E-02
 20.100     32.454    0.74984    0.66473E-01
 20.100     35.592     1.3995    0.10704
 20.100     38.844     1.1031    0.84369E-01
 20.100     42.080    0.97969    0.86850E-01
 20.100     45.411    0.42518    0.37692E-01
 20.100     49.298    0.35816    0.40294E-01
 20.100     52.725    0.86006    0.86571E-01
 20.100     55.501     2.1775    0.21918
 20.100     57.990     4.2284    0.47544
 20.100     61.800     6.3839    0.64258
 20.100     64.390     5.7447    0.29678
 20.100     71.531     3.7641    0.33369
 20.100     73.820     2.8886    0.22113
 20.100     76.516     1.1730    0.11807
 20.100     82.852     2.6031    0.19910
 20.100     87.617     4.2565    0.37678
 20.100     94.097     3.1840    0.20427
 20.100     96.699     2.6112    0.19971
 20.100     102.60     1.1490    0.87881E-01
 20.100     105.13     1.6666    0.14775
 20.100     108.61     2.6181    0.23210
 20.100     112.05     5.9623    0.60014
 20.100     114.24     9.3637    0.83010
 20.100     119.06     10.286    0.91183
 20.100     122.28     10.293    0.78726
 20.100     127.76     10.036    0.76759
 20.100     130.69     8.2309    0.52806
 20.100     132.39     4.0772    0.26130
 20.100     136.24     4.3605    0.43919
 20.100     141.04     5.8440    0.65710
 20.100     144.25     6.3325    0.56097
 20.100     148.78     5.2648    0.46673
 20.100     152.67     4.2620    0.37811
 20.100     158.68     9.8411    0.75269
 20.100     162.83     13.363     1.0221
 20.100     165.22     54.531     5.4854
 20.100     167.79     57.535     4.3967
 20.100     168.68     99.119     6.3591
 20.100     170.88     145.68     11.142
 20.100     172.73     271.81     24.078
 21.800     12.158    0.58965    0.61511E-01
 21.800     16.110     1.1275    0.11762
 21.800     18.835    0.95645    0.87970E-01
 21.800     23.036    0.35035    0.27813E-01
 21.800     26.074    0.35062    0.36576E-01
 21.800     28.619    0.97211    0.77094E-01
 21.800     32.869     2.4151    0.16070
 21.800     35.841     3.7039    0.34039
 21.800     38.914     2.9331    0.15744
 21.800     42.670     2.1985    0.22935
 21.800     45.999    0.32000    0.33407E-01
 21.800     48.911    0.73170    0.76330E-01
 21.800     52.452     2.2655    0.20820
 21.800     55.356     5.4736    0.43409
 21.800     58.327     8.5112    0.78282
 21.800     62.356     9.7778    0.65139
 21.800     64.443     6.4720    0.51276
 21.800     67.488     6.1298    0.40787
 21.800     70.732     1.5692    0.18304
 21.800     73.570    0.63277    0.50182E-01
 21.800     77.038    0.34078    0.31370E-01
 21.800     78.877     1.1614    0.10673
 21.800     82.558     1.4292    0.11324
 21.800     84.954     1.1473    0.90898E-01
 21.800     88.066    0.69935    0.72956E-01
 21.800     93.524    0.47624    0.49717E-01
 21.800     99.411     1.6473    0.15138
 21.800     104.08     2.4252    0.22306
 21.800     108.93     1.0197    0.10637
 21.800     113.33    0.96611    0.64284E-01
 21.800     118.55     3.2059    0.29462
 21.800     123.10     10.066    0.79832
 21.800     128.48     11.568     1.0631
 21.800     131.86     10.958     1.0062
 21.800     135.92     10.099    0.80012
 21.800     140.36     7.2647    0.57614
 21.800     143.32     11.936    0.94660
 21.800     147.41     8.9476    0.82227
 21.800     153.21     6.0936    0.40498
 21.800     155.47     11.809    0.78669
 21.800     158.50     12.316    0.97581
 21.800     162.49     19.156     2.2330
 21.800     166.41     43.813     4.0298
 21.800     168.26     135.60     10.743
 21.800     169.58     166.77     13.213
 21.800     171.79     468.74     25.122
 21.800     173.78     576.59     52.943
 22.000     132.56     34.584     3.0555
 22.000     136.85     15.928    0.95341
 22.000     142.58     9.2353    0.68502
 22.000     144.54     6.9836    0.41802
 22.000     148.46     7.4608    0.50049
 22.000     152.47     14.890    0.78407
 22.000     155.91     19.905     1.6197
 22.000     159.50     8.6908    0.58301
 22.000     161.54     22.413     1.3434
 22.000     162.93     41.824     2.8090
 22.000     166.37     52.971     4.3102
 22.000     168.40     133.48     10.861
 22.000     169.86     197.60     13.256
 22.000     173.17     394.62     37.691
 23.000     118.90     20.907     1.8793
 23.000     120.79     20.797     1.5327
 23.000     123.14     31.064     1.7765
 23.000     125.53     27.150     1.8524
 23.000     127.81     30.929     1.5956
 23.000     130.01     27.190     3.1629
 23.000     132.02     21.753     1.8397
 23.000     134.41     19.238     1.6258
 23.000     136.44     12.598    0.99695
 23.000     137.72     14.688     1.3212
 23.000     140.43     10.760    0.73380
 23.000     142.41     11.692    0.66867
 23.000     144.08     14.377    0.58013
 23.000     145.76     16.864     1.0578
 23.000     147.94     17.794     1.0176
 23.000     150.32     19.225    0.99240
 23.000     151.90     21.012     1.2016
 23.000     153.58     23.932     1.8939
 23.000     155.49     17.839    0.92084
 23.000     156.79     17.846     1.1199
 23.000     158.98     17.239     1.0813
 23.000     161.00     11.223    0.57933
 23.000     162.78     13.558    0.92463
 23.000     164.27     12.639    0.99987
 23.000     166.03     17.691     1.3038
 23.000     168.61     18.452     1.1568
 23.000     169.28     26.123     1.4931
 23.000     170.67     69.878     3.6027
 23.900     18.264    0.64785    0.66453E-01
 23.900     22.787    0.24436    0.19051E-01
 23.900     26.137    0.30319    0.23618E-01
 23.900     28.593    0.83587    0.54670E-01
 23.900     31.721     2.4322    0.18946
 23.900     34.436     3.7987    0.24845
 23.900     38.111     4.4648    0.29201
 23.900     41.040     2.8168    0.25469
 23.900     45.244     1.1681    0.76396E-01
 23.900     48.451    0.48447    0.37770E-01
 23.900     52.482    0.68810    0.62126E-01
 23.900     54.638     2.4202    0.15829
 23.900     57.390     5.0219    0.32879
 23.900     61.460     9.6053    0.98464
 23.900     63.419     7.4250    0.57887
 23.900     66.393     6.5696    0.51174
 23.900     70.693     5.7330    0.37496
 23.900     73.919     2.7594    0.28304
 23.900     75.835     1.5209    0.11858
 23.900     79.086    0.88469    0.57862E-01
 23.900     81.379    0.69314    0.54039E-01
 23.900     83.055    0.78260    0.41170E-01
 23.900     86.737    0.97096    0.75635E-01
 23.900     88.327    0.56499    0.64767E-01
 23.900     91.592    0.36620    0.23976E-01
 23.900     91.896    0.29491    0.15534E-01
 23.900     93.348    0.76002    0.49709E-01
 23.900     97.057     1.1708    0.12002
 23.900     99.205     3.8488    0.44096
 23.900     101.59     6.1765    0.63355
 23.900     104.30     8.8945    0.46912
 23.900     106.31     10.458    0.68468
 23.900     109.32     12.128    0.94472
 23.900     113.97     12.618    0.98453
 23.900     118.61     11.312    0.73985
 23.900     123.34     20.493     1.3404
 23.900     127.38     32.434     3.3269
 23.900     132.65     23.415     2.1156
 23.900     135.64     23.086     2.3680
 23.900     140.20     11.568    0.90189
 23.900     143.52     11.251    0.87719
 23.900     147.58     20.387     1.8420
 23.900     152.29     30.977     2.7968
 23.900     156.26     29.320     2.2878
 23.900     159.56     23.918     1.2599
 23.900     163.50     17.272     1.7717
 23.900     164.28     42.175     2.7584
 23.900     168.67     73.372     5.7251
 23.900     169.43     152.31     15.614
 23.900     172.91     521.27     65.925
ENDDATA            186
ENDSUBENT          197
SUBENT        F0353005   20040615
BIB                  2          2
REACTION   (8-O-16(A,EL)8-O-16,,DA,,RTH)
STATUS     (CURVE)Fig.17-20
ENDBIB               2
COMMON               2          3
ANG-ERR-D  ERR-DIG
ADEG       PER-CENT
 0.1        0.2
ENDCOMMON            3
DATA                 4        151
EN         ANG-CM     DATA-CM    DATA-ERR1
MEV        ADEG       NO-DIM     NO-DIM
 20.600     132.46     36.357     2.9614
 20.600     134.17     23.527     2.3706
 20.600     136.80     11.675     1.0645
 20.600     137.86     5.7317    0.52250
 20.600     139.70     5.7329    0.52269
 20.600     140.61     7.6376    0.69613
 20.600     142.94     32.387     2.9533
 20.600     145.15     63.927     5.2081
 20.600     146.97     108.74     11.991
 20.600     148.54     138.86     12.660
 20.600     150.50     154.45     12.581
 20.600     152.46     151.24     12.321
 20.600     154.83     107.69     7.7159
 20.600     156.79     83.479     6.7998
 20.600     159.97     9.3662    0.85382
 20.600     160.64     4.4537    0.36284
 20.600     162.20     9.4686    0.86316
 20.600     162.97     21.002     1.2963
 20.600     165.04     92.921     7.5702
 20.600     167.11     280.49     30.927
 20.600     168.94     442.94     31.730
 20.600     170.63     714.49     51.192
 20.600     171.41     951.85     95.896
 21.500     10.644    0.64190    0.43720E-01
 21.500     14.176    0.83835    0.68045E-01
 21.500     17.258    0.63164    0.59398E-01
 21.500     20.602    0.29872    0.28091E-01
 21.500     23.367    0.26661    0.21640E-01
 21.500     24.115    0.35346    0.33272E-01
 21.500     25.989    0.72542    0.49409E-01
 21.500     30.254     1.1541    0.78606E-01
 21.500     32.462    0.33322    0.35564E-01
 21.500     41.916    0.44058    0.24131E-01
 21.500     45.992     1.6576    0.15588
 21.500     49.578     2.9114    0.27378
 21.500     51.374     3.9133    0.26693
 21.500     54.537     4.5659    0.37060
 21.500     57.278     3.5892    0.29132
 21.500     62.303     1.2264    0.99427E-01
 21.500     66.450     1.0341    0.56743E-01
 21.500     67.914     1.5129    0.12295
 21.500     71.126     2.3079    0.18755
 21.500     73.959     2.9727    0.20276
 21.500     77.818     3.4677    0.32609
 21.500     81.271     2.9661    0.20202
 21.500     83.220     1.3837    0.94244E-01
 21.500     84.919     1.1035    0.10388
 21.500     88.536    0.34661    0.28167E-01
 21.500     91.368    0.44644    0.41983E-01
 21.500     93.625     1.1006    0.60390E-01
 21.500     97.266     2.5997    0.24447
 21.500     100.21     6.2294    0.66427
 21.500     102.34     7.6926    0.82031
 21.500     104.82     9.4986    0.77097
 21.500     108.65     9.3547    0.51330
 21.500     111.01     6.2972    0.59218
 21.500     114.41     4.0051    0.37664
 21.500     117.22     4.6081    0.31386
 21.500     119.80     9.7262    0.66246
 21.500     120.94     16.620     1.1337
 21.500     124.95     42.722     4.0216
 21.500     127.41     49.159     4.6228
 21.500     130.56     53.450     5.0264
 21.500     133.25     32.137     3.4300
 21.500     137.71     21.927     2.3382
 21.500     141.51     18.490     1.5008
 21.500     145.51     46.863     3.7992
 21.500     148.80     112.28     10.559
 21.500     150.94     146.70     13.796
 21.500     153.02     138.57     11.260
 21.500     156.42     88.132     8.2962
 21.500     163.02     12.375     1.0032
 21.500     164.30     6.5559    0.53212
 21.500     166.63     24.678     2.3207
 21.500     168.29     101.12     10.793
 21.500     170.24     312.45     33.348
 21.500     171.39     557.01     37.993
 22.100     130.52     36.162     2.5952
 22.100     134.12     36.046     2.5793
 22.100     136.91     27.854     1.9990
 22.100     138.67     20.866     1.2903
 22.100     140.45     17.386     1.4203
 22.100     143.04     21.232     2.1428
 22.100     144.62     27.663     2.7948
 22.100     146.19     35.662     2.5593
 22.100     148.92     46.416     2.8654
 22.100     150.51     67.266     4.8346
 22.100     152.31     67.877     4.2047
 22.100     154.51     75.350     5.4156
 22.100     156.14     57.056     3.5283
 22.100     158.98     60.665     4.3537
 22.100     160.57     34.467     2.4700
 22.100     162.83     22.237     1.1520
 22.100     164.65     25.767     2.3501
 22.100     165.92     64.266     3.9811
 22.100     168.14     83.686     5.1751
 22.100     168.86     151.76     9.4008
 22.100     169.69     239.62     17.197
 23.200     11.308    0.66880    0.61884E-01
 23.200     14.475    0.93229    0.62465E-01
 23.200     18.541    0.50591    0.53098E-01
 23.200     19.853    0.30695    0.28425E-01
 23.200     23.658    0.29829    0.31329E-01
 23.200     26.212    0.71431    0.75076E-01
 23.200     29.372    0.95515    0.63997E-01
 23.200     32.487    0.94130    0.87027E-01
 23.200     35.443    0.31443    0.25108E-01
 23.200     42.056    0.39195    0.26261E-01
 23.200     48.196     2.1555    0.17197
 23.200     51.014     2.9636    0.34759
 23.200     54.106     2.5074    0.16800
 23.200     60.870    0.82527    0.86616E-01
 23.200     63.133    0.27572    0.18474E-01
 23.200     65.846    0.18686    0.19639E-01
 23.200     68.707    0.34377    0.27504E-01
 23.200     71.513    0.43491    0.34729E-01
 23.200     74.284    0.43462    0.34706E-01
 23.200     77.311    0.23591    0.18838E-01
 23.200     81.139    0.26703    0.24668E-01
 23.200     82.672    0.72467    0.57868E-01
 23.200     85.555     1.5530    0.14370
 23.200     87.705     2.5223    0.20160
 23.200     90.509     3.1469    0.21085
 23.200     92.956     3.6635    0.24518
 23.200     95.421     4.8320    0.32376
 23.200     98.225     6.0287    0.55783
 23.200     100.71     9.0089    0.71939
 23.200     102.82     11.242    0.75408
 23.200     104.90     11.082    0.88574
 23.200     110.40     8.8644    0.59393
 23.200     113.10     5.3766    0.42894
 23.200     115.85     4.5492    0.30515
 23.200     120.50     12.167    0.97154
 23.200     121.94     18.697     1.2527
 23.200     124.77     27.172     2.1698
 23.200     127.59     37.358     2.9832
 23.200     128.99     42.312     1.7279
 23.200     131.08     45.328     2.4464
 23.200     133.11     31.589     1.7024
 23.200     135.12     21.117     1.6863
 23.200     138.12     9.1807    0.73311
 23.200     141.94     9.8311    0.65946
 23.200     143.80     23.876     1.9084
 23.200     148.08     53.323     4.2580
 23.200     150.90     74.336     4.9807
 23.200     155.34     49.664     3.9659
 23.200     158.03     28.105     2.2422
 23.200     160.00     13.847    0.92777
 23.200     161.65     7.9473    0.53309
 23.200     165.10     76.171     7.0480
 23.200     169.43     250.85     16.808
ENDDATA            153
ENDSUBENT          164
ENDENTRY             5
