ENTRY            F0381   19990409   19990429
SUBENT        F0381001   19990409   19990429
BIB                 11         15
TITLE      10B(d,p)11B reaction and the configurations of 11B
AUTHOR     (O.M.BILANIUK,J.C.HENSEL)
INSTITUTE  (1USAMHG)
REFERENCE  (J,PR,120,211,196010)
SAMPLE     The target were prepared by evaporating enriched boron
            (95% 10B) from a carbon crucible onto gold leaf.
           The thicknesses were from 0.2 mg/cm2 to 0.4 mg/cm2.
FACILITY   (CYCLO)
METHOD     (EXTB)
ANALYSIS   A double-focusing magnetic spectrometer used to analyse
DETECTOR   (PLATE) Kodak NTB 100-micron nuclear emulsion plates.
ERR-ANALYS (ANG-ERR) Digitizing error
           (DATA-ERR) Error from graphic bars and digitizing
HISTORY    (19860130C)
           (19990409A) CNPD: corrected 4-dig. year
ENDBIB              15
COMMON               1          3
EN-RSL
MEV
 0.02
ENDCOMMON            3
ENDSUBENT           22
SUBENT        F0381002   19990409   19990429
BIB                  3          3
REACTION   (5-B-10(D,P)5-B-11,PAR,DA,,REL,EXP)
EN-SEC     (E-LVL,5-B-11)
STATUS     (CURVE) Fig 5,6,7,8,9,10,11,12
ENDBIB               3
COMMON               2          3
EN         ANG-ERR
MEV        ADEG
  7.780     0.5
ENDCOMMON            3
DATA                 4        105
E-LVL      ANG-CM     DATA-CM    DATA-ERR
MEV        ADEG       ARB-UNITS  ARB-UNITS
     0.         5.508    506.1       26.75
     0.        10.98     679.7       35.67
     0.        16.02     893.5       40.13
     0.        21.93    1040.        44.63
     0.        26.87    1058.        57.94
     0.        33.06     879.3       35.67
     0.        38.78     638.2       31.24
     0.        44.05     415.        31.21
     0.        49.42     374.6       31.24
     0.        65.13     387.2       26.78
     0.        80.35     324.        26.78
     2.14       1.661    208.6        6.657
     2.14       4.539    184.8        3.804
     2.14      10.3      162.9        2.853
     2.14      12.69     151.5        8.559
     2.14      16.05     138.2        2.853
     2.14      17.49     132.5        6.657
     2.14      20.37     140.1        6.657
     2.14      25.64     137.3        5.706
     2.14      28.52     120.2        6.657
     2.14      30.92     122.1        3.804
     2.14      36.68      84.96       5.706
     2.14      41.95      97.33       5.706
     2.14      47.23      99.23       3.804
     2.14      63.53      95.43       2.853
     2.14      74.08      84.02       4.755
     2.14      79.36      78.32       2.853
     2.14      94.22      74.52       2.853
     6.76       2.661    697.5       41.06
     6.76       4.887    738.7       36.44
     6.76      10.62     885.3       22.77
     6.76      16.49     931.6       18.28
     6.76      21.49     945.9       13.73
     6.76      27.03     896.5       18.28
     6.76      32.78     678.6       18.28
     6.76      38.55     451.6       18.22
     6.76      43.85     233.6       13.73
     6.76      54.47     139.3        9.11
     6.76      64.92     163.4        9.11
     6.76      81.46      69.94       4.495
     7.99       5.656    247.2       31.27
     7.99      11.05     222.2       11.71
     7.99      16.79     222.7       23.42
     7.99      22.06     223.2       11.75
     7.99      27.73     239.3        9.76
     7.99      33.12     214.3       11.71
     7.99      49.75     241.1       25.38
     7.99      55.02     241.5       17.61
     7.99      65.47     258.        19.48
     7.99      80.92     233.9       17.61
     7.99      91.9      145.         9.76
     7.99      96.42     102.4       13.7
     8.57       6.479    386.2       47.08
     8.57      12.34     371.        19.58
     8.57      16.68     398.7       47.11
     8.57      22.44     477.6       27.5
     8.57      28.66     576.1       19.58
     8.57      34.02     568.7       23.54
     8.57      39.49     459.2       19.61
     8.57      44.5      326.1       15.69
     8.57      50.33     338.3       19.58
     8.57      55.75     272.        15.69
     8.57      65.98     261.        15.66
     8.57      81.65     175.8       15.73
     8.57      92.37     164.7       15.69
     8.57      97.72     161.2       19.61
     8.92   0.4796E-02  3824.       329.3
     8.92       1.482   4045.       274.1
     8.92       4.51    3333.       146.4
     8.92       6.92    2785.        73.18
     8.92      10.14    2751.        54.88
     8.92      16.16    2443.        54.88
     8.92      22.12    2246.        91.79
     8.92      27.98    2249.        91.47
     8.92      34.14    1667.        55.21
     8.92      40.29    1104.        54.88
     8.92      52.41     323.8       54.88
     8.92      69.52     224.3       36.59
     8.92      87.12     198.3        7.632
     9.19       0.3693 0.1319E+05   688.1
     9.19       0.89   0.1245E+05   734.1
     9.19       4.505  0.1208E+05   137.6
     9.19       7.618   9469.        91.75
     9.19      10.72    8460.       137.6
     9.19      16.43    3873.        39.56
     9.19      21.08    2359.        39.56
     9.19      27.28    1671.        39.56
     9.19      32.96    1442.        39.56
     9.19      39.15    1672.        39.56
     9.19      50.51    1122.        39.56
     9.19      67.54     572.4       39.56
     9.19      84.58     481.4       39.56
     9.27       0.3133  9122.       564.5
     9.27       2.435   9169.       611.5
     9.27       5.612   8934.       188.1
     9.27       8.215   6064.        94.01
     9.27      11.38    5217.       141.1
     9.27      16.63    2205.        94.01
     9.27      22.98    1123.        94.01
     9.27      28.8      651.5       93.94
     9.27      34.1      650.8       25.75
     9.27      39.94     791.1       25.75
     9.27      52.13     648.4       25.75
     9.27      69.09     269.8       25.75
     9.27      86.59     126.4       25.75
ENDDATA            107
ENDSUBENT          119
ENDENTRY             2
