ENTRY            F0392   19990410   19990429
SUBENT        F0392001   19990410   19990429
BIB                  8         10
TITLE      States in 12C and 160 investigated by the 11B(d,n) and
           15N (d,n) reactions
AUTHOR     (H.FUCHS,K.GRABISCH,P.KRAAZ,G.ROSCHERT)
INSTITUTE  (2GERBER)
REFERENCE  (J,NP/A,105,590,196712)
METHOD     (TOF)
FACILITY   (VDG)
DETECTOR   (SCIN) 12.5 cm diam x 2.5 cm NE213 liquid scintillators
           mounted onto XP 1040 photomultipliers.
HISTORY    (19870326C)
ENDBIB              10
COMMON               1          3
EN
MEV
  6.0
ENDCOMMON            3
ENDSUBENT           17
SUBENT        F0392002   19990410   19990429
BIB                  5         10
REACTION   (5-B-11(D,N)6-C-12,PAR,DA,,REL,EXP)
SAMPLE     The boron target consisted of a layer of enriched 11B
           deposited by vacuum evaporation onto a tungsten backing
           0.3 mm thickness. The thickness of the boron layer was
           estimated to 100 mu-g/cm**2.
ERR-ANALYS (ANG-ERR) Digitizing error
           (DATA-ERR) Error from graphic bars (statictic) and
           digitizing
EN-SEC     (E-LVL,6-C-12)
STATUS     (CURVE) fig 3
ENDBIB              10
COMMON               1          3
ANG-ERR
ADEG
  2.
ENDCOMMON            3
DATA                 4        168
E-LVL      ANG-CM     DATA-CM    DATA-ERR
MEV        ADEG       ARB-UNITS  ARB-UNITS
     0.         0.332     50.51       2.607
     0.         9.885     58.54       3.022
     0.        18.39      71.23       3.677
     0.        26.91      78.62       4.058
     0.        33.73      78.68       4.061
     0.        42.31      61.72       3.186
     0.        50.87      50.84       2.624
     0.        57.72      43.96       2.269
     0.        64.57      38.01       1.962
     0.        73.14      29.82       1.539
     0.        78.29      24.55       1.267
     0.        86.84      22.29       1.15
     0.        97.1       19.28       0.9952
     0.       103.9       25.86       1.335
     0.       110.7       33.03       1.705
     0.       117.5       42.19       2.177
     0.       132.8       56.64       2.923
     0.       143.        65.65       3.388
     4.44       2.582     78.62       4.179
     4.44      12.8       86.72       4.609
     4.44      16.14     121.6        6.461
     4.44      26.36     134.1        7.126
     4.44      33.22     116.2        6.175
     4.44      41.82      87.15       4.632
     4.44      50.39      71.98       3.826
     4.44      57.25      62.37       3.315
     4.44      64.1       56.71       3.014
     4.44      72.63      56.79       3.018
     4.44      82.88      54.21       2.881
     4.44      88.02      49.28       2.619
     4.44      96.54      51.78       2.752
     4.44     105.1       57.1        3.035
     4.44     110.2       59.97       3.187
     4.44     118.7       66.13       3.515
     4.44     134.        69.57       3.698
     4.44     140.8       80.48       4.277
     7.66       1.077      6.143      0.1749
     7.66       9.606      6.43       0.1831
     7.66      18.05       5.537      0.1577
     7.66      26.53       5.256      0.1497
     7.66      33.29       4.755      0.1354
     7.66      43.36       3.535      0.1007
     7.66      50.17       3.526      0.1004
     7.66      58.72       3.875      0.1104
     7.66      63.91       4.701      0.1339
     7.66      75.77       4.245      0.1209
     7.66      80.86       4.036      0.1149
     7.66      89.29       3.475      0.099
     7.66      96.08       3.301      0.094
     7.66     102.8        2.709      0.0772
     7.66     111.3        2.7        0.0769
     7.66     118.2        3.274      0.0932
     7.66     135.3        3.766      0.1072
     7.66     142.1        3.944      0.1123
     9.64       1.211     17.88       0.7803
     9.64       7.332     19.74       0.8615
     9.64      15.9       26.61       1.162
     9.64      24.47      37.72       1.646
     9.64      33.02      46.02       2.009
     9.64      39.85      48.34       2.11
     9.64      50.08      43.7        1.908
     9.64      55.18      37.6        1.641
     9.64      63.68      29.26       1.277
     9.64      72.19      23.94       1.045
     9.64      79.        21.65       0.9451
     9.64      89.23      20.57       0.8981
     9.64      97.76      20.56       0.8973
     9.64     102.9       23.87       1.042
     9.64     109.7       26.36       1.151
     9.64     116.6       27.69       1.209
     9.64     125.1       26.32       1.149
     9.64     130.2       27.65       1.207
     9.64     140.4       29.03       1.267
    10.84       1.329    140.2        4.665
    10.84       8.041    104.3        3.469
    10.84      16.43      70.24       2.337
    10.84      24.9       28.84       0.9597
    10.84      33.31      19.49       0.6153
    10.84      41.63      19.45       0.6472
    10.84      49.97      19.47       0.648
    10.84      56.68      13.78       0.4586
    10.84      65.07       9.756      0.3246
    10.84      71.81       5.952      0.198
    10.84      80.1        8.019      0.2668
    10.84      88.46       6.586      0.2191
    10.84      95.07       9.796      0.3259
    10.84     103.4       10.83       0.3603
    10.84     110.1        9.815      0.3266
    10.84     118.4       10.85       0.361
    10.84     126.8        9.362      0.3115
    10.84     131.7       10.34       0.3442
    10.84     138.4        9.377      0.312
    11.83       1.001    180.         5.378
    11.83       9.353    148.1        4.424
    11.83      16.07      82.29       2.459
    11.83      26.16      34.1        1.019
    11.83      34.53      20.91       0.6246
    11.83      42.87      19.92       0.5952
    11.83      51.19      23.09       0.6899
    11.83      59.55      18.08       0.5403
    11.83      66.23      14.87       0.4444
    11.83      74.59      11.09       0.3314
    11.83      81.26      10.57       0.3158
    11.83      89.59      11.66       0.3485
    11.83      96.24      14.2        0.4242
    11.83     104.6       16.45       0.4917
    11.83     112.9       14.93       0.4461
    11.83     119.6       11.13       0.3326
    11.83     127.9       12.29       0.3671
    11.83     132.9       12.29       0.3673
    11.83     139.6       10.62       0.3172
    12.71       2.361      8.333      0.218
    12.71      15.87       9.638      0.2521
    12.71      22.64      11.99       0.3138
    12.71      31.07      10.75       0.2812
    12.71      36.13       8.955      0.2343
    12.71      44.53       5.372      0.1405
    12.71      51.26       3.595      0.0941
    12.71      59.69       3.222      0.0843
    12.71      68.14       3.465      0.0906
    12.71      76.58       3.593      0.094
    12.71      85.02       3.463      0.0906
    12.71      93.45       3.219      0.0842
    12.71      98.5        2.682      0.0702
    12.71     106.9        2.681      0.0701
    12.71     113.7        2.78       0.0727
    12.71     123.8        3.216      0.0841
    12.71     130.6        3.859      0.1009
    12.71     137.4        4.304      0.1126
    12.71     142.4        4.801      0.1256
    15.11       3.144    127.1        4.865
    15.11      13.26     154.1        5.896
    15.11      20.02     133.4        5.107
    15.11      28.48     100.1        3.831
    15.11      38.63      65.03       2.489
    15.11      45.41      33.23       1.272
    15.11      52.19      16.98       0.6499
    15.11      60.65      11.03       0.4221
    15.11      69.11       8.681      0.3322
    15.11      77.53      12.15       0.4649
    15.11      85.97      11.04       0.4225
    15.11      91.03      13.38       0.512
    15.11     102.9        9.567      0.3661
    15.11     107.9        7.529      0.2881
    15.11     114.7        9.572      0.3663
    15.11     121.4       10.54       0.4033
    15.11     131.6       10.05       0.3846
    15.11     140.        11.06       0.4234
    15.11     143.4       12.18       0.4661
    16.11       3.216    316.2       12.91
    16.11      11.66     300.9       12.28
    16.11      21.8      246.5       10.06
    16.11      30.27     157.1        6.415
    16.11      37.06      86.22       3.52
    16.11      45.55      42.81       1.747
    16.11      54.02      25.96       1.06
    16.11      62.48      20.22       0.8255
    16.11      69.23      20.23       0.8259
    16.11      79.33      28.74       1.173
    16.11      87.77      30.23       1.234
    16.11      94.53      26.02       1.062
    16.11     101.3       22.4        0.9145
    16.11     109.7       21.32       0.8703
    16.11     116.5       23.57       0.9623
    16.11     121.5       27.4        1.118
    16.11     130.        31.85       1.3
    16.11     138.4       37.03       1.512
    16.11     143.4       43.05       1.757
ENDDATA            170
ENDSUBENT          189
SUBENT        F0392003   19990410   19990429
BIB                  6         15
REACTION   (7-N-15(D,N)8-O-16,PAR,DA,,REL,EXP)
SAMPLE     The nitrogen target was obtained by direct
           electromagnetic separation from gaseous nitrogen onto
           a 0.2 mm tantalum backing.
ERR-ANALYS (ANG-ERR) Digitizing error
           (DATA-ERR) Digitizing error
           (DATA-ERR1) The statistic error from graphic bars
FLAG       (0.)The are normalized on the thin target
               points at yhe angles below 30 degr.
           (1.)For ground-state transition, the crosses
               are taken from an independent measurement
               at Ed= 6 MeV with a 3 mg/cm**2 thick target
               of silicon nitride
EN-SEC     (E-LVL,8-O-16)
STATUS     (CURVE) fig 5
ENDBIB              15
COMMON               3          3
ANG-ERR    DATA-ERR   E-LVL
ADEG       PER-CENT   MEV
  0.2       0.2        0.0
ENDCOMMON            3
DATA                 4         25
ANG-CM     DATA-CM    DATA-ERR1  FLAG
ADEG       ARB-UNITS  ARB-UNITS  NO-DIM
     0.1495     2.681      0.4033     0.
     0.3298     2.429                 1.
     7.601      3.785                 1.
     7.675      4.224      0.6913     0.
    15.9        6.821      0.7343     0.
    23.47       8.609      0.7776     0.
    31.51       5.623      1.735      0.
    31.78       7.139                 1.
    39.35       4.161                 1.
    47.27       2.647                 1.
    52.49       2.041                 1.
    57.19       1.99                  1.
    62.76       2.149                 1.
    67.69       2.209                 1.
    72.66       2.162                 1.
    78.04       2.                    1.
    82.82       1.688                 1.
    87.72       1.436                 1.
    97.88       1.462                 1.
   102.6        1.802                 1.
   107.9        2.379                 1.
   115.4        3.378                 1.
   122.1        3.981                 1.
   130.         3.929                 1.
   136.6        3.704                 1.
ENDDATA             27
ENDSUBENT           51
SUBENT        F0392004   19990410   19990429
BIB                  5          9
REACTION   (7-N-15(D,N)8-O-16,PAR,DA,,REL,EXP)
SAMPLE     The nitrogen target was obtained by direct
           electromagnetic separation from gaseous nitrogen onto
           a 0.2 mm tantalum backing.
ERR-ANALYS (ANG-ERR) Digitizing error
           (DATA-ERR) Digitizing error
           (DATA-ERR1) The statistic error from graphic bars
EN-SEC     (E-LVL,8-O-16)
STATUS     (CURVE) fig 5
ENDBIB               9
COMMON               2          3
ANG-ERR    DATA-ERR
ADEG       PER-CENT
    0.1     0.2
ENDCOMMON            3
DATA                 4         72
E-LVL      ANG-CM     DATA-CM    DATA-ERR1
MEV        ADEG       ARB-UNITS  ARB-UNITS
     6.13       0.2482    85.5
     6.13       8.618    105.6
     6.13      16.58     149.3
     6.13      24.39     226.5
     6.13      31.84     244.4       15.22
     6.13      40.01     273.2       12.91
     6.13      48.01     240.8       15.89
     6.13      55.81     193.5       14.55
     6.13      64.       140.8        7.777
     6.13      71.83     104.7        6.512
     6.13      79.24      89.33       4.891
     6.13      86.82      95.71       5.286
     6.13     101.9      128.         7.484
     6.13     109.6      140.1        6.621
     6.13     116.9      158.8        8.242
     6.13     124.3      157.4        8.021
     6.13     131.       155.9        9.11
     6.13     138.6      156.7        8.658
     6.92       1.632      4.613      0.2465
     6.92       6.825      6.166      0.3184
     6.92      22.56       4.553      0.2352
     6.92      30.39       4.238      0.2393
     6.92      38.31       4.344      0.2134
     6.92      46.27       5.445      0.2675
     6.92      54.62       5.093      0.263
     6.92      62.08       3.363      0.1899
     6.92      69.88       4.475      0.2743
     6.92      77.28       3.359      0.1941
     6.92      84.83       4.288      0.2476
     6.92     100.6        3.837      0.1981
     6.92     107.7        3.319      0.4654
     6.92     107.8        3.304      0.1866
     6.92     114.7        5.183      0.2929
     6.92     121.7        4.017      0.2855
     6.92     130.5        4.006      0.2652
     6.92     137.2        3.85       0.2926
     7.12       2.803    144.8
     7.12      10.08     114.5
     7.12      18.22      60.45
     7.12      26.1       15.45       1.782
     7.12      33.29       5.14       0.5932
     7.12      41.74      10.12       0.6216
     7.12      49.23      13.11       0.7617
     7.12      57.23      10.75       0.8704
     7.12      64.87       5.854      0.5389
     7.12      72.83       8.051      0.4366
     7.12      80.76       8.354      1.029
     7.12      87.87      11.01       0.9277
     7.12     103.2       10.08       0.7513
     7.12     110.6        7.673      0.7931
     7.12     117.9        5.798      0.5563
     7.12     124.7        7.861      0.8153
     7.12     132.1       10.29       0.6315
     7.12     139.2       12.12
     8.88       0.3213     5.407      0.4595
     8.88       8.965      6.897      0.3853
     8.88      16.62      10.35       0.4468
     8.88      25.11      15.81       0.8272
     8.88      33.06      16.95       0.7652
     8.88      41.63      16.37       0.9728
     8.88      48.42      12.41       1.379
     8.88      56.88      11.01       0.5111
     8.88      64.89       7.989      0.389
     8.88      72.16       6.353      0.3155
     8.88      80.13       5.928      0.3316
     8.88      87.12       6.165      0.7079
     8.88     102.7        6.535      0.4595
     8.88     109.6        7.838      0.4946
     8.88     117.4       10.17       0.5049
     8.88     124.7       10.33       0.612
     8.88     131.2       10.45       0.5523
     8.88     139.3        9.618      0.5398
ENDDATA             74
ENDSUBENT           92
ENDENTRY             4
