ENTRY            F1113   20110203   20120207   20120113       F043
SUBENT        F1113001   20110203   20120207   20120113       F043
BIB                  9         14
TITLE       (d,a) reactions on C-12, O-16 and Mg-24.
AUTHOR     (F.Pellegrini)
INSTITUTE  (1USAPUP)
REFERENCE  (J,NP,24,372,1961)
           #doi:10.1016/0029-5582(61)90405-9
FACILITY   (CYCLO,1USAPUP) The 119 cm cyclotron was used.
DETECTOR   (IOCH) The alpha particles were detected by means of a
           fast ionization chamber of the electron collection
           type. The detector was put in the target room near the
           scattering chamber.
METHOD     (BCINT)
ERR-ANALYS (ERR-DIG)    Data digitizing error
           (DATA-ERR)   Error from the graphic bars
HISTORY    (20110203C)
ENDBIB              14
COMMON               1          3
EN
MEV
  15.
ENDCOMMON            3
ENDSUBENT           21
SUBENT        F1113002   20110203   20120207   20120113       F043
BIB                  5          6
REACTION   (6-C-12(D,A)5-B-10,,DA/DE,,REL)
COMMENT    Data are given in counts for 90 mu-C.
SAMPLE     The target of C-12 was prepared by cracking methyl
           iodide (CH3I) on a thin tantalum strip.
ERR-ANALYS (E-ERR-DIG)  Secondary energy digitizing error
STATUS     (CURVE) Fig.3
ENDBIB               6
COMMON               3          3
ANG        E-ERR-DIG  ERR-DIG
ADEG       MEV        ARB-UNITS
  24.        0.0028     0.461
ENDCOMMON            3
DATA                 3        223
E          DATA       DATA-ERR
MEV        ARB-UNITS  ARB-UNITS
     4.0203     4686.0     92.150
     4.0665     4665.5     92.150
     4.1069     4593.8     112.63
     4.1531     4276.4     92.150
     4.1993     4317.4     92.150
     4.2513     4276.4     92.150
     4.2975     4153.5     81.912
     4.3552     3754.2     81.911
     4.3956     3324.2     81.911
     4.4418     3119.4     81.911
     4.4880     2802.0     81.911
     4.5457     2709.8     61.433
     4.5861     2607.4     71.672
     4.6323     2566.5     81.911
     4.6727     2464.1     61.433
     4.7189     2453.8     61.434
     4.7651     2300.2     51.195
     4.8113     2320.7     71.672
     4.8633     2300.2     51.195
     4.9037     2341.2     61.433
     4.9557     2320.7     61.433
     5.0019     2177.3     51.195
     5.0365     2105.7     61.434
     5.0827     2218.3     61.434
     5.1289     2126.1     71.672
     5.1751     2126.1     81.911
     5.2213     2105.6     61.434
     5.2675     2279.7     61.433
     5.3137     2310.4     71.672
     5.3599     2423.0     61.433
     5.4119     2453.7     61.433
     5.4523     2525.4     71.672
     5.5043     2453.7     61.434
     5.5505     2423.0     71.672
     5.5909     2453.7     61.433
     5.6313     2289.9     71.672
     5.6717     2136.3     61.433
     5.7179     2105.6     61.433
     5.7641     2033.9     51.195
     5.8103     1880.3     51.195
     5.8507     1696.0     61.433
     5.8911     1614.1     61.433
     5.9431     1603.9     71.672
     5.9893     1491.2     61.433
     6.0355     1440.0     61.433
     6.0759     1368.3     71.672
     6.1221     1306.9     61.433
     6.1683     1214.8     51.194
     6.2145     1173.8     61.433
     6.2607     1306.9     51.194
     6.3069     1419.5     51.195
     6.3589     1614.0     71.672
     6.4051     1829.1     51.195
     6.4455     2054.3     61.433
     6.4975     2177.2     61.434
     6.5379     2412.7     61.434
     6.5899     2392.2     51.195
     6.6245     2197.6     61.434
     6.6765     2023.6     61.434
     6.7169     1818.8     61.433
     6.7631     1583.3     51.194
     6.8035     1255.6     61.434
     6.8554     938.22     51.195
     6.9016     610.57     40.956
     6.9420     467.22     51.195
     6.9940     446.73     40.956
     7.0460     405.77     40.956
     7.0922     446.72     51.195
     7.1326     497.91     51.195
     7.1788     497.91     51.195
     7.2192     682.20
     7.2712     784.58
     7.3116     886.97
     7.3694     1173.7
     7.4213     1245.3
     7.4675     1327.2
     7.5080     1255.5
     7.5542     1224.8
     7.5946     1276.0
     7.6408     1368.2
     7.6870     1450.1
     7.7389     1613.9
     7.7909     1859.6
     7.8256     1931.3
     7.8833     1972.2
     7.9180     1941.5
     7.9757     1818.6
     8.0161     1531.9
     8.0507     979.03
     8.1027     497.80
     8.1547     272.53
     8.1893     129.18
     8.2355     77.984
     8.2817     77.979
     8.3221     57.496
     8.3741     26.773
     8.4261     37.006
     8.4722     26.762
     8.5069     26.758
     8.5762     16.510
     8.6224     6.2659
     8.6686     26.738
     8.7090     57.450
     8.7552     108.64
     8.8014     180.31
     8.8476     385.08
     8.8938     702.48
     8.9458     1316.8
     8.9920     1972.1
     9.0325     2422.6
     9.0844     2637.6
     9.1364     2780.9
     9.1826     2596.6
     9.2172     2238.3
     9.2634     1521.5
     9.3096     804.82
     9.3558     344.06
     9.3962     159.76
     9.4366     57.363
     9.4828     26.641
     9.5290     26.635
     9.5694     26.631
     9.6156     6.1473
     9.6618     6.1418
     9.7138     6.1356
     9.7542     16.370
     9.8004     6.1252
     9.8408     6.1204
     9.8928     6.1142
     9.9332     16.348
     9.9794     6.1039
     10.026     16.337
     10.066     36.810
     10.118     36.804
     10.164     36.799
     10.210     77.749
     10.257     169.89
     10.297     364.43
     10.343     651.11
     10.389     1132.3
     10.436     1562.4
     10.476     1797.9
     10.522     1849.0
     10.563     1736.4
     10.615     1337.1
     10.661     978.72
     10.701     487.25
     10.759     261.98
     10.799     169.83
     10.840     128.87
     10.886     108.38
     10.938     77.662
     10.978     98.135
     11.036     46.933
     11.065     87.885
     11.111     46.924
     11.163     36.679
     11.192     16.198
     11.244     16.192
     11.290     16.186
     11.336     16.181
     11.377     16.176
     11.423     36.648
     11.469     46.882
     11.515     57.115
     11.550     108.31
     11.602     313.08
     11.648     610.00
     11.689     1377.9
     11.741     2565.6
     11.775     3947.9
     11.822     5125.3
     11.856     5719.2
     11.902     5637.3
     11.954     4777.2
     12.001     3159.4
     12.047     1654.3
     12.087     712.34
     12.133     333.49
     12.174     169.66
     12.226     169.66
     12.266     302.76
     12.307     609.92
     12.347     1285.7
     12.405     2330.0
     12.445     3558.7
     12.480     4736.2
     12.532     5627.0
     12.567     5022.9
     12.618     4060.4
     12.670     2698.6
     12.705     1367.6
     12.745     589.39
     12.797     200.31
     12.838     97.913
     12.884     26.235
     12.930     36.468
     12.982     5.7452
     13.023     4.4985
     13.057     5.7362
     13.109     4.5089
     13.150     4.5137
     13.190     4.5185
     13.236     5.7149
     13.282     4.5296
     13.323     5.7045
     13.369     5.6990
     13.415     5.6935
     13.467     15.926
     13.496     15.923
     13.536     15.918
     13.594     26.150
     13.640     15.905
     13.687     5.6611
     13.727     15.895
     13.773     15.890
     13.814     15.885
     13.866     15.879
     13.906     15.874
     13.946     15.869
     13.987     15.864
     14.039     5.6190
     14.073     5.6148
ENDDATA            225
ENDSUBENT          240
SUBENT        F1113003   20110203   20120207   20120113       F043
BIB                  5          7
REACTION   (8-O-16(D,A)7-N-14,,DA/DE,,REL)
COMMENT    Data are given in counts for 250 mu-C.
SAMPLE     The target used was 6 mu-m mylar C-10(H2O) coated on
           both its surfaces with an evaporated gold film to avoid
           possible wrinkles due to the heating by the beam.
ERR-ANALYS (E-ERR-DIG)  Secondary energy digitizing error
STATUS     (CURVE) Fig.4
ENDBIB               7
COMMON               3          3
ANG        E-ERR-DIG  ERR-DIG
ADEG       MEV        ARB-UNITS
  30.        0.002      0.088
ENDCOMMON            3
DATA                 2        115
E          DATA
MEV        ARB-UNITS
     12.214     462.39
     12.260     285.69
     12.315     174.79
     12.353     174.79
     12.391     154.11
     12.437     161.63
     12.488     233.05
     12.538     313.88
     12.576     550.72
     12.618     849.59
     12.661     1180.4
     12.711     1430.4
     12.758     1443.6
     12.800     1253.7
     12.846     1015.0
     12.892     652.21
     12.938     402.21
     12.985     221.75
     13.027     127.77
     13.073     78.893
     13.119     63.854
     13.166     54.454
     13.212     54.452
     13.254     60.089
     13.301     48.809
     13.343     48.807
     13.389     48.805
     13.431     39.405
     13.477     39.403
     13.528     30.003
     13.570     30.001
     13.616     29.999
     13.658     31.877
     13.705     28.116
     13.751     31.873
     13.797     29.992
     13.844     29.990
     13.886     31.868
     13.932     29.986
     13.979     26.225
     14.021     11.186
     14.063     28.101
     14.109     20.581
     14.151     20.579
     14.193     29.976
     14.240     20.575
     14.286     31.852
     14.328     20.572
     14.374     29.969
     14.421     20.568
     14.463     18.687
     14.505     20.565
     14.547     20.563
     14.593     20.561
     14.635     20.559
     14.678     20.558
     14.724     20.556
     14.770     26.193
     14.817     20.552
     14.854     18.671
     14.901     11.150
     14.947     11.148
     14.985     13.026
     15.031     16.784
     15.073     22.421
     15.124     13.021
     15.166     13.019
     15.204     14.897
     15.250     24.294
     15.297     16.773
     15.335     24.291
     15.385     28.048
     15.427     18.648
     15.469     18.646
     15.516     13.005
     15.558     16.763
     15.608     11.122
     15.646     11.120
     15.692     12.998
     15.735     22.395
     15.777     12.994
     15.823     20.511
     15.874     31.787
     15.916     22.387
     15.962     48.701
     16.008     71.256
     16.050     112.61
     16.097     202.83
     16.139     317.49
     16.181     469.74
     16.223     618.24
     16.270     620.12
     16.316     477.26
     16.362     287.41
     16.408     163.34
     16.455     71.238
     16.497     29.883
     16.543     11.084
     16.589     9.2021
     16.636     11.080
     16.682     11.078
     16.728     16.715
     16.771     12.954
     16.817     12.952
     16.863     12.950
     16.909     12.949
     16.956     14.826
     16.998     12.945
     17.048     12.943
     17.086     12.941
     17.137     12.939
     17.175     14.817
     17.225     14.815
     17.272     12.934
     17.314     12.932
ENDDATA            117
ENDSUBENT          133
SUBENT        F1113004   20110203   20120207   20120113       F043
BIB                  5          6
REACTION   (12-MG-24(D,A)11-NA-22,,DA/DE,,REL)
COMMENT    Data are given in counts for 600 mu-C.
SAMPLE     The target used was a layer of magnesium of thickness
           0.3 mg/cm2 on a supporting gold foil of 0.2 mg/cm2.
ERR-ANALYS (E-ERR-DIG)  Secondary energy digitizing error
STATUS     (CURVE) Fig.5
ENDBIB               6
COMMON               3          3
ANG        E-ERR-DIG  ERR-DIG
ADEG       MEV        ARB-UNITS
  25.        0.005      1.169
ENDCOMMON            3
DATA                 3        216
E          DATA       DATA-ERR
MEV        ARB-UNITS  ARB-UNITS
     7.7736     1909.0     17.595
     7.8265     1618.7     43.987
     7.8596     1483.8     41.055
     7.9127     1375.2     41.055
     7.9593     1387.0     49.852
     7.9994     1474.9     41.055
     8.0526     1457.3     49.852
     8.0858     1369.3     26.392
     8.1323     1272.6     32.257
     8.1922     1304.8     32.257
     8.2320     1134.7     29.325
     8.2786     1146.4     35.190
     8.3250     979.26     29.325
     8.3648     897.14     32.257
     8.4180     897.12     32.257
     8.4582     1037.9     35.190
     8.5050     1164.0     38.122
     8.5452     1360.4     38.122
     8.5918     1372.1     41.055
     8.6385     1454.2     43.987
     8.6783     1351.6     41.055
     8.7316     1401.4     41.055
     8.7715     1336.9     38.122
     8.8181     1354.5     41.055
     8.8580     1313.4     41.055
     8.9111     1225.4     35.190
     8.9576     1105.2     32.257
     8.9840     970.29
     9.0506     984.93
     9.0841     1105.2
     9.1242     1225.4
     9.1841     1228.3
     9.2438     1049.4
     9.2702     858.78
     9.3232     668.16
     9.3696     527.38
     9.4095     474.59
     9.4496     583.08
     9.5029     609.46
     9.5497     770.73
     9.5832     917.35
     9.6365     961.32
     9.6698     999.44
     9.7165     1058.1
     9.7695     890.91
     9.8160     770.66
     9.8624     644.56
     9.9157     650.41
     9.9557     688.52
     10.022     808.73
     10.056     967.08
     10.096     1143.0
     10.136     1233.9
     10.183     1275.0
     10.250     1362.9
     10.283     1321.8
     10.329     1242.7
     10.362     1060.8
     10.409     920.07
     10.449     814.49
     10.508     752.89
     10.528     676.64
     10.555     676.63
     10.602     752.87
     10.628     711.81
     10.688     679.53
     10.735     661.93
     10.781     571.01
     10.834     635.51
     10.874     667.75
     10.914     661.88
     10.948     600.29
     11.007     614.94
     11.054     670.64
     11.094     767.40
     11.154     752.72
     11.187     708.73
     11.227     685.26
     11.281     688.18
     11.307     808.40
     11.374     796.65
     11.407     984.32
     11.448     1078.2
     11.501     1086.9
     11.541     1257.0
     11.588     1506.3
     11.628     1764.3
     11.675     1799.5
     11.741     1594.2
     11.774     1189.5
     11.834     1004.7
     11.893     822.91
     11.926     690.94
     11.986     538.44
     12.026     453.39
     12.066     432.85
     12.106     388.85
     12.159     482.68
     12.193     649.82
     12.246     872.67
     12.286     1098.5
     12.333     1165.9
     12.386     1075.0
     12.419     863.83
     12.465     579.37
     12.519     435.67
     12.558     341.82
     12.598     286.09
     12.638     300.74
     12.691     303.66
     12.738     280.19
     12.785     253.78
     12.824     180.46
     12.871     180.45
     12.918     180.44
     12.958     271.33
     13.004     373.96
     13.045     532.30
     13.091     708.24
     13.118     922.30
     13.165     928.15
     13.218     878.29
     13.285     722.85
     13.311     497.04
     13.357     329.88
     13.404     247.76
     13.444     224.29
     13.484     347.44
     13.530     429.54
     13.571     573.22
     13.617     488.17
     13.670     367.92
     13.710     247.68
     13.757     177.29
     13.796     145.02
     13.843     121.55
     13.876     153.80
     13.930     139.12
     13.970     174.30
     14.029     194.81
     14.070     317.97
     14.103     517.37
     14.143     690.37
     14.197     778.33
     14.243     625.83
     14.289     423.48
     14.349     259.24
     14.389     226.98
     14.429     259.22
     14.469     397.04
     14.503     710.81
     14.550     974.72
     14.570     983.51
     14.610     948.31
     14.656     719.56
     14.696     482.02
     14.735     223.96
     14.782     168.23
     14.828     124.23
     14.862     83.164
     14.921     86.081
     14.961     100.73
     15.008     97.788
     15.048     130.04
     15.088     168.15
     15.135     253.18
     15.188     238.50
     15.235     212.10
     15.274     191.56
     15.328     171.02
     15.374     212.06
     15.408     361.61
     15.461     446.64
     15.501     376.25
     15.534     308.79
     15.574     229.60
     15.647     188.53
     15.680     126.94
     15.720     112.27
     15.780     100.52
     15.827     109.31
     15.874     182.61
     15.914     294.03
     15.947     411.32
     16.007     464.09
     16.047     340.92
     16.093     203.08
     16.153     100.43
     16.180     50.567
     16.240     53.484
     16.280     38.811
     16.326     41.731
     16.366     65.181
     16.413     50.506
     16.466     68.087
     16.513     103.27
     16.566     112.05
     16.606     150.16
     16.646     112.03
     16.679     44.573
     16.732     5.2930
     16.779     2.3726
     16.832     2.3863
     16.879     2.3984
     16.919     2.4087
     16.972     2.4224
     17.012    0.49973
     17.072    0.48427
     17.112    0.47396
     17.152    0.46365
     17.192    0.45334
     17.238    0.44131
     17.278    0.43100
     17.325    0.41897
     17.365    0.40866
     17.405    0.39835
ENDDATA            218
ENDSUBENT          233
SUBENT        F1113005   20110203   20120207   20120113       F043
BIB                  4          5
REACTION   (6-C-12(D,A)5-B-10,PAR,DA)
SAMPLE     The target of C-12 was prepared by cracking methyl
           iodide (CH3I) on a thin tantalum strip.
ERR-ANALYS (ANG-ERR-D)  Angle digitizing error
STATUS     (CURVE) Fig.7
ENDBIB               5
COMMON               3          3
E-LVL      ANG-ERR-D  ERR-DIG
MEV        ADEG       MB/SR
  0.         0.2801     0.0018
ENDCOMMON            3
DATA                 3         25
ANG-CM     DATA-CM    DATA-ERR
ADEG       MB/SR      MB/SR
     12.928      1.595  9.354E-02
     17.594     2.1697
     20.492      2.898
     23.409     3.2255
     27.491     3.7401
     29.533      3.974
     31.278     4.2881
     35.373     4.5488  6.013E-02
       38.6     4.5488
     42.131     4.3485
      45.38     3.9143
     48.334     3.5201
     51.287     3.1193
     57.192     2.3845
     59.848     2.0706
     62.801     1.6898
     65.452     1.4894
     68.393     1.3492
     73.966     1.3694
     79.826     1.5299
     85.397     1.6035   7.35E-02
     90.387     1.5702
     95.384     1.3699
     101.85     1.0627
     106.57    0.72878
ENDDATA             27
ENDSUBENT           41
SUBENT        F1113006   20110203   20120207   20120113       F043
BIB                  4          5
REACTION   (6-C-12(D,A)5-B-10,PAR,DA)
SAMPLE     The target of C-12 was prepared by cracking methyl
           iodide (CH3I) on a thin tantalum strip.
ERR-ANALYS (ANG-ERR-D)  Angle digitizing error
STATUS     (CURVE) Fig.7
ENDBIB               5
COMMON               3          3
E-LVL      ANG-ERR-D  ERR-DIG
MEV        ADEG       MB/SR
  0.72       0.0451     0.0068
ENDCOMMON            3
DATA                 3         26
ANG-CM     DATA-CM    DATA-ERR
ADEG       MB/SR      MB/SR
     13.686     8.6761
     16.042      6.855
     19.416     5.8719
     22.352     4.6989
     25.866     4.4533
     28.208     4.4869
      30.84      4.744
     32.302     4.8781
     34.935     5.0906
     38.593     5.1466  8.939E-02
     41.524     4.6439
     44.604     3.7391
     47.391     2.9347
     50.471     2.1416
     56.625     1.0916
     59.115    0.84588
     62.189    0.71195
     65.407    0.96908
     68.332      1.215
     74.181     1.7293
     79.593     2.0312
     85.446     2.1544
     90.861     2.1435    0.10056
     95.982      2.289
     101.54     2.5462
     106.66     2.7364
ENDDATA             28
ENDSUBENT           42
SUBENT        F1113007   20110203   20120207   20120113       F043
BIB                  4          5
REACTION   (6-C-12(D,A)5-B-10,PAR,DA)
SAMPLE     The target of C-12 was prepared by cracking methyl
           iodide (CH3I) on a thin tantalum strip.
ERR-ANALYS (ANG-ERR-D)  Angle digitizing error
STATUS     (CURVE) Fig.7
ENDBIB               5
COMMON               2          3
ANG-ERR-D  ERR-DIG
ADEG       MB/SR
  0.1416     0.0012
ENDCOMMON            3
DATA                 4         51
E-LVL      ANG-CM     DATA-CM    DATA-ERR
MEV        ADEG       MB/SR      MB/SR
       2.15     13.157      1.519  5.717E-02
       2.15     16.112     1.7847
       2.15     19.655     1.8049
       2.15     22.017     1.8251  6.054E-02
       2.15     24.969     1.8217
       2.15      27.92     1.7746
       2.15     31.166     1.6367
       2.15     32.345      1.556
       2.15     36.181     1.3744
       2.15     38.834      1.149
       2.15     41.193    0.91024
       2.15     45.028    0.72862
       2.15     47.979    0.63108
       2.15     51.226    0.60754
       2.15     57.131    0.68824
       2.15     60.379    0.73532
       2.15     63.626    0.75886
       2.15     66.578    0.75885  4.709E-02
       2.15     69.235    0.73531
       2.15     75.137    0.59404
       2.15     81.335    0.53013
       2.15     86.354    0.51667
       2.15     92.259    0.60074
       2.15     97.279    0.69154
       2.15     103.18    0.61753
       2.15     107.61    0.54354
       3.58     13.582    0.85808   4.73E-02
       3.58      16.82     1.5439
       3.58     20.345     1.8344
       3.58      23.87     2.1553
       3.58       27.1     2.3478
       3.58     29.303     2.5066  5.068E-02
       3.58     32.237     2.4998
       3.58     33.557     2.4525
       3.58     36.782     2.3005
       3.58     40.005     2.0369
       3.58     42.788     1.7261
       3.58     46.157     1.3612
       3.58     49.087     1.0943
       3.58     52.164    0.88481
       3.58     58.615    0.56044
       3.58     61.547    0.44217
       3.58     64.479    0.33066
       3.58     67.412    0.26983
       3.58     70.493    0.27318
       3.58     76.508    0.31706
       3.58     82.231    0.43525  4.728E-02
       3.58     88.247    0.48251
       3.58     93.674    0.47571
       3.58     99.102    0.45539
       3.58     104.24    0.48914
ENDDATA             53
ENDSUBENT           67
SUBENT        F1113008   20110203   20120207   20120113       F043
BIB                  4          7
REACTION   (8-O-16(D,A)7-N-14,PAR,DA)
SAMPLE     The target used was 6 mu-m mylar C-10(H2O) coated on
           both its surfaces with an evaporated gold film to avoid
           possible wrinkles due to the heating by the beam.
ERR-ANALYS (ERR-SYS)    The absolute error of cross section
           (ANG-ERR-D)  Angle digitizing error
STATUS     (CURVE) Fig.8
ENDBIB               7
COMMON               4          3
E-LVL      ERR-SYS    ANG-ERR-D  ERR-DIG
MEV        PER-CENT   ADEG       MB/SR
  0.         25.        0.0563     0.0006
ENDCOMMON            3
DATA                 3         17
ANG-CM     DATA-CM    DATA-ERR
ADEG       MB/SR      MB/SR
     17.565  9.289E-02  2.851E-02
     23.145    0.11531  2.342E-02
     28.973    0.27622  1.526E-02
     32.015    0.33428  1.528E-02
     35.055    0.44325  1.324E-02
     40.378    0.55324  1.222E-02
     46.085    0.58483  1.426E-02
     51.797    0.47995  1.018E-02
     57.385    0.32722   1.12E-02
     62.971     0.2254  1.323E-02
     68.428     0.1745  1.223E-02
     73.249    0.14906  1.324E-02
     78.959     0.1175  1.425E-02
     84.287    0.11956  1.121E-02
     89.232    0.17049  9.165E-03
     94.683    0.24789  9.163E-03
     99.502    0.26726  1.018E-02
ENDDATA             19
ENDSUBENT           35
SUBENT        F1113009   20110203   20120207   20120113       F043
BIB                  4          6
REACTION   (12-MG-24(D,A)11-NA-22,PAR,DA)
SAMPLE     The target used was a layer of magnesium of thickness
           0.3 mg/cm2 on a supporting gold foil of 0.2 mg/cm2.
ERR-ANALYS (ERR-SYS)    The absolute error of cross section
           (ANG-ERR-D)  Angle digitizing error
STATUS     (CURVE) Fig.9
ENDBIB               6
COMMON               3          3
ERR-SYS    ANG-ERR-D  ERR-DIG
PER-CENT   ADEG       MB/SR
  30.        0.0762     0.0004
ENDCOMMON            3
DATA                 4         39
E-LVL      ANG-CM     DATA-CM    DATA-ERR
MEV        ADEG       MB/SR      MB/SR
         0.     17.376    0.11485  1.374E-02
         0.     23.224    0.17259  1.139E-02
         0.     28.654    0.16593  1.138E-02
         0.     33.885    0.11923    1.1E-02
         0.     38.561  9.922E-02  9.424E-03
         0.      44.47    0.11651  7.461E-03
         0.     50.125    0.13145  6.675E-03
         0.     55.548    0.12951  1.021E-02
         0.     60.752    0.10126  9.031E-03
         0.     65.425  8.282E-02  8.246E-03
         0.     71.348  9.069E-02  6.675E-03
         0.     76.761  9.503E-02  8.639E-03
         0.     81.664  9.505E-02  7.852E-03
         0.     86.569  9.428E-02  7.855E-03
         0.     96.902  8.725E-02  8.638E-03
       0.58     16.662  4.482E-02   7.58E-03
       0.58     22.244  8.911E-02  8.776E-03
       0.58     28.202    0.17848  1.356E-02
       0.58     32.395    0.15694  9.575E-03
       0.58      38.88  8.394E-02  6.782E-03
       0.58     44.217  4.844E-02  8.775E-03
       0.58     49.802    6.8E-02  7.181E-03
       0.58     55.008   6.96E-02  7.183E-03
       0.58     60.343  6.003E-02  6.782E-03
       0.58     65.803  5.684E-02  5.984E-03
       0.58      71.01  4.927E-02  4.787E-03
       0.89     16.222    0.10413  1.195E-02
       0.89     21.816    0.10451  9.961E-03
       0.89     27.782  8.018E-02   9.96E-03
       0.89     32.736  6.981E-02  6.773E-03
       0.89      38.45  5.186E-02  5.976E-03
       0.89     43.926  7.973E-02  7.968E-03
       0.89      49.52   8.29E-02  8.365E-03
       0.89     54.607  8.965E-02   7.57E-03
       0.89     60.452  8.167E-02  7.568E-03
       0.89     65.408  7.727E-02  6.375E-03
       0.89     70.742   6.37E-02  5.179E-03
       0.89     75.702  7.126E-02  5.577E-03
       0.89     81.175  9.076E-02  5.576E-03
ENDDATA             41
ENDSUBENT           56
SUBENT        F1113010   20110203   20120207   20120113       F043
BIB                  4          6
REACTION   (12-MG-24(D,A)11-NA-22,PAR,DA)
SAMPLE     The target used was a layer of magnesium of thickness
           0.3 mg/cm2 on a supporting gold foil of 0.2 mg/cm2.
ERR-ANALYS (ERR-SYS)    The absolute error of cross section
           (ANG-ERR-D)  Angle digitizing error
STATUS     (CURVE) Fig.10
ENDBIB               6
COMMON               4          3
E-LVL      ERR-SYS    ANG-ERR-D  ERR-DIG
MEV        PER-CENT   ADEG       MB/SR
  1.53       30.        0.0534     0.0004
ENDCOMMON            3
DATA                 3         15
ANG-CM     DATA-CM    DATA-ERR
ADEG       MB/SR      MB/SR
     16.731    0.13149   1.08E-02
     22.222    0.29091  1.171E-02
     28.008    0.44673  6.306E-03
     33.906    0.39174  1.082E-02
     38.914    0.31063  1.261E-02
     44.801    0.19708  9.908E-03
     50.406     0.1529  9.007E-03
     56.025    0.19791  9.906E-03
     61.047    0.19968  9.911E-03
     66.218    0.21406  8.108E-03
     71.529    0.18069  9.905E-03
     76.394    0.13021  1.082E-02
     81.854    0.10766  1.083E-02
     86.875    0.10762  9.008E-03
     97.074    0.15981  9.905E-03
ENDDATA             17
ENDSUBENT           32
SUBENT        F1113011   20110203   20120207   20120113       F043
BIB                  4          6
REACTION   (12-MG-24(D,A)11-NA-22,PAR,DA)
SAMPLE     The target used was a layer of magnesium of thickness
           0.3 mg/cm2 on a supporting gold foil of 0.2 mg/cm2.
ERR-ANALYS (ERR-SYS)    The absolute error of cross section
           (ANG-ERR-D)  Angle digitizing error
STATUS     (CURVE) Fig.10
ENDBIB               6
COMMON               4          3
E-LVL      ERR-SYS    ANG-ERR-D  ERR-DIG
MEV        PER-CENT   ADEG       MB/SR
  2.58       30.        0.0411     0.0001
ENDCOMMON            3
DATA                 3         15
ANG-CM     DATA-CM    DATA-ERR
ADEG       MB/SR      MB/SR
     16.681  3.552E-02  8.133E-03
     22.494    0.12315  9.488E-03
     28.152    0.19587  1.039E-02
     33.478    0.17732  9.036E-03
       39.1    0.15878  1.039E-02
     44.711    0.11087  1.084E-02
     50.324  7.018E-02  6.776E-03
     55.648  4.667E-02  4.969E-03
     61.138  6.788E-02  9.036E-03
     66.468  5.928E-02  6.777E-03
      71.65  5.113E-02  8.133E-03
     76.979  4.026E-02  8.129E-03
     82.161  3.256E-02  5.874E-03
     87.208   5.83E-02  6.325E-03
     97.577  5.419E-02  8.134E-03
ENDDATA             17
ENDSUBENT           32
ENDENTRY            11
