ENTRY            22479   20010721   20030506
SUBENT        22479001   20010721   20030506
BIB                  8         29
TITLE       Fission Cross-Section Measurements of 241Am Between
            0.1eV and 10 KeV with Lead Slowing-Down Spectrometer
            And at Thermal Energy
AUTHOR     (S.YAMAMOTO, K.KOBAYASHI, M.MIYOSHI, I.KIMURA, I.KANNO,
            N.SHINOHARA, Y.FUJITA)
INSTITUTE  (2JPNKTO)  Yamamoto, Kobayashi, Miyoshi, Kimura,
                      Kanno, Fujita
           (2JPNJAE)  Shinohara
REFERENCE  (J,NSE,126,(2),201,199706)  Main Reference
           (S,JINR-E3-94-419,288,199404)  First Publication
           (C,94GATLIN,1,242,1994)  Preliminary Results
DETECTOR   (SIBAR) For Alpha Rays Detection to Determine Actinides
                   Admixtures
           (HPGE)    For Gamma Rays to Determine Samples
                   Composition
           (TRD)   Track Detector For Investigation of Uniformity
                   Of Sample Layer
PART-DET   (N,FF)
SAMPLE      Purified Americium Solution Deposited on a Stainless
            Steel Disk 28 mm Diameter. Americium Radioactive Area
            Is 20 mm Diameter, Thickness 2.2 Microgram/Cm2, Total
            Number of Am-241 Atoms is (1.734+-0.020)E+16, Purity
            More Than 99.9%
           .Uranium-235 Monitor Sample, Highly Enriched Uranium
            Oxide, Purity 99.91%, Electrodeposited in the Same
            Way As Am-241. Thickness 41 Microgram/Cm2, Total
            Number of U-235 Atoms is (3.283+-0.036)E+17
HISTORY    (20010720C)  + + Compiled by S.M.
           (20010721U) Last checking has been done.
ENDBIB              29
NOCOMMON
ENDSUBENT           32
SUBENT        22479002   20010721   20030506
BIB                 12         48
REACTION   (95-AM-241(N,F),,SIG)
FACILITY   (LINAC,2JPNKTO)  Lineal Electron Accelerator, Electron
                            Energy 31 MeV, Current 0.8 Amperes,
                    Repetition Rate 150 Hz, Pulse Width 22 Nsec
INC-SOURCE (PHOTO)  Pb(G,N) Reaction. Lead Slowing-Down
                    Spectrometer of the Kioto University Research
                    Reactor Institute
REL-REF    (N,,K.KOBAYASHI+,J,NIM/A,385,145,1997)  Lead Slowing-
                             Down Time Spectrometer Description
           (N,,A.YAMANAKA+,J,NST,30,(9),863,199309)  Experimental
                                                     Details
DETECTOR   (FISCH)   Double Ionization (BACK-TO-BACK - BTB)
             Chamber For Fission Fragments Detection. 40 mm Diam.,
             39 mm Length Filled with 97% Ar and 3% N2 Mixture
             At the Pressure 1 Atm, Voltage 400 V
           (BF3)     Cylindrical, Length 50 mm, Diameter 12 mm,
                     Pressure 1 Atm., Voltage 1100 V
METHOD     (SLODT) Slowing-Down Time
ANALYSIS   .The Relative Fission Cross Section Measured Below
            1 KeV with Bf3 Counter (10B(N,A)7LI MONITOR)  Was
            Normalized to the Cross Section Between 200 eV and
            1 KeV Measured Relative to 235U(N,F)
CORRECTION .Corrections were Made For Setting Position of 241Am
            And 235U Deposits, For Scattering of Unscattered
            Neutrons, For Background Subtraction
MONITOR    (92-U-235(N,F),,SIG)  For Energy Range 0.1 eV - 10 KEV
           (5-B-10(N,A)3-LI-7,,SIG) For Energy Range
                                    Below 1 KeV
MONIT-REF  (,R.F.ROSE,R,BNL-NCS-17541,1991)  Endf/B-Vi
ERR-ANALYS (ERR-T)   Total Error
           (ERR-S)   Max Statistical Error of 241Am
           (ERR-1)   Max Statistical Error of 235U
           (ERR-2)   Max Error of Assignments of Fission Counts
                     For 241Am
           (ERR-3)   Max Error of Assignments of Fission Counts
                     For 235U
           (ERR-4)   Error of Number of 241Am Atoms
           (ERR-5)   Error of Number of 235U Atoms
           (MONIT1-ERR)   Max Error of 235U(N,F) Cross Section
           (MONIT2-ERR)   Error of 10B(N,A)7Li Cross Section
           (ERR-6)   Max Error of Correction For the Setting
                     Position of the 241Am and 235U Deposits
                     In the Btb Chamber
           (ERR-7)   Max Error For Correction For Scattering
                     Of Unscattered Neutrons by the Chamber
           (ERR-8)   Max Error For Correction to Background
                     Subtraction
STATUS     (APRVD)   K.Kobayashi, 2001-07-20
ENDBIB              48
COMMON              11          6
ERR-S      ERR-1      ERR-2      ERR-3      ERR-4      ERR-5
ERR-6      ERR-7      ERR-8      MONIT1-ERR MONIT2-ERR
PER-CENT   PER-CENT   PER-CENT   PER-CENT   PER-CENT   PER-CENT
PER-CENT   PER-CENT   PER-CENT   PER-CENT   PER-CENT
        6.2        1.1        1.9       0.65        1.3        1.2
        0.3        0.2        0.4         4.         2.
ENDCOMMON            6
DATA                 3        306
EN         DATA       ERR-T
EV         B          B
 8.91251E-2   2.064892
 9.45625E-2   2.064892 1.59949E-1
      1.E-1   2.064892
    1.01E-1   2.342685
   1.061E-1   2.342685 1.61219E-1
 1.12201E-1   2.342685
 1.12201E-1   2.504859
 1.19047E-1   2.504859 1.61245E-1
 1.25892E-1   2.504859
 1.25892E-1   2.934832
 1.33573E-1   2.934832 1.78157E-1
 1.41253E-1   2.934832
 1.41253E-1   3.578383
 1.49871E-1   3.578383 1.87687E-1
 1.58489E-1   3.578383
 1.58489E-1   4.339404
 1.68158E-1   4.339404 1.96827E-1
 1.77827E-1   4.339404
 1.77827E-1   5.263262
 1.88677E-1   5.263262 2.14555E-1
 1.99526E-1   5.263262
 1.99526E-1   6.290259
 2.11699E-1   6.290259 2.50918E-1
 2.23872E-1   6.290259
 2.23872E-1   7.059409
  2.3753E-1   7.059409 2.68822E-1
 2.51188E-1   7.059409
 2.51188E-1   7.935205
 2.66513E-1   7.935205 2.91936E-1
 2.81838E-1   7.935205
 2.81838E-1   8.226754
 2.99033E-1   8.226754 2.91309E-1
 3.16227E-1   8.226754
 3.16227E-1   8.396488
  3.3552E-1   8.396488 2.86488E-1
 3.54813E-1   8.396488
 3.54813E-1   8.080438
  3.7646E-1   8.080438 2.73846E-1
 3.98107E-1   8.080438
 3.98107E-1   7.030505
 4.22395E-1   7.030505  2.3749E-1
 4.46683E-1   7.030505
 4.46683E-1   6.014778
 4.73935E-1   6.014778 2.02758E-1
 5.01187E-1   6.014778
 5.01187E-1   4.941163
 5.31764E-1   4.941163 1.66665E-1
 5.62341E-1   4.941163
 5.62341E-1   4.013954
 5.96649E-1   4.013954  1.3543E-1
 6.30957E-1   4.013954
 6.30957E-1   3.158344
 6.69451E-1   3.158344 1.05647E-1
 7.07945E-1   3.158344
 7.07945E-1   2.686638
 7.51137E-1   2.686638 9.18293E-2
 7.94328E-1   2.686638
 7.94328E-1   2.435576
 8.42789E-1   2.435576 8.49042E-2
  8.9125E-1   2.435576
  8.9125E-1   3.051402
 9.45625E-1   3.051402 1.07165E-1
         1.   3.051402
         1.   3.894669
   1.061009   3.894669 1.35067E-1
   1.122018   3.894669
   1.122018    4.67809
   1.190472    4.67809 1.60225E-1
   1.258925    4.67809
   1.258925   4.793366
   1.335732   4.793366 1.62064E-1
   1.412537   4.793366
   1.412537    3.84834
   1.498715    3.84834 1.32075E-1
   1.584893    3.84834
   1.584893   2.736242
   1.681586   2.736242 9.49202E-2
   1.778279   2.736242
   1.778279   1.769691
   1.886771   1.769691 6.21515E-2
   1.995262   1.769691
   1.995262   1.205615
   2.116992   1.205615 5.09372E-2
   2.238721   1.205615
   2.238721  8.7349E-1
   2.375304  8.7349E-1 4.27661E-2
   2.511886  8.7349E-1
   2.511886 8.33326E-1
   2.665135 8.33326E-1 3.78747E-2
   2.818383 8.33326E-1
   2.818383 7.68362E-1
    2.99033 7.68362E-1 3.26093E-2
   3.162278 7.68362E-1
   3.162278 7.08144E-1
   3.355206 7.08144E-1 3.21923E-2
   3.548134 7.08144E-1
   3.548134 7.78731E-1
   3.764603 7.78731E-1  3.0791E-2
   3.981072 7.78731E-1
   3.981072   1.035057
   4.223954   1.035057 3.60821E-2
   4.466836   1.035057
   4.466836   1.538497
   4.739354   1.538497 5.35551E-2
   5.011872   1.538497
   5.011872   1.932831
   5.317643   1.932831 6.72045E-2
   5.623413   1.932831
   5.623413   1.455266
   5.966493   1.455266 5.06287E-2
   6.309573   1.455266
   6.309573     1.0583
   6.694515     1.0583 3.70088E-2
   7.079458     1.0583
   7.079458 7.76732E-1
    7.51137 7.76732E-1 2.71157E-2
   7.943282 7.76732E-1
   7.943282 6.57225E-1
   8.427896 6.57225E-1 2.31343E-2
   8.912509 6.57225E-1
   8.912509 7.23744E-1
   9.456255 7.23744E-1 2.50922E-2
        10. 7.23744E-1
        10. 7.14986E-1
   10.61009 7.14986E-1 2.48433E-2
   11.22018 7.14986E-1
   11.22018 6.02274E-1
   11.90472 6.02274E-1 2.13751E-2
   12.58925 6.02274E-1
   12.58925 6.12628E-1
   13.35732 6.12628E-1 2.11945E-2
   14.12537 6.12628E-1
   14.12537 6.18027E-1
   14.98715 6.18027E-1 2.14517E-2
   15.84893 6.18027E-1
   15.84893 5.45131E-1
   16.81586 5.45131E-1 1.96465E-2
   17.78279 5.45131E-1
   17.78279 4.69023E-1
   18.86771 4.69023E-1 1.68249E-2
   19.95262 4.69023E-1
   19.95262 4.07268E-1
   21.16992 4.07268E-1 1.51486E-2
   22.38721 4.07268E-1
   22.38721  4.0331E-1
   23.75304  4.0331E-1  1.4867E-2
   25.11886  4.0331E-1
   25.11886 4.09834E-1
   26.65135 4.09834E-1 1.47353E-2
   28.18383 4.09834E-1
   28.18383 3.85549E-1
    29.9033 3.85549E-1  1.3984E-2
   31.62278 3.85549E-1
   31.62278 3.94486E-1
   33.55206 3.94486E-1 1.38687E-2
   35.48134 3.94486E-1
   35.48134 3.78273E-1
   37.64603 3.78273E-1 1.32222E-2
   39.81072 3.78273E-1
   39.81072 3.70158E-1
   42.23954 3.70158E-1 1.30318E-2
   44.66836 3.70158E-1
   44.66836 3.40885E-1
   47.39354 3.40885E-1 1.17381E-2
   50.11872 3.40885E-1
   50.11872 3.34636E-1
   53.17643 3.34636E-1 1.19737E-2
   56.23413 3.34636E-1
   56.23413 3.34265E-1
   59.66493 3.34265E-1 1.20187E-2
   63.09573 3.34265E-1
   63.09573 3.08581E-1
   66.94516 3.08581E-1 1.12421E-2
   70.79458 3.08581E-1
   70.79458 2.72649E-1
    75.1137 2.72649E-1 1.01084E-2
   79.43282 2.72649E-1
   79.43282 2.59583E-1
   84.27896 2.59583E-1 9.92387E-3
   89.12509 2.59583E-1
   89.12509 2.46499E-1
   94.56255 2.46499E-1 9.34234E-3
       100. 2.46499E-1
       100. 2.29975E-1
   106.1009 2.29975E-1 8.68616E-3
   112.2018 2.29975E-1
   112.2018 2.12544E-1
   119.0472 2.12544E-1   8.148E-3
   125.8925 2.12544E-1
   125.8925 2.13114E-1
   133.5732 2.13114E-1  8.3303E-3
   141.2538 2.13114E-1
   141.2538 1.92297E-1
   149.8715 1.92297E-1 7.61884E-3
   158.4893 1.92297E-1
   158.4893 1.80972E-1
   168.1586 1.80972E-1 7.24615E-3
   177.8279 1.80972E-1
   177.8279 1.67556E-1
   188.6771 1.67556E-1 6.68383E-3
   199.5262 1.67556E-1
   199.5262 1.66804E-1
   211.6991 1.66804E-1 6.77478E-3
    223.872 1.66804E-1
    223.872 1.48324E-1
   237.5305 1.48324E-1 6.18422E-3
    251.189 1.48324E-1
    251.189 1.43909E-1
   266.5135 1.43909E-1 6.13916E-3
    281.838 1.43909E-1
    281.838 1.40545E-1
    299.033 1.40545E-1 6.43138E-3
    316.228 1.40545E-1
    316.228 1.33182E-1
   335.5205 1.33182E-1 6.33416E-3
    354.813 1.33182E-1
    354.813 1.24380E-1
    376.46  1.24380E-1 6.29786E-3
    398.107 1.24380E-1
    398.107 1.27822E-1
   422.3955 1.27822E-1  6.7209E-3
    446.684 1.27822E-1
    446.684 1.23155E-1
   473.9355 1.23155E-1 6.98906E-3
    501.187 1.23155E-1
    501.187 1.14781E-1
    531.764 1.14781E-1 6.65961E-3
    562.341 1.14781E-1
    562.341 1.07422E-1
    596.649 1.07422E-1 6.55063E-3
    630.957 1.07422E-1
    630.957 9.77778E-2
   669.4515 9.77778E-2 6.07591E-3
    707.946 9.77778E-2
    707.946 9.21786E-2
    751.137 9.21786E-2 5.89113E-3
    794.328 9.21786E-2
    794.328 8.61403E-2
   842.7895 8.61403E-2 5.58964E-3
    891.251 8.61403E-2
    891.251 8.05979E-2
   945.6255 8.05979E-2  5.2437E-3
   1000.    8.0598E-02
   1000.    7.4505E-02
   1061.01  7.4505E-02 4.9098E-03
   1122.02  7.4505E-02
   1122.02  7.2620E-02
   1190.475 7.2620E-02 4.7977E-03
   1258.93  7.2620E-02
   1258.93  6.6905E-02
   1335.735 6.6905E-02 4.4656E-03
   1412.54  6.6905E-02
   1412.54  6.1538E-02
   1498.715 6.1538E-02 4.1555E-03
   1584.89  6.1538E-02
   1584.89  5.2373E-02
   1681.585 5.2373E-02  3.603E-03
   1778.28  5.2373E-02
   1778.28  4.8482E-02
   1886.77  4.8482E-02 3.3892E-03
   1995.26  4.8482E-02
   1995.26  4.8294E-02
   2116.99  4.8294E-02 3.3988E-03
   2238.72  4.8294E-02
   2238.72  4.1014E-02
   2375.305 4.1014E-02  2.953E-03
   2511.89  4.1014E-02
   2511.89  3.9935E-02
   2665.135 3.9935E-02 2.8946E-03
   2818.38  3.9935E-02
   2818.38  4.1536E-02
   2990.33  4.1536E-02 3.0002E-03
   3162.28  4.1536E-02
   3162.28  4.2799E-02
   3355.205 4.2799E-02 3.0638E-03
   3548.13  4.2799E-02
   3548.13  3.8229E-02
   3764.6   3.8229E-02 2.7838E-03
   3981.07  3.8229E-02
   3981.07  3.6242E-02
   4223.955 3.6241E-02 2.6479E-03
   4466.84  3.6241E-02
   4466.84  3.1763E-02
   4739.355 3.1763E-02 2.3745E-03
   5011.87  3.1763E-02
   5011.87  3.2030E-02
   5317.64  3.2030E-02 2.3526E-03
   5623.41  3.2030E-02
   5623.41  3.1011E-02
   5966.49  3.1011E-02 2.2739E-03
   6309.57  3.1011E-02
   6309.57  3.0121E-02
   6694.515 3.0121E-02 2.2441E-03
   7079.46  3.0121E-02
   7079.46  3.0743E-02
   7511.37  3.0743E-02 2.2976E-03
   7943.28  3.0743E-02
   7943.28  2.6293E-02
   8427.895 2.6293E-02 2.0489E-03
   8912.51  2.6293E-02
   8912.51  2.5007E-02
   9456.255 2.5007E-02 1.9735E-03
  10000.    2.5007E-02
  10000.    2.2396E-02
  10610.    2.2396E-02 1.7802E-03
  11220.18  2.2397E-02
ENDDATA            308
ENDSUBENT          368
SUBENT        22479003   20010721   20030506
BIB                  2          4
REACTION   (95-AM-241(N,F),,SIG,,AV)  Averaged Over Energy
                          Interval Given in the Data Table
STATUS     (DEP,22479002)
           (TABLE)    FROM TABLE III OF MAIN REFERENCE
ENDBIB               4
NOCOMMON
DATA                 5          6
EN-MIN     EN-MAX     DATA       ERR-T      ERR-T
EV         EV         B          B          PER-CENT
       0.1        0.89      4.897    0.199          4.1
       0.89       3.55      1.914    0.0875         4.6
       3.55      20.   7.6360E-01    0.0317         4.2
      20.       200.   2.5140E-01    0.0111         4.4
     200.      1000.   1.0965E-01    0.00528        5.7
    1000.     10000.   3.5700E-02    0.00308        8.6
ENDDATA              8
ENDSUBENT           17
SUBENT        22479004   20010721   20030506
BIB                 10         24
REACTION   (95-AM-241(N,F),,SIG)
MONITOR    (92-U-235(N,F),,SIG,,MXW)
FACILITY   (REAC,2JPNKTO)  Kioto University Reactor
INC-SOURCE (THCOL)  Thermal Neutron Facility That Consists of
                    1.4 M Long Heavy Water Tank. The Leakage
            Neutron from a Heavy Water Tank was Used As a Thermal
            Neutron Source of a Plane Type
MONIT-REF  (,R.F.ROSE,R,BNL-NCS-17541,1991)  ENDF/B-VI
REL-REF    (N,,K.KOBAYASHI+,J,NST,31,(1),12,199401)  Description
              Of the Thermal Neutron Facility at Kurri
ANALYSIS   .Reaction Cross Section For Velocity V0=2200 M/Sec
            Was Obtained from Expression Sigma(MXW-AVG)=
            Sigma(V0)*G(TN)*Sqrt(T0/TN)/1.128
INC-SPECT  .Thermal Neutron Spectrum with Temperature 60 Deg-C
            Number of Epithermal Neutrons is Negligible
ERR-ANALYS (ERR-T)  Total Error
           (ERR-S)   Max Statistical Error
           (ERR-1)   Error of Number of Americium and Uranium
                     Counts Assignments
           (MONIT-ERR) Error of Standard Cross Section
           (ERR-2)   Error of the Deposit of 241Am and 235U
                     In the Back-To-Back Chamber
           (ERR-3)   Error of the G-Factor
STATUS     .FROM MAIN REFERENCE
ENDBIB              24
COMMON               4          3
ERR-S      ERR-1      ERR-2      ERR-3
PER-CENT   PER-CENT   PER-CENT   PER-CENT
        0.4        1.5       0.25        1.3
ENDCOMMON            3
DATA                 5          1
EN         DATA       ERR-T      MONIT      MONIT-ERR
EV         B          B          B          PER-CENT
     0.0253       3.15      0.097      586.2         1.
ENDDATA              3
ENDSUBENT           36
ENDENTRY             4
