ENTRY            O1325   20060531   20060720   20060703       O026
SUBENT        O1325001   20060531   20060720   20060703       O026
BIB                 14         26
TITLE      Level structure of 95-Nb
REFERENCE  (J,PR/C,72,054303,2005)
AUTHOR     (M.A.Rahman, M.S.Chowdhury)
INSTITUTE  (3BANDAC) Department of Physics.
SAMPLE     Self-supporting target ~250 mugramm/cm2.
MONITOR    (41-NB-95(T,EL)41-NB-95,,DA)
PART-DET   (P)
DETECTOR   (MAGSP,PLATE) A multichannel magnetic spectrograph.
           The instrument permits the simultaneous recording of 24
           energy spectra in the angular range 5 to 175 angular
           degrees.
FACILITY   (VDGT,2UK ALD)
METHOD     (SITA)
           (EXTB) The integrated beam current was 10000
            micro-Coulomb.
HISTORY    (20060504C) By F.Ch
           (20060503R) Data tables were received from M.A.Rahman
           (20060510A) Correction, according to remarks of
            M.A.Rahman.
           (20060531A) Correction, according to Otto's remark.
           (20060531U) Last checking has been done.
STATUS     (TABLE) From the authors.
           (APRVD) By M.A.Rahman.
ADD-RES    (COMP) With previous results and DWBA calculation.
           (STRUC) Spin-parity.
ERR-ANALYS The uncertainties are not given.
ENDBIB              26
COMMON               1          3
EN
MEV
        12.
ENDCOMMON            3
ENDSUBENT           33
SUBENT        O1325002   20060531   20060720   20060703       O026
BIB                  2          2
REACTION   (41-NB-93(T,P)41-NB-95,PAR,DA)
EN-SEC     (E-EXC,41-NB-95)
ENDBIB               2
NOCOMMON
DATA                 3        500
E-EXC      ANG-CM     DATA-CM
MEV        ADEG       MB/SR
         0.       5.07     1.7682
         0.      12.68     0.3982
         0.      20.28     0.0258
         0.      27.89     0.4044
         0.      35.48     0.4358
         0.      43.07      0.199
         0.      50.64     0.0352
         0.      58.21     0.0423
         0.      65.76     0.0914
         0.       73.3     0.0974
         0.      80.83     0.0446
         0.       87.5     0.0133
      0.767       5.07    0.02595
      0.767      12.68    0.02869
      0.767      20.28    0.03019
      0.767      27.89    0.01179
      0.767      35.48    0.00999
      0.767      43.07    0.01134
      0.767      50.64    0.01337
      0.767      58.21    0.01105
      0.767      65.76     0.0037
      0.767       73.3    0.00288
      0.767      80.83    0.00407
      0.767       87.5    0.00354
      0.805       5.07     0.0247
      0.805      12.68     0.0276
      0.805      20.28     0.0305
      0.805      27.89    0.01949
      0.805      35.48    0.00669
      0.805      43.07    0.01058
      0.805      50.64     0.0149
      0.805      58.21    0.00861
      0.805      65.76    0.00166
      0.805       73.3    0.00225
      0.805      80.83    0.00343
      0.805       87.5    0.00166
      0.877       5.07     0.0544
      0.877      12.68    0.06968
      0.877      20.28     0.0761
      0.877      27.89     0.0288
      0.877      35.48    0.02106
      0.877      43.07     0.0307
      0.877      50.64    0.03922
      0.877      58.21     0.0235
      0.877      65.76    0.00988
      0.877       73.3    0.00873
      0.877      80.83     0.0116
      0.877       87.5    0.00704
      1.088       5.07     0.0354
      1.088      12.68     0.0032
      1.088      27.89    0.00252
      1.088      35.48    0.00538
      1.088      43.07    0.00292
      1.088      58.21    0.00934
      1.088      65.76    0.00119
      1.088       73.3    0.00164
      1.088      80.83    0.00116
      1.149       5.07    0.02667
      1.149      12.68     0.0438
      1.149      20.28     0.0495
      1.149      27.89     0.0366
      1.149      35.48     0.0136
      1.149      43.07     0.0219
      1.149      50.64     0.0282
      1.149      58.21     0.0173
      1.149      65.76    0.00561
      1.149       73.3    0.00537
      1.149      80.83    0.00731
      1.216       5.07     0.0247
      1.216      12.68     0.0212
      1.216      20.28     0.0133
      1.216      27.89      0.011
      1.216      35.48     0.0064
      1.216      43.07     0.0052
      1.216      50.64     0.0088
      1.216      58.21     0.0078
      1.216      65.76    0.00567
      1.216       73.3    0.00286
      1.216      80.83    0.00256
      1.216       87.5    0.00205
      1.268       5.07    0.01328
      1.268      35.48    0.00481
      1.268      43.07    0.00199
      1.268      50.64    0.00106
      1.268      58.21     0.0004
      1.268      65.76    0.00133
      1.268       73.3    0.00199
      1.268      80.83    0.00106
      1.268       87.5    0.00066
      1.337       5.07     0.0249
      1.337      12.68    0.01465
      1.337      20.28    0.00519
      1.337      27.89    0.00898
      1.337      35.48    0.00927
      1.337      43.07    0.00908
      1.337      50.64      0.001
      1.337      58.21    0.00088
      1.337      65.76    0.00173
      1.337       73.3    0.00159
      1.337      80.83    0.00096
      1.337       87.5    0.00033
      1.518       5.07    0.02134
      1.518      12.68     0.0254
      1.518      20.28     0.0291
      1.518      27.89    0.01905
      1.518      35.48     0.0117
      1.518      43.07    0.01571
      1.518      50.64     0.0148
      1.518      58.21    0.00684
      1.518      65.76    0.00404
      1.518       73.3    0.00381
      1.518      80.83    0.00243
      1.565      12.68    0.00312
      1.565      20.28    0.00153
      1.565      27.89    0.00338
      1.565      35.48     0.0045
      1.565      43.07     0.0025
      1.565      50.64    0.00038
      1.565      65.76    0.00044
      1.565       73.3    0.00077
      1.565      80.83    0.00061
      1.565       87.5    0.00025
      1.616       5.07    0.00684
      1.616      12.68    0.00628
      1.616      20.28    0.00552
      1.616      27.89    0.00658
      1.616      35.48    0.00869
      1.616      43.07    0.00736
      1.616      50.64    0.00291
      1.616      65.76    0.00414
      1.616       73.3    0.00461
      1.616      80.83     0.0034
      1.616       87.5    0.00261
      1.658       5.07    0.00477
      1.658      12.68    0.00166
      1.658      20.28    0.00092
      1.658      27.89    0.00174
      1.658      35.48    0.00223
      1.658      43.07    0.00136
      1.658       73.3    0.00058
      1.658      80.83    0.00092
       1.73       5.07    0.02299
       1.73      12.68    0.03204
       1.73      20.28     0.0334
       1.73      27.89     0.0145
       1.73      35.48    0.01039
       1.73      43.07    0.01387
       1.73      50.64    0.01875
       1.73      58.21    0.01086
       1.73      65.76    0.00714
       1.73       73.3    0.00226
       1.73       87.5    0.00537
      1.767       5.07      0.048
      1.767      12.68     0.0511
      1.767      20.28     0.0426
      1.767      27.89     0.0373
      1.767      35.48     0.0206
      1.767      43.07     0.0184
      1.767      50.64     0.0185
      1.767      58.21      0.019
      1.767      65.76     0.0186
      1.767       73.3     0.0121
      1.767      80.83     0.0105
      1.767       87.5     0.0066
      1.847       5.07    0.02208
      1.847      12.68    0.02806
      1.847      20.28     0.0342
      1.847      27.89    0.01511
      1.847      35.48    0.01326
      1.847      43.07    0.01276
      1.847      50.64    0.02067
      1.847      58.21     0.0143
      1.847      65.76    0.00963
      1.847       73.3    0.00423
      1.847      80.83    0.00677
      1.903       5.07    0.00892
      1.903      12.68    0.00366
      1.903      20.28     0.0012
      1.903      27.89    0.00298
      1.903      35.48    0.00442
      1.903      43.07    0.00254
      1.903      50.64    0.00476
      1.903      58.21    0.00177
      1.903      65.76     0.0008
      1.903       73.3    0.00132
      1.903      80.83    0.00093
      1.958       5.07     0.0211
      1.958      12.68    0.00502
      1.958      20.28     0.0012
      1.958      27.89    0.00448
      1.958      43.07     0.0123
      1.958      50.64    0.00436
      1.958       73.3    0.00273
      2.018       5.07    0.02609
      2.018      12.68     0.0107
      2.018      35.48    0.00809
      2.018      43.07    0.00467
      2.018      50.64    0.00254
      2.018      65.76    0.00322
      2.018       73.3    0.00227
      2.018      80.83      0.001
      2.018       87.5    0.00065
      2.052       5.07     0.0366
      2.052      12.68    0.02147
      2.052      20.28     0.0151
      2.052      27.89     0.0199
      2.052      35.48     0.0136
      2.052      43.07    0.00946
      2.052      50.64    0.00698
      2.052      58.21    0.00368
      2.052      65.76    0.00882
      2.052       73.3    0.00209
      2.052      80.83    0.00105
      2.052       87.5       0.01
      2.165       5.07     0.0262
      2.165      20.28    0.01278
      2.165      35.48     0.0138
      2.165      43.07    0.01018
      2.165      50.64    0.00629
      2.165      58.21    0.00603
      2.165      65.76    0.00517
      2.165       73.3    0.00369
      2.165      80.83    0.00576
      2.165       87.5    0.00625
        2.2       5.07     0.0283
        2.2      12.68     0.0347
        2.2      20.28     0.0386
        2.2      27.89    0.02637
        2.2      35.48     0.0153
        2.2      50.64     0.0264
        2.2      58.21    0.00824
        2.2       73.3    0.00272
        2.2      80.83    0.00701
      2.275       5.07     0.0158
      2.275      12.68     0.0128
      2.275      20.28    0.00803
      2.275      27.89     0.0152
      2.275      35.48     0.0183
      2.275      43.07     0.0124
      2.275      50.64     0.0114
      2.275      58.21     0.0104
      2.275      65.76     0.0119
      2.275       73.3     0.0108
      2.275       87.5    0.00337
      2.305       5.07    0.03069
      2.305      12.68     0.0476
      2.305      20.28     0.0559
      2.305      27.89     0.0482
      2.305      35.48     0.0195
      2.305      50.64     0.0418
      2.305      58.21     0.0297
      2.305      65.76     0.0149
      2.305       73.3     0.0137
      2.305      80.83     0.0138
      2.362       5.07    0.01263
      2.362      12.68    0.02108
      2.362      20.28     0.0263
      2.362      27.89     0.0229
      2.362      35.48     0.0069
      2.362      50.64    0.01334
      2.362      58.21    0.01367
      2.362      65.76    0.00639
      2.362       73.3     0.0059
      2.362      80.83     0.0076
       2.39       5.07     0.0601
       2.39      12.68     0.0923
       2.39      27.89     0.0843
       2.39      35.48     0.0406
       2.39      43.07     0.0352
       2.39      50.64    0.04006
       2.39      58.21     0.0354
       2.39      65.76    0.00842
       2.39       73.3     0.0097
       2.39      80.83    0.00847
      2.435       5.07     0.0226
      2.435      12.68     0.0373
      2.435      20.28     0.0424
      2.435      27.89     0.0334
      2.435      35.48     0.0132
      2.435      43.07    0.01301
      2.435      50.64     0.0161
      2.435      58.21     0.0143
      2.435       73.3    0.00576
      2.486       5.07    0.01247
      2.486      12.68     0.0115
      2.486      20.28    0.00853
      2.486      27.89     0.0096
      2.486      35.48    0.00701
      2.486      58.21    0.00375
      2.486      65.76    0.00334
      2.486       73.3    0.00395
      2.486      80.83    0.00432
      2.536       5.07     0.0464
      2.536      12.68     0.0687
      2.536      27.89     0.0632
      2.536      35.48     0.0367
      2.536      43.07     0.0247
      2.536      50.64     0.0262
      2.536      58.21     0.0183
      2.536      65.76     0.0169
      2.536       73.3    0.00672
      2.536       87.5     0.0117
      2.586       5.07     0.0149
      2.586      12.68    0.01245
      2.586      20.28    0.01183
      2.586      35.48     0.0138
      2.586      43.07     0.0128
      2.586      50.64    0.00965
      2.586      58.21    0.00769
      2.586      65.76    0.00888
      2.586       73.3     0.0099
      2.586      80.83    0.00713
      2.586       87.5    0.00529
      2.637       5.07    0.03087
      2.637      12.68     0.0118
      2.637      20.28    0.00305
      2.637      27.89     0.0118
      2.637      35.48     0.0139
      2.637      43.07    0.00762
      2.637      50.64    0.00157
      2.637      58.21     0.0107
      2.637      65.76    0.00398
      2.637       73.3    0.00662
      2.637      80.83     0.0055
      2.637       87.5    0.00171
      2.706       5.07    0.02014
      2.706      12.68     0.0222
      2.706      20.28      0.025
      2.706      27.89      0.022
      2.706      35.48      0.011
      2.706      43.07     0.0167
      2.706      50.64    0.01309
      2.706      58.21     0.0099
      2.706      65.76    0.00877
      2.706       73.3    0.00498
      2.706      80.83    0.00273
      2.765       5.07     0.0796
      2.765      12.68     0.0159
      2.765      20.28    0.00958
      2.765      27.89    0.01437
      2.765      43.07    0.01733
      2.765      50.64    0.00437
      2.765      58.21    0.00284
      2.765      65.76    0.00211
      2.765      80.83    0.00421
      2.817       5.07    0.02197
      2.817      12.68     0.0172
      2.817      20.28    0.01203
      2.817      27.89     0.0142
      2.817      35.48     0.0128
      2.817      43.07     0.0092
      2.817      50.64     0.0074
      2.817      65.76    0.00513
      2.817       73.3     0.0048
      2.817      80.83    0.00641
      2.888       5.07     0.0197
      2.888      12.68     0.0244
      2.888      20.28      0.029
      2.888      27.89    0.01402
      2.888      43.07    0.00933
      2.888      50.64     0.0156
      2.888      58.21     0.0145
      2.888      65.76    0.00495
      2.888       73.3    0.00426
      2.888      80.83    0.00417
      2.947      12.68     0.0261
      2.947      27.89    0.01667
      2.947      35.48     0.0231
      2.947      43.07     0.0163
      2.947      50.64      0.011
      2.947      58.21    0.00283
      2.947      65.76    0.00814
      2.947       73.3     0.0056
      2.947      80.83    0.00285
      2.993      12.68     0.0104
      2.993      27.89    0.01014
      2.993      35.48     0.0112
      2.993      43.07    0.00938
      2.993      58.21    0.00603
      2.993      65.76     0.0071
      2.993       73.3    0.00855
      2.993      80.83    0.00628
      3.045      27.89     0.0276
      3.045      35.48     0.0223
      3.045      43.07     0.0161
      3.045      50.64     0.0132
      3.045      58.21     0.0116
      3.045       73.3     0.0074
      3.045      80.83     0.0105
      3.111       5.07    0.01618
      3.111      12.68    0.00608
      3.111      27.89    0.00511
      3.111      35.48    0.00793
      3.111      43.07    0.00562
      3.111      50.64    0.00261
      3.111      58.21    0.00185
      3.111      65.76    0.00286
      3.111       73.3    0.00347
      3.111      80.83    0.00239
      3.111       87.5    0.00145
      3.149       5.07     0.0343
      3.149      12.68    0.02109
      3.149      27.89    0.00966
      3.149      35.48    0.01079
      3.149      43.07    0.00902
      3.149      50.64    0.00846
      3.149      58.21    0.00198
      3.149      65.76     0.0022
      3.149       73.3     0.0041
      3.149      80.83    0.00594
      3.196       5.07     0.0547
      3.196      12.68     0.0261
      3.196      27.89     0.0165
      3.196      35.48     0.0197
      3.196      43.07     0.0167
      3.196      50.64    0.00759
      3.196      58.21     0.0193
      3.196      65.76    0.00715
      3.196       73.3    0.00991
      3.196       87.5    0.00325
      3.233       5.07     0.0262
      3.233      12.68     0.0253
      3.233      27.89     0.0269
      3.233      35.48     0.0276
      3.233      43.07    0.01772
      3.233      58.21     0.0136
      3.233      65.76     0.0143
      3.233       73.3     0.0175
      3.307       5.07     0.0382
      3.307      12.68    0.01267
      3.307      35.48    0.01831
      3.307      43.07      0.012
      3.307      50.64    0.00645
      3.307      58.21    0.00452
      3.307      65.76     0.0185
      3.307       73.3    0.00702
      3.358       5.07     0.0592
      3.358      12.68    0.02506
      3.358      27.89     0.0252
      3.358      35.48     0.0286
      3.358      43.07     0.0236
      3.358      50.64    0.00721
      3.358      58.21     0.0062
      3.358      65.76     0.0094
      3.358       73.3     0.0113
      3.358      80.83    0.00706
      3.408       5.07    0.01954
      3.408      12.68      0.017
      3.408      27.89     0.0166
      3.408      35.48     0.0162
      3.408      50.64     0.0117
      3.408      58.21     0.0067
      3.408      65.76     0.0156
      3.408       73.3     0.0116
      3.408       87.5    0.00179
      3.481       5.07     0.0236
      3.481      12.68    0.02037
      3.481      27.89    0.02064
      3.481      43.07     0.0193
      3.481      50.64    0.01347
      3.481      58.21     0.0114
      3.481      65.76     0.0118
      3.481       73.3    0.00737
      3.481      80.83    0.00469
      3.545       5.07     0.0226
      3.545      12.68     0.0203
      3.545      27.89    0.01709
      3.545      43.07    0.01326
      3.545      58.21    0.00999
      3.545      65.76    0.00808
      3.545       73.3     0.0156
      3.545      80.83    0.01395
      3.585       5.07     0.0111
      3.585      12.68     0.0164
      3.585      27.89     0.0169
      3.585      35.48     0.0084
      3.585      50.64    0.01242
      3.585      58.21     0.0122
      3.585      65.76    0.00724
      3.585       73.3    0.00371
      3.585      80.83    0.00357
      3.625       5.07     0.0294
      3.625      12.68     0.0247
      3.625      27.89    0.02369
      3.625      35.48    0.02636
      3.625      43.07     0.0197
      3.625      58.21     0.0158
      3.625      65.76     0.0154
      3.625       73.3     0.0182
      3.625      80.83     0.0137
      3.669       5.07     0.0234
      3.669      12.68     0.0371
      3.669      27.89     0.0366
      3.669      35.48     0.0268
      3.669      43.07    0.00724
      3.669      50.64     0.0207
      3.669      58.21     0.0226
      3.669      65.76     0.0129
      3.669       73.3    0.00937
      3.669      80.83    0.00342
ENDDATA            502
ENDSUBENT          509
ENDENTRY             2
