ENTRY            D5068   20100111   20100610   20100602       D072
SUBENT        D5068001   20100111   20100610   20100602       D072
BIB                 11         27
TITLE      Total Strength of the Magnetic Dipole Resonance in 27Al
AUTHOR     (A.S.Kachan,I.V.Kurguz,I.S.Kovtunenko,V.M.Mischenko)
INSTITUTE  (4UKRKFT)
REFERENCE  (J,IZV,72,(11),1630,2008)
           (J,BAS,72,1544,2008) English translation
           #doi:10.3103/S1062873808110221
           #NSR:2008KA43
FACILITY   (VDG,4UKRKFT)ESU-5 NSC KIPT accelerator.
SAMPLE     The target was prepared by knocking in aluminum
           ions into a tantalum substrate directly in the
           electromagnetic separator. The target used has a
           thichess of 20 micro-g in cm2.
METHOD     (GSPEC)
DETECTOR   (GELI) One germanium- lithium detector is  used with
           an active volume of  60 cm**3 and a resolution of 4.0
           keV at Eg=1.33 MeV. The detector was located at a
           distance of 5 cm from target at an angle of 55 degrees.
           (NAICR)  NaI(Tl) detector was used for  excitation
           function measurements  and  as monitor of gamma
           radiation. The dimensions of the crystal  was
           diameter 15 x 10 cm. The detector was located at a
           distance of 5 cm from target at an angle of 55 degrees
           with respect to he proton beam.
ERR-ANALYS No information.
HISTORY    (20090610C) UKRNDC
           (20100111A) Subents 003-004 were added.
STATUS     (APRVD)  Approved by A.S.Kachan.
ENDBIB              27
NOCOMMON             0          0
ENDSUBENT           30
SUBENT        D5068002   20100111   20100610   20100602       D072
BIB                  5          5
REACTION   (12-MG-26(P,0),,WID/STR,,RG)
MONITOR    (12-MG-26(P,0),,WID/STR,,RG)
MONIT-REF  (,P.Endt,J,NP/A,521,1,1990)
ADD-RES    (STRUC)
STATUS     (TABLE) Table
ENDBIB               5
COMMON               2          3
EN-RES-NRM MONIT
KEV        EV
1966.      9.5
ENDCOMMON            3
DATA                 3          5
EN-RES     DATA       DATA-ERR
KEV        EV         EV
1966.      9.5        0.9
2383.      15.3       1.5
2406.      13.2       1.4
2496.      17.5       0.9
2539.      16.2       1.3
ENDDATA              7
ENDSUBENT           21
SUBENT        D5068003   20100111   20100610   20100602       D072
BIB                  3          4
REACTION   (12-MG-26(P,G)13-AL-27,PAR,DA,,REL)
STATUS     (TABLE) Data (Fig.1 in reference, upper curve) were
           received  from A.S.Kachan through CNPD(2009.11.04)
EN-SEC     (E-MIN,G)
ENDBIB               4
COMMON               2          3
ANG        E-MIN
ADEG       MEV
55.        3.
ENDCOMMON            3
DATA                 2        579
EN         DATA
MEV        ARB-UNITS
    1.93675  5.812E+03
    1.93847  5.544E+03
    1.94018  5.338E+03
     1.9419  5.286E+03
    1.94362   5.01E+03
    1.94533  4.739E+03
    1.94705  4.818E+03
    1.94877  4.567E+03
    1.95049  4.832E+03
    1.95221  4.637E+03
    1.95393  4.701E+03
    1.95565  4.638E+03
    1.95738  4.459E+03
     1.9591  4.854E+03
    1.96082  5.081E+03
    1.96255  4.895E+03
    1.96427  5.111E+03
      1.966 2.1635E+04
    1.96773  2.187E+04
    1.96946 1.8836E+04
    1.97118 1.6063E+04
    1.97291 1.4308E+04
    1.97464 1.1791E+04
    1.97637 1.0545E+04
    1.97811  8.684E+03
    1.97984  8.022E+03
    1.98157  7.509E+03
    1.98331  7.034E+03
    1.98504  6.764E+03
    1.98678  6.466E+03
    1.98851  6.551E+03
    1.99025  6.624E+03
    1.99199  6.745E+03
    1.99373  6.732E+03
    1.99547  6.827E+03
    1.99721  7.447E+03
    1.99895  7.316E+03
    2.00069  7.628E+03
    2.00243  8.011E+03
    2.00417  8.248E+03
    2.00592  8.791E+03
    2.00766   9.04E+03
    2.00941  9.424E+03
    2.01115 1.0256E+04
     2.0129 1.1127E+04
    2.01465 1.0865E+04
     2.0164 1.1209E+04
    2.01815 1.1461E+04
     2.0199 1.1979E+04
    2.02165 1.3578E+04
     2.0234    1.3E+04
    2.02515 1.2188E+04
     2.0269 1.2123E+04
    2.02866 1.2224E+04
    2.03041 1.1594E+04
    2.03217 1.1857E+04
    2.03392 1.3068E+04
    2.03568 1.2897E+04
    2.03744  1.214E+04
     2.0392 1.1687E+04
    2.04095 1.1274E+04
    2.04271 1.0917E+04
    2.04448 1.0847E+04
    2.04624 1.0526E+04
      2.048 1.1345E+04
    2.04976 5.1518E+04
    2.05153 4.4081E+04
    2.05329 3.7166E+04
    2.05505  3.156E+04
    2.05682  2.687E+04
    2.05859 2.1814E+04
    2.06035 1.6026E+04
    2.06212 1.3613E+04
    2.06389 1.6179E+04
    2.06566 1.5757E+04
    2.06743  1.299E+04
     2.0692 1.1674E+04
    2.07098  9.877E+03
    2.07275  8.521E+03
    2.07452  7.815E+03
     2.0763  7.274E+03
    2.07807  6.668E+03
    2.07985  6.444E+03
    2.08162  6.121E+03
     2.0834  6.047E+03
    2.08518  5.885E+03
    2.08696  6.135E+03
    2.08874    6.1E+03
    2.09052  5.686E+03
     2.0923  5.877E+03
    2.09408  8.384E+03
    2.09586  9.766E+03
    2.09765  8.871E+03
    2.09943  7.861E+03
    2.10121  7.327E+03
      2.103  6.773E+03
    2.10479  6.225E+03
    2.10657  5.944E+03
    2.10836  5.879E+03
    2.11015  5.676E+03
    2.11194  5.617E+03
    2.11373  5.614E+03
    2.11552  9.336E+03
    2.11731  9.467E+03
     2.1191  8.125E+03
     2.1209   7.42E+03
    2.12269   6.55E+03
    2.12449   6.21E+03
    2.12628  5.889E+03
    2.12808  7.424E+03
    2.12988  7.158E+03
    2.13167  6.475E+03
    2.13347  6.165E+03
    2.13527  5.957E+03
    2.13707  6.208E+03
    2.13887  6.445E+03
    2.14067  8.123E+03
    2.14248 1.5429E+04
    2.14428 1.5575E+04
    2.14608 1.6992E+04
    2.14789 2.0066E+04
    2.14969 2.0373E+04
     2.1515 1.6604E+04
     2.1533 1.3689E+04
    2.15511 1.1474E+04
    2.15692  9.458E+03
    2.15873 1.3158E+04
    2.16054 1.1415E+04
    2.16235  9.485E+03
    2.16416  8.285E+03
    2.16597  7.264E+03
    2.16779  6.428E+03
     2.1696  5.624E+03
    2.17142  5.256E+03
    2.17323  4.839E+03
    2.17505  4.734E+03
    2.17686  7.556E+03
    2.17868  6.699E+03
     2.1805   6.46E+03
    2.18232  8.112E+03
    2.18414 2.4391E+04
    2.18596 2.6851E+04
    2.18778 2.1888E+04
     2.1896 1.8536E+04
    2.19142 1.4226E+04
    2.19325 1.1808E+04
    2.19507  8.819E+03
     2.1969  7.917E+03
    2.19872  6.492E+03
    2.20055  6.036E+03
    2.20238  5.398E+03
     2.2042  5.129E+03
    2.20603  4.849E+03
    2.20786  4.764E+03
    2.20969  4.728E+03
    2.21152  4.529E+03
    2.21336   4.51E+03
    2.21519  4.464E+03
    2.21702  4.461E+03
    2.21886  4.525E+03
    2.22069  7.374E+03
    2.22253 1.9148E+04
    2.22436 1.5529E+04
     2.2262 1.3376E+04
    2.22804  1.153E+04
    2.22988  9.276E+03
    2.23172  7.825E+03
    2.23356  6.804E+03
     2.2354 1.7911E+04
    2.23724 1.4515E+04
    2.23908 1.2128E+04
    2.24093   9.88E+03
    2.24277  8.341E+03
    2.24461  7.162E+03
    2.24646  6.583E+03
    2.24831  5.775E+03
    2.25015  5.257E+03
      2.252  4.989E+03
    2.25385   4.77E+03
     2.2557  4.593E+03
    2.25755   4.71E+03
     2.2594  4.453E+03
    2.26125  4.559E+03
     2.2631  4.687E+03
    2.26496   5.04E+03
    2.26681  4.707E+03
    2.26866  4.663E+03
    2.27052   4.88E+03
    2.27238   6.04E+03
    2.27423  8.363E+03
    2.27609   7.22E+03
    2.27795  6.908E+03
    2.27981  6.343E+03
    2.28167   5.79E+03
    2.28353   5.52E+03
    2.28539  5.427E+03
    2.28725  5.303E+03
    2.28912  5.248E+03
    2.29098  5.319E+03
    2.29284   7.42E+03
    2.29471  8.045E+03
    2.29658 2.6252E+04
    2.29844 2.2034E+04
    2.30031 1.8468E+04
    2.30218 1.4427E+04
    2.30405 1.2509E+04
    2.30592  9.379E+03
    2.30779  8.387E+03
    2.30966  7.111E+03
    2.31153  7.079E+03
     2.3134    6.7E+03
    2.31528  6.388E+03
    2.31715  6.063E+03
    2.31903  5.947E+03
     2.3209  5.936E+03
    2.32278  5.762E+03
    2.32466 2.3123E+04
    2.32653 2.1192E+04
    2.32841 1.6749E+04
    2.33029 1.3621E+04
    2.33217 1.1604E+04
    2.33405   9.91E+03
    2.33594  8.909E+03
    2.33782  7.446E+03
     2.3397  7.039E+03
    2.34159  6.589E+03
    2.34347  6.898E+03
    2.34536  4.253E+03
    2.34724 1.0367E+04
    2.34913  8.759E+03
    2.35102  8.076E+03
    2.35291  7.428E+03
     2.3548  6.955E+03
    2.35669  6.637E+03
    2.35858  6.525E+03
    2.36047  6.441E+03
    2.36236  6.504E+03
    2.36426  6.405E+03
    2.36615  6.493E+03
    2.36805  6.494E+03
    2.36994  6.654E+03
    2.37184 1.4262E+04
    2.37373 2.3398E+04
    2.37563 1.8612E+04
    2.37753 1.7734E+04
    2.37943 1.3755E+04
    2.38133 1.2206E+04
    2.38323 1.5228E+04
    2.38513 2.7261E+04
    2.38703 2.6671E+04
    2.38894  2.049E+04
    2.39084 1.7037E+04
    2.39275 1.2536E+04
    2.39465 1.0293E+04
    2.39656  9.036E+03
    2.39847  7.723E+03
    2.40037  7.146E+03
    2.40228  7.142E+03
    2.40419  8.155E+03
     2.4061 2.1712E+04
    2.40801 2.7105E+04
    2.40992 2.3519E+04
    2.41184 2.4716E+04
    2.41375  2.031E+04
    2.41566 1.6251E+04
    2.41758 1.4352E+04
    2.41949 1.8431E+04
    2.42141 1.5404E+04
    2.42332 1.2499E+04
    2.42524 1.0855E+04
    2.42716  9.518E+03
    2.42908  8.948E+03
      2.431  8.545E+03
    2.43292  8.729E+03
    2.43484  8.404E+03
    2.43676  8.125E+03
    2.43869  7.823E+03
    2.44061  7.099E+03
    2.44253  6.786E+03
    2.44446  6.085E+03
    2.44639 1.3327E+04
    2.44831 1.1067E+04
    2.45024 1.3574E+04
    2.45217 1.1276E+04
     2.4541 1.0648E+04
    2.45603  9.899E+03
    2.45796  8.427E+03
    2.45989  7.586E+03
    2.46182  6.968E+03
    2.46375  6.398E+03
    2.46569  6.075E+03
    2.46762  6.691E+03
    2.46956 2.1422E+04
    2.47149 1.5864E+04
    2.47343 1.3046E+04
    2.47537 1.1367E+04
     2.4773  9.548E+03
    2.47924  8.044E+03
    2.48118  7.497E+03
    2.48312  6.852E+03
    2.48506  6.587E+03
      2.487  6.588E+03
    2.48895  6.712E+03
    2.49089   6.31E+03
    2.49283  6.302E+03
    2.49478  6.368E+03
    2.49673 3.4826E+04
    2.49867 4.6423E+04
    2.50062 3.7147E+04
    2.50257 2.7007E+04
    2.50452 2.0615E+04
    2.50646 1.6597E+04
    2.50841 1.2798E+04
    2.51037 1.0319E+04
    2.51232  8.715E+03
    2.51427  7.491E+03
    2.51622 1.6046E+04
    2.51818 1.2519E+04
    2.52013  1.093E+04
    2.52209  9.087E+03
    2.52404  8.274E+03
      2.526   7.63E+03
    2.52796  7.094E+03
    2.52992  6.812E+03
    2.53188  6.535E+03
    2.53384  6.455E+03
     2.5358   6.55E+03
    2.53776  6.719E+03
    2.53972  7.526E+03
    2.54168 4.3328E+04
    2.54365  3.167E+04
    2.54561 2.5419E+04
    2.54758 2.5734E+04
    2.54954  1.786E+04
    2.55151 1.4398E+04
    2.55348 1.1369E+04
    2.55545  9.719E+03
    2.55742  8.836E+03
    2.55939  8.597E+03
    2.56136  9.664E+03
    2.56333 1.4708E+04
     2.5653 1.3072E+04
    2.56727 1.1485E+04
    2.56925  9.913E+03
    2.57122  9.224E+03
     2.5732  8.254E+03
    2.57517  7.743E+03
    2.57715 1.4925E+04
    2.57913 1.4001E+04
     2.5811 1.1671E+04
    2.58308 1.0283E+04
    2.58506  8.985E+03
    2.58704  8.448E+03
    2.58903  7.759E+03
    2.59101  7.532E+03
    2.59299  7.283E+03
    2.59497  7.496E+03
    2.59696  7.228E+03
    2.59894  7.149E+03
    2.60093  7.111E+03
    2.60292  7.119E+03
     2.6049  7.915E+03
    2.60689 1.0993E+04
    2.60888 1.1541E+04
    2.61087 1.0305E+04
    2.61286  9.489E+03
    2.61485  8.624E+03
    2.61684  8.658E+03
    2.61884  8.319E+03
    2.62083  8.187E+03
    2.62282  7.901E+03
    2.62482  7.629E+03
    2.62681    7.6E+03
    2.62881  7.683E+03
    2.63081  8.432E+03
     2.6328 1.3874E+04
     2.6348 1.1948E+04
     2.6368 1.0723E+04
     2.6388  9.599E+03
     2.6408  8.908E+03
    2.64281  8.359E+03
    2.64481  8.219E+03
    2.64681   8.25E+03
    2.64882   8.09E+03
    2.65082  8.034E+03
    2.65283  8.011E+03
    2.65483  7.982E+03
    2.65684  7.939E+03
    2.65885  7.993E+03
    2.66086  9.942E+03
    2.66287 2.0541E+04
    2.66488 2.3393E+04
    2.66689 3.5762E+04
     2.6689 2.8209E+04
    2.67091 2.1016E+04
    2.67292 1.7121E+04
    2.67494 1.3874E+04
    2.67695 1.1952E+04
    2.67897 1.0375E+04
    2.68098   9.34E+03
      2.683  8.584E+03
    2.68502  8.389E+03
    2.68704   7.86E+03
    2.68906  7.957E+03
    2.69108   7.84E+03
     2.6931   7.91E+03
    2.69512  7.868E+03
    2.69714 1.8601E+04
    2.69916 1.3895E+04
    2.70119 1.2283E+04
    2.70321 1.2787E+04
    2.70524 1.1018E+04
    2.70726  9.992E+03
    2.70929  9.048E+03
    2.71132  8.666E+03
    2.71335  8.051E+03
    2.71537  8.081E+03
     2.7174  7.805E+03
    2.71943  7.771E+03
    2.72147  7.881E+03
     2.7235  7.868E+03
    2.72553  8.246E+03
    2.72756  8.249E+03
     2.7296  8.035E+03
    2.73163  8.024E+03
    2.73367  8.669E+03
    2.73571  8.524E+03
    2.73774  8.471E+03
    2.73978  8.547E+03
    2.74182  9.005E+03
    2.74386 1.0654E+04
     2.7459 1.0566E+04
    2.74794  9.925E+03
    2.74998  9.734E+03
    2.75203  8.869E+03
    2.75407   8.56E+03
    2.75611 1.6763E+04
    2.75816 1.5653E+04
    2.76021 1.4088E+04
    2.76225 2.0758E+04
     2.7643 5.6605E+04
    2.76635 3.9388E+04
     2.7684 2.9733E+04
    2.77045 2.2742E+04
     2.7725 2.1764E+04
    2.77455 1.7159E+04
     2.7766 1.4457E+04
    2.77865  1.228E+04
     2.7807 1.1225E+04
    2.78276 1.0445E+04
    2.78481  9.852E+03
    2.78687  9.828E+03
    2.78892  9.548E+03
    2.79098    9.5E+03
    2.79304  9.626E+03
     2.7951  9.612E+03
    2.79716  9.346E+03
    2.79922  9.403E+03
    2.80128  9.417E+03
    2.80334  9.403E+03
     2.8054  9.426E+03
    2.80747 1.3491E+04
    2.80953  3.439E+04
    2.81159 2.3381E+04
    2.81366 1.9157E+04
    2.81573 1.8937E+04
    2.81779 1.3144E+04
    2.81986  1.197E+04
    2.82193 1.0955E+04
      2.824 1.0705E+04
    2.82607 1.0101E+04
    2.82814 1.0175E+04
    2.83021 1.5944E+04
    2.83228 1.3342E+04
    2.83436 1.2313E+04
    2.83643 1.1449E+04
     2.8385 1.1014E+04
    2.84058 2.3465E+04
    2.84266 1.7255E+04
    2.84473 1.5741E+04
    2.84681 1.3167E+04
    2.84889 1.5798E+04
    2.85097 1.5048E+04
    2.85305 1.2919E+04
    2.85513 1.1748E+04
    2.85721  1.118E+04
    2.85929 1.1251E+04
    2.86137 1.1192E+04
    2.86346 1.0762E+04
    2.86554  1.062E+04
    2.86763 1.0591E+04
    2.86971 1.0726E+04
     2.8718 1.0928E+04
    2.87389 1.0913E+04
    2.87598 1.1086E+04
    2.87807 1.1163E+04
    2.88016 1.1181E+04
    2.88225 1.1251E+04
    2.88434  1.154E+04
    2.88643 1.1192E+04
    2.88852 1.1231E+04
    2.89062 1.1282E+04
    2.89271 1.1681E+04
     2.8948 1.1439E+04
     2.8969 1.1023E+04
      2.899 1.1662E+04
    2.90109  1.182E+04
    2.90319 1.1903E+04
    2.90529 1.2118E+04
    2.90739  1.274E+04
    2.90949 1.1538E+04
    2.91159 1.1247E+04
    2.91369 3.2945E+04
     2.9158 2.8643E+04
     2.9179 2.7482E+04
       2.92 2.4117E+04
    2.92211 2.0522E+04
    2.92421 1.6463E+04
    2.92632 1.4764E+04
    2.92843  1.411E+04
    2.93054 1.3551E+04
    2.93264 1.3595E+04
    2.93475 1.5166E+04
    2.93686 2.2679E+04
    2.93898   2.64E+04
    2.94109 2.6127E+04
     2.9432  3.146E+04
    2.94531 3.4408E+04
    2.94743  3.096E+04
    2.94954 2.4884E+04
    2.95166 2.0234E+04
    2.95377  1.701E+04
    2.95589 1.5229E+04
    2.95801  1.427E+04
    2.96013 1.3956E+04
    2.96225 1.3767E+04
    2.96437 1.3778E+04
    2.96649 1.3736E+04
    2.96861 1.5239E+04
    2.97073 1.8183E+04
    2.97285 1.6228E+04
    2.97498 1.5187E+04
     2.9771 1.4816E+04
    2.97923  1.499E+04
    2.98135 1.5001E+04
    2.98348 1.6095E+04
    2.98561 1.5708E+04
    2.98774 1.5393E+04
    2.98987 1.5218E+04
      2.992 1.5582E+04
    2.99413 1.5749E+04
    2.99626 1.5674E+04
    2.99839 1.6211E+04
    3.00052 1.5722E+04
    3.00266 1.5885E+04
    3.00479 1.5941E+04
    3.00693 1.8569E+04
    3.00906 1.8895E+04
     3.0112 1.7867E+04
    3.01334 1.7875E+04
    3.01547 1.7533E+04
    3.01761 1.7509E+04
    3.01975 1.8954E+04
    3.02189 1.8496E+04
    3.02404 1.8822E+04
    3.02618 1.9278E+04
    3.02832 1.9906E+04
    3.03046 2.0487E+04
    3.03261  2.118E+04
    3.03475 2.2611E+04
     3.0369 2.5419E+04
    3.03905  5.873E+04
    3.04119 1.0334E+05
    3.04334 6.8547E+04
    3.04549 4.2036E+04
    3.04764 3.0433E+04
    3.04979 2.4648E+04
    3.05194 2.2944E+04
    3.05409 2.1275E+04
ENDDATA            581
ENDSUBENT          594
SUBENT        D5068004   20091020   20100610   20100602       D072
BIB                  3          4
REACTION   (12-MG-26(P,G)13-AL-27,PAR,DA,,REL)
STATUS     (TABLE) Data (Fig.1 in reference, lower curve) were
           received  from A.S.Kachan through CNPD (2009.11.04)
EN-SEC     (E-MIN,G)
ENDBIB               4
COMMON               2          3
ANG        E-MIN
ADEG       MEV
55.        8.5
ENDCOMMON            3
DATA                 2        579
EN         DATA
MEV        ARB-UNITS
    1.93675     2.E+03
    1.93847  1.836E+03
    1.94018  1.791E+03
     1.9419  1.701E+03
    1.94362  1.676E+03
    1.94533  1.557E+03
    1.94705   1.56E+03
    1.94877   1.52E+03
    1.95049  1.608E+03
    1.95221  1.527E+03
    1.95393  1.618E+03
    1.95565  1.541E+03
    1.95738  1.499E+03
     1.9591  1.565E+03
    1.96082  1.831E+03
    1.96255  1.717E+03
    1.96427  1.948E+03
      1.966   1.09E+04
    1.96773 1.1045E+04
    1.96946  9.369E+03
    1.97118  7.809E+03
    1.97291  6.835E+03
    1.97464  5.512E+03
    1.97637  4.883E+03
    1.97811  3.852E+03
    1.97984   3.46E+03
    1.98157  3.127E+03
    1.98331  2.921E+03
    1.98504  2.838E+03
    1.98678  2.704E+03
    1.98851  2.645E+03
    1.99025   2.76E+03
    1.99199  2.845E+03
    1.99373  2.912E+03
    1.99547  2.895E+03
    1.99721  3.169E+03
    1.99895  3.176E+03
    2.00069  3.362E+03
    2.00243  3.526E+03
    2.00417  3.751E+03
    2.00592   4.04E+03
    2.00766  4.292E+03
    2.00941  4.484E+03
    2.01115  4.638E+03
     2.0129  5.134E+03
    2.01465  5.153E+03
     2.0164  5.337E+03
    2.01815  5.576E+03
     2.0199  5.896E+03
    2.02165  6.903E+03
     2.0234   6.63E+03
    2.02515  6.254E+03
     2.0269  6.153E+03
    2.02866  6.223E+03
    2.03041  5.769E+03
    2.03217  5.967E+03
    2.03392  6.564E+03
    2.03568  6.401E+03
    2.03744  5.952E+03
     2.0392  5.767E+03
    2.04095  5.458E+03
    2.04271  5.268E+03
    2.04448  5.163E+03
    2.04624  5.015E+03
      2.048  5.471E+03
    2.04976 2.9455E+04
    2.05153 2.3759E+04
    2.05329  1.974E+04
    2.05505 1.6708E+04
    2.05682 1.4008E+04
    2.05859 1.1012E+04
    2.06035  7.792E+03
    2.06212   6.61E+03
    2.06389  7.289E+03
    2.06566  6.819E+03
    2.06743  5.534E+03
     2.0692  4.893E+03
    2.07098  4.035E+03
    2.07275  3.445E+03
    2.07452  3.155E+03
     2.0763  2.785E+03
    2.07807  2.528E+03
    2.07985  2.461E+03
    2.08162  2.289E+03
     2.0834  2.166E+03
    2.08518   2.09E+03
    2.08696  2.243E+03
    2.08874   2.17E+03
    2.09052  2.052E+03
     2.0923  2.003E+03
    2.09408  2.854E+03
    2.09586   3.24E+03
    2.09765  2.867E+03
    2.09943  2.562E+03
    2.10121  2.419E+03
      2.103  2.265E+03
    2.10479  2.053E+03
    2.10657  1.957E+03
    2.10836  1.953E+03
    2.11015  1.862E+03
    2.11194   1.89E+03
    2.11373  1.895E+03
    2.11552  2.793E+03
    2.11731   2.88E+03
     2.1191  2.469E+03
     2.1209  2.295E+03
    2.12269  1.967E+03
    2.12449     2.E+03
    2.12628  1.922E+03
    2.12808  2.162E+03
    2.12988  2.091E+03
    2.13167  2.039E+03
    2.13347  2.002E+03
    2.13527  1.942E+03
    2.13707  2.092E+03
    2.13887  2.286E+03
    2.14067   3.15E+03
    2.14248  6.242E+03
    2.14428  6.436E+03
    2.14608   7.49E+03
    2.14789   9.47E+03
    2.14969  9.593E+03
     2.1515  7.616E+03
     2.1533  6.044E+03
    2.15511   5.01E+03
    2.15692  3.875E+03
    2.15873  5.524E+03
    2.16054  4.644E+03
    2.16235  3.703E+03
    2.16416  3.105E+03
    2.16597  2.655E+03
    2.16779   2.27E+03
     2.1696  1.933E+03
    2.17142  1.748E+03
    2.17323  1.552E+03
    2.17505  1.509E+03
    2.17686  2.424E+03
    2.17868  2.069E+03
     2.1805  2.052E+03
    2.18232  2.607E+03
    2.18414  9.545E+03
    2.18596  1.204E+04
    2.18778  9.667E+03
     2.1896  8.185E+03
    2.19142  6.202E+03
    2.19325  4.903E+03
    2.19507  3.517E+03
     2.1969   3.04E+03
    2.19872  2.355E+03
    2.20055  2.121E+03
    2.20238  1.835E+03
     2.2042  1.671E+03
    2.20603  1.565E+03
    2.20786  1.534E+03
    2.20969  1.398E+03
    2.21152  1.447E+03
    2.21336  1.405E+03
    2.21519  1.393E+03
    2.21702  1.284E+03
    2.21886  1.434E+03
    2.22069  2.741E+03
    2.22253  7.727E+03
    2.22436  6.118E+03
     2.2262  5.254E+03
    2.22804  4.407E+03
    2.22988  3.406E+03
    2.23172  2.754E+03
    2.23356  2.341E+03
     2.2354  9.257E+03
    2.23724   7.35E+03
    2.23908  5.937E+03
    2.24093  4.575E+03
    2.24277  3.655E+03
    2.24461  2.978E+03
    2.24646  2.574E+03
    2.24831  2.103E+03
    2.25015  1.816E+03
      2.252  1.746E+03
    2.25385  1.525E+03
     2.2557  1.505E+03
    2.25755   1.51E+03
     2.2594  1.281E+03
    2.26125  1.374E+03
     2.2631  1.398E+03
    2.26496  1.576E+03
    2.26681  1.483E+03
    2.26866  1.414E+03
    2.27052  1.449E+03
    2.27238  1.828E+03
    2.27423  2.683E+03
    2.27609  2.353E+03
    2.27795  2.192E+03
    2.27981  1.893E+03
    2.28167  1.786E+03
    2.28353  1.705E+03
    2.28539  1.613E+03
    2.28725  1.629E+03
    2.28912  1.682E+03
    2.29098  1.642E+03
    2.29284  2.486E+03
    2.29471  2.727E+03
    2.29658 1.0753E+04
    2.29844  8.717E+03
    2.30031  7.264E+03
    2.30218  5.588E+03
    2.30405   4.67E+03
    2.30592  3.285E+03
    2.30779   2.82E+03
    2.30966  2.311E+03
    2.31153  2.327E+03
     2.3134  2.125E+03
    2.31528  1.988E+03
    2.31715  1.884E+03
    2.31903   1.85E+03
     2.3209  1.902E+03
    2.32278   1.75E+03
    2.32466  8.281E+03
    2.32653  7.591E+03
    2.32841  5.892E+03
    2.33029  4.741E+03
    2.33217  3.974E+03
    2.33405  3.338E+03
    2.33594  3.053E+03
    2.33782  2.503E+03
     2.3397  2.344E+03
    2.34159  2.158E+03
    2.34347   2.23E+03
    2.34536  4.153E+03
    2.34724  3.875E+03
    2.34913  3.182E+03
    2.35102  2.893E+03
    2.35291  2.646E+03
     2.3548  2.378E+03
    2.35669  2.288E+03
    2.35858  2.185E+03
    2.36047  2.246E+03
    2.36236  2.205E+03
    2.36426  2.165E+03
    2.36615  2.311E+03
    2.36805  2.246E+03
    2.36994  2.399E+03
    2.37184  5.796E+03
    2.37373 1.0093E+04
    2.37563  7.878E+03
    2.37753  6.543E+03
    2.37943  5.802E+03
    2.38133  5.057E+03
    2.38323  7.268E+03
    2.38513 1.4898E+04
    2.38703 1.4618E+04
    2.38894 1.0798E+04
    2.39084  8.665E+03
    2.39275  5.911E+03
    2.39465  4.558E+03
    2.39656  3.742E+03
    2.39847  2.897E+03
    2.40037  2.553E+03
    2.40228  2.435E+03
    2.40419  3.133E+03
     2.4061 1.0672E+04
    2.40801 1.3912E+04
    2.40992 1.1915E+04
    2.41184 1.2111E+04
    2.41375  9.755E+03
    2.41566  7.411E+03
    2.41758  6.203E+03
    2.41949  7.197E+03
    2.42141  6.036E+03
    2.42332  4.742E+03
    2.42524  3.946E+03
    2.42716  3.422E+03
    2.42908  3.132E+03
      2.431  3.117E+03
    2.43292   3.23E+03
    2.43484  3.165E+03
    2.43676  2.886E+03
    2.43869  2.762E+03
    2.44061  2.443E+03
    2.44253  2.215E+03
    2.44446  1.877E+03
    2.44639   5.15E+03
    2.44831  3.984E+03
    2.45024  4.122E+03
    2.45217  3.454E+03
     2.4541   3.27E+03
    2.45603  3.006E+03
    2.45796  2.435E+03
    2.45989  2.208E+03
    2.46182  1.932E+03
    2.46375  1.828E+03
    2.46569  1.614E+03
    2.46762  1.988E+03
    2.46956  9.115E+03
    2.47149  6.381E+03
    2.47343  5.048E+03
    2.47537  4.134E+03
     2.4773  3.246E+03
    2.47924  2.663E+03
    2.48118  2.272E+03
    2.48312   2.03E+03
    2.48506  1.925E+03
      2.487  1.888E+03
    2.48895  1.826E+03
    2.49089  1.788E+03
    2.49283  1.721E+03
    2.49478  1.794E+03
    2.49673  1.719E+04
    2.49867 2.0865E+04
    2.50062 1.5952E+04
    2.50257 1.1375E+04
    2.50452  8.342E+03
    2.50646  6.424E+03
    2.50841   4.76E+03
    2.51037  3.448E+03
    2.51232   2.74E+03
    2.51427  2.213E+03
    2.51622  6.517E+03
    2.51818  4.713E+03
    2.52013  3.895E+03
    2.52209  3.026E+03
    2.52404  2.551E+03
      2.526  2.246E+03
    2.52796  1.949E+03
    2.52992  1.811E+03
    2.53188  1.774E+03
    2.53384  1.694E+03
     2.5358  1.736E+03
    2.53776  1.868E+03
    2.53972  2.347E+03
    2.54168  2.643E+04
    2.54365 1.8512E+04
    2.54561 1.4389E+04
    2.54758 1.3468E+04
    2.54954  8.733E+03
    2.55151   6.31E+03
    2.55348  4.597E+03
    2.55545  3.555E+03
    2.55742  2.943E+03
    2.55939  2.764E+03
    2.56136  3.211E+03
    2.56333  5.398E+03
     2.5653   4.69E+03
    2.56727  3.939E+03
    2.56925  3.303E+03
    2.57122  2.736E+03
     2.5732  2.351E+03
    2.57517   2.12E+03
    2.57715   5.02E+03
    2.57913  4.587E+03
     2.5811   3.58E+03
    2.58308  3.071E+03
    2.58506  2.501E+03
    2.58704  2.342E+03
    2.58903   1.99E+03
    2.59101  1.915E+03
    2.59299  1.806E+03
    2.59497  1.922E+03
    2.59696  1.842E+03
    2.59894  1.762E+03
    2.60093  1.725E+03
    2.60292   1.73E+03
     2.6049  2.243E+03
    2.60689   3.14E+03
    2.60888  3.271E+03
    2.61087  2.762E+03
    2.61286  2.553E+03
    2.61485  2.253E+03
    2.61684  2.273E+03
    2.61884  2.207E+03
    2.62083  2.272E+03
    2.62282  2.077E+03
    2.62482  1.954E+03
    2.62681   1.95E+03
    2.62881  2.012E+03
    2.63081  2.347E+03
     2.6328  5.314E+03
     2.6348  4.252E+03
     2.6368  3.583E+03
     2.6388  3.086E+03
     2.6408  2.594E+03
    2.64281  2.355E+03
    2.64481  2.245E+03
    2.64681   2.14E+03
    2.64882  2.089E+03
    2.65082   2.04E+03
    2.65283  2.039E+03
    2.65483  1.935E+03
    2.65684  1.983E+03
    2.65885  1.998E+03
    2.66086  2.699E+03
    2.66287  6.266E+03
    2.66488  6.961E+03
    2.66689 1.4405E+04
     2.6689 1.1128E+04
    2.67091  7.964E+03
    2.67292  6.178E+03
    2.67494  4.756E+03
    2.67695   3.84E+03
    2.67897  3.206E+03
    2.68098  2.572E+03
      2.683  2.351E+03
    2.68502  2.221E+03
    2.68704  2.009E+03
    2.68906  1.991E+03
    2.69108  1.888E+03
     2.6931  1.957E+03
    2.69512  1.985E+03
    2.69714   8.17E+03
    2.69916  5.512E+03
    2.70119  4.416E+03
    2.70321  3.911E+03
    2.70524  3.302E+03
    2.70726  2.757E+03
    2.70929  2.472E+03
    2.71132  2.201E+03
    2.71335  2.111E+03
    2.71537  1.952E+03
     2.7174  1.879E+03
    2.71943  1.889E+03
    2.72147   1.82E+03
     2.7235  1.905E+03
    2.72553  1.938E+03
    2.72756  1.851E+03
     2.7296  1.937E+03
    2.73163  1.848E+03
    2.73367  2.145E+03
    2.73571  2.048E+03
    2.73774  2.042E+03
    2.73978  2.167E+03
    2.74182  2.313E+03
    2.74386  3.048E+03
     2.7459  3.092E+03
    2.74794  2.754E+03
    2.74998    2.5E+03
    2.75203   2.31E+03
    2.75407  2.162E+03
    2.75611  4.253E+03
    2.75816  3.979E+03
    2.76021  3.721E+03
    2.76225  7.011E+03
     2.7643 2.3419E+04
    2.76635 1.5994E+04
     2.7684 1.1461E+04
    2.77045  8.017E+03
     2.7725  6.874E+03
    2.77455  4.884E+03
     2.7766  3.999E+03
    2.77865  3.095E+03
     2.7807  2.751E+03
    2.78276  2.599E+03
    2.78481  2.357E+03
    2.78687  2.309E+03
    2.78892  2.256E+03
    2.79098  2.252E+03
    2.79304  2.234E+03
     2.7951  2.246E+03
    2.79716  2.118E+03
    2.79922  2.151E+03
    2.80128  2.191E+03
    2.80334  2.138E+03
     2.8054    2.1E+03
    2.80747  3.801E+03
    2.80953 1.2611E+04
    2.81159  7.987E+03
    2.81366  6.469E+03
    2.81573  4.909E+03
    2.81779  3.782E+03
    2.81986  3.256E+03
    2.82193  2.812E+03
      2.824   2.65E+03
    2.82607  2.427E+03
    2.82814  2.333E+03
    2.83021  5.427E+03
    2.83228  4.038E+03
    2.83436  3.458E+03
    2.83643     3.E+03
     2.8385  2.783E+03
    2.84058  9.796E+03
    2.84266  6.293E+03
    2.84473   5.39E+03
    2.84681  4.007E+03
    2.84889  4.373E+03
    2.85097  4.098E+03
    2.85305    3.4E+03
    2.85513  2.898E+03
    2.85721   2.67E+03
    2.85929  2.544E+03
    2.86137  2.565E+03
    2.86346  2.388E+03
    2.86554  2.361E+03
    2.86763  2.309E+03
    2.86971  2.335E+03
     2.8718  2.401E+03
    2.87389  2.367E+03
    2.87598   2.47E+03
    2.87807  2.583E+03
    2.88016  2.578E+03
    2.88225  2.559E+03
    2.88434  2.716E+03
    2.88643  2.558E+03
    2.88852  2.591E+03
    2.89062  2.555E+03
    2.89271  2.672E+03
     2.8948  2.531E+03
     2.8969  2.561E+03
      2.899  2.708E+03
    2.90109  2.721E+03
    2.90319  2.682E+03
    2.90529  2.748E+03
    2.90739  2.884E+03
    2.90949  2.662E+03
    2.91159  2.732E+03
    2.91369 1.0276E+04
     2.9158  8.763E+03
     2.9179  7.673E+03
       2.92    6.2E+03
    2.92211  5.288E+03
    2.92421  4.178E+03
    2.92632  3.634E+03
    2.92843  3.321E+03
    2.93054  3.154E+03
    2.93264  3.174E+03
    2.93475  3.492E+03
    2.93686  4.999E+03
    2.93898  5.842E+03
    2.94109  5.478E+03
     2.9432  6.157E+03
    2.94531  5.931E+03
    2.94743   5.43E+03
    2.94954   4.83E+03
    2.95166  4.172E+03
    2.95377  3.676E+03
    2.95589  3.461E+03
    2.95801   3.19E+03
    2.96013  3.082E+03
    2.96225  3.062E+03
    2.96437  3.101E+03
    2.96649  3.093E+03
    2.96861  3.515E+03
    2.97073  4.322E+03
    2.97285  3.722E+03
    2.97498  3.369E+03
     2.9771  3.267E+03
    2.97923  3.148E+03
    2.98135  3.249E+03
    2.98348  3.586E+03
    2.98561  3.386E+03
    2.98774  3.334E+03
    2.98987  3.244E+03
      2.992  3.281E+03
    2.99413  3.387E+03
    2.99626  3.417E+03
    2.99839  3.356E+03
    3.00052  3.353E+03
    3.00266  3.344E+03
    3.00479  3.329E+03
    3.00693  4.211E+03
    3.00906  4.325E+03
     3.0112  3.826E+03
    3.01334  3.839E+03
    3.01547   3.83E+03
    3.01761  3.841E+03
    3.01975  4.044E+03
    3.02189  3.939E+03
    3.02404  3.937E+03
    3.02618  4.071E+03
    3.02832  4.213E+03
    3.03046   4.27E+03
    3.03261  4.405E+03
    3.03475  4.791E+03
     3.0369  5.118E+03
    3.03905  7.989E+03
    3.04119  9.482E+03
    3.04334  7.709E+03
    3.04549   6.62E+03
    3.04764  5.614E+03
    3.04979  5.255E+03
    3.05194  5.098E+03
    3.05409  4.782E+03
ENDDATA            581
ENDSUBENT          594
ENDENTRY             4
