ENTRY            22554   19991215   20030919
SUBENT        22554001   19991215   20030919
BIB                  7         11
INSTITUTE  (2FR SAC)
REFERENCE  (J,JPR,24,826,196311)
           (W,LEROY,196303)
AUTHOR     (J.L.LEROY,F.C.BERTHELOT,E.POMELAS)
TITLE      MEASUREMENT OF SODIUM, THORIUM AND URANIUM CROSS
           SECTIONS FOR NEUTRONS WITH ENERGIES BETWEEN 2 AND 10
           MEV.
METHOD     (TOF)      TIME-OF-FLIGHT
STATUS     (SCSRS)
HISTORY    (19820331C)  NNDC
           (19991215T)  Converted by S.M.
ENDBIB              11
NOCOMMON             0          0
ENDSUBENT           14
SUBENT        22554002   19991215   20030919
BIB                  3          3
REACTION   (90-TH-232(N,TOT),,SIG)
ERR-ANALYS (ERR-S) DATA-ERR GIVEN IS STATISTICAL ERROR ONLY
HISTORY    (19991215T)   Converted from SUBENT 61120002
ENDBIB               3
NOCOMMON             0          0
DATA                 4         56
EN         EN-ERR     DATA       ERR-S
MEV        MEV        B          B
 1.9800E+00            6.9700E+00 3.5000E+01
 2.0250E+00            7.0300E+00 3.4000E+01
 2.0700E+00 8.0000E-02 6.8600E+00 3.1000E+01
 2.1100E+00            6.9500E+00 3.0000E+01
 2.1600E+00            6.7000E+00 2.7000E+01
 2.2100E+00            6.6400E+00 2.4000E+01
 2.2600E+00            7.6600E+00 2.9000E+01
 2.3100E+00            7.2800E+00 2.5000E+01
 2.3600E+00            6.8200E+00 2.3000E+01
 2.4100E+00            7.3100E+00 2.4000E+01
 2.4800E+00            7.1000E+00 2.2000E+01
 2.5400E+00            7.1700E+00 2.2000E+01
 2.5900E+00 1.1000E-01 7.1200E+00 2.1000E+01
 2.6500E+00            7.1300E+00 2.1000E+01
 2.7300E+00            6.9900E+00 2.0000E+01
 2.7900E+00            7.3400E+00 2.0000E+01
 2.8600E+00            7.2600E+00 2.0000E+01
 2.9300E+00            7.5400E+00 2.1000E+01
 3.0100E+00            7.5000E+00 2.0000E+01
 3.0900E+00            7.3200E+00 1.9000E+01
 3.1700E+00 1.4000E-01 7.5600E+00 2.0000E+01
 3.2700E+00            7.2200E+00 1.9000E+01
 3.3600E+00            7.3200E+00 2.0000E+01
 3.4500E+00            7.3500E+00 2.0000E+01
 3.5300E+00            7.6700E+00 2.2000E+01
 3.6300E+00            7.9400E+00 2.4000E+01
 3.7500E+00            7.5400E+00 2.2000E+01
 3.8600E+00            7.4000E+00 2.1000E+01
 3.9800E+00            7.5000E+00 2.2000E+01
 4.1000E+00            7.4000E+00 2.2000E+01
 4.2200E+00 2.0000E-01 7.4300E+00 2.2000E+01
 4.3600E+00            7.3300E+00 2.3000E+01
 4.5000E+00            7.2100E+00 2.2000E+01
 4.6600E+00            7.0500E+00 2.1000E+01
 4.8200E+00            7.0600E+00 2.1000E+01
 4.9700E+00            7.5600E+00 2.4000E+01
 5.1500E+00 2.6000E-01 7.4300E+00 2.5000E+01
 5.3300E+00            7.1300E+00 2.4000E+01
 5.5200E+00            7.0600E+00 2.4000E+01
 5.7300E+00            6.8400E+00 2.3000E+01
 5.9500E+00            6.9100E+00 2.4000E+01
 6.1700E+00            6.8500E+00 2.4000E+01
 6.4200E+00            6.3700E+00 2.1000E+01
 6.6700E+00            6.2400E+00 2.2000E+01
 6.9500E+00            6.6700E+00 2.3000E+01
 7.2600E+00 4.5000E-01 5.9200E+00 2.1000E+01
 7.5600E+00            6.2400E+00 2.2000E+01
 7.8900E+00            5.9500E+00 2.1000E+01
 8.2100E+00            5.9600E+00 2.1000E+01
 8.5800E+00            5.6900E+00 2.0000E+01
 8.9700E+00            5.7500E+00 2.0000E+01
 9.4100E+00            5.6400E+00 1.9000E+01
 9.9000E+00            5.8500E+00 1.8000E+01
 1.0380E+01 7.0000E-01 5.6200E+00 1.7000E+01
 1.0910E+01            5.9000E+00 1.7000E+01
 1.4480E+01            5.5500E+00 1.1000E+01
ENDDATA             58
ENDSUBENT           66
ENDENTRY             2
