ENTRY            22592   20010202   20030919
SUBENT        22592001   20010202   20030919
BIB                 10         18
INSTITUTE  (2FR SAC,2FR BRC)
REFERENCE  (C,73ROCH,2,201,197308)
           (J,PL/B,42,344,197212)
AUTHOR     (J.FREHAUT,D.SHACKLETON)
TITLE      Measurement of the Mean Number of Prompt Neutrons and
           The Mean Energy of Prompt Gamma-Rays Emitted During
           Resonance Neutron Induced Fission in 235-U and 239-Pu
FACILITY   (LINAC,2FR SAC) Saclay 60MeV Electron Linear
                           Accelerator
DETECTOR   (SCIN) Liquid Scintillator
MONITOR    (98-CF-252(0,F),,NU)
            Data Normalized to Nubar of Cf-252 of 3.78
ERR-ANALYS No Information
STATUS     (APRVD) Data Received in Private Comm. To NNDC, from
            Soleilhac, 76/3/10.
HISTORY    (19760319C)
           (19991217T)  Converted by S.M.
           (20010202U) Last checking has been done.
ENDBIB              18
COMMON               1          3
MONIT
NO-DIM
       3.78
ENDCOMMON            3
ENDSUBENT           25
SUBENT        22592002   20010202   20030919
BIB                  2          3
REACTION   (94-PU-239(N,F),PR,NU)
HISTORY    (19991217T)  Converted from Subent 67020002
           (20010202U) Last checking has been done.
ENDBIB               3
NOCOMMON
DATA                 3        137
EN         DATA       DATA-ERR
EV         PRT/FIS    PRT/FIS
        7.8      2.852    5.0E-03
   1.09E+01      2.864    4.0E-03
   1.19E+01      2.850    7.0E-03
   1.43E+01      2.858    8.0E-03
   1.47E+01      2.857    6.0E-03
   1.55E+01      2.874    9.0E-03
   1.77E+01      2.852    6.0E-03
   2.23E+01      2.860    6.0E-03
   2.39E+01      2.824    3.4E-02
   2.62E+01      2.849    9.0E-03
   3.23E+01      2.867    2.2E-02
   3.55E+01      2.677    6.8E-02
   4.14E+01      2.709    5.8E-02
   4.15E+01      2.813    1.2E-02
   4.17E+01      2.871    2.1E-02
   4.45E+01      2.747    1.7E-02
   4.76E+01      2.861    1.2E-02
   4.97E+01      2.923    2.2E-02
   5.01E+01      2.809    1.5E-02
   5.01E+01      2.757    2.6E-02
   5.26E+01      2.826    1.3E-02
   5.56E+01      2.870    2.1E-02
   5.74E+01      2.895    9.0E-03
   5.92E+01      2.869    9.0E-03
   6.09E+01      2.886    1.5E-02
   6.31E+01      2.893    2.3E-02
   6.31E+01      2.898    4.1E-02
   6.57E+01      2.872    7.0E-03
   7.40E+01      2.873    1.8E-02
   7.40E+01      2.874    2.1E-02
   7.49E+01      2.868    6.0E-03
   8.18E+01      2.854    1.7E-02
   8.53E+01      2.896    1.3E-02
   8.55E+01      2.849    1.5E-02
   9.08E+01      2.798    1.9E-02
   9.08E+01      2.786    2.1E-02
   9.54E+01      2.883    2.9E-02
   9.54E+01      2.894    7.0E-02
   9.65E+01      2.873    1.7E-02
  1.003E+02      2.881    2.4E-02
  1.030E+02      2.823    4.5E-02
  1.030E+02      2.791    7.2E-02
  1.053E+02      2.761    3.7E-02
  1.053E+02      2.731    4.7E-02
  1.067E+02      2.851    1.6E-02
  1.104E+02      2.825    8.5E-02
  1.144E+02      2.924    4.4E-02
  1.160E+02      2.847    1.2E-02
  1.188E+02      2.849    8.0E-03
  1.210E+02      2.874    1.9E-02
  1.234E+02      2.905    3.9E-02
  1.262E+02      2.846    3.3E-02
  1.262E+02      2.816    5.5E-02
  1.317E+02      2.892    1.0E-02
  1.338E+02      2.847    2.4E-02
  1.338E+02      2.794    5.8E-02
  1.367E+02      2.888    1.5E-02
  1.430E+02      2.864    1.3E-02
  1.462E+02      2.875    2.6E-02
  1.462E+02      2.870    2.8E-02
  1.474E+02      2.954    5.5E-02
  1.494E+02      2.906    3.2E-02
  1.571E+02      2.876    1.0E-02
  1.645E+02      2.771    1.8E-02
  1.671E+02      2.854    1.6E-02
  1.710E+02      2.969    3.6E-02
  1.760E+02      2.863    3.5E-02
  1.772E+02      2.783    4.8E-02
  1.789E+02      2.840    6.0E-02
  1.836E+02      2.875    3.4E-02
  1.836E+02      2.845    5.0E-02
  1.849E+02      2.944    2.9E-02
  1.906E+02      2.881    6.2E-02
  1.954E+02      2.900    1.0E-02
  1.994E+02      2.822    1.5E-02
  2.074E+02      2.811    4.0E-02
  2.165E+02      2.853    3.7E-02
  2.200E+02      2.836    2.2E-02
  2.232E+02      2.880    5.4E-02
  2.232E+02      2.858    6.5E-02
  2.278E+02      2.855    4.7E-02
  2.314E+02      2.871    3.3E-02
  2.314E+02      2.807    6.3E-02
  2.343E+02      2.854    3.0E-02
  2.343E+02      2.843    4.7E-02
  2.390E+02      2.924    3.6E-02
  2.390E+02      2.948    5.1E-02
  2.429E+02      2.890    2.1E-02
  2.466E+02      2.874    4.3E-02
  2.489E+02      2.753    3.6E-02
  2.512E+02      2.808    2.1E-02
  2.546E+02      2.827    3.5E-02
  2.561E+02      2.840    2.9E-02
  2.624E+02      2.848    1.9E-02
  2.691E+02      2.842    2.8E-02
  2.695E+02      2.842    2.8E-02
  2.726E+02      2.868    1.5E-02
  2.772E+02      2.832    3.9E-02
  2.796E+02      2.838    2.5E-02
  2.796E+02      2.842    4.0E-02
  2.829E+02      2.863    2.9E-02
  2.829E+02      2.851    4.7E-02
  2.880E+02      2.884    2.3E-02
  2.923E+02      2.879    3.5E-02
  2.923E+02      2.876    5.2E-02
  2.965E+02      2.751    4.6E-02
  2.986E+02      2.856    3.0E-02
  3.018E+02      2.865    1.9E-02
  3.080E+02      2.836    2.3E-02
  3.090E+02      2.836    2.3E-02
  3.136E+02      2.804    3.9E-02
  3.167E+02      2.841    4.3E-02
  3.234E+02      2.840    2.6E-02
  3.253E+02      2.857    3.7E-02
  3.296E+02      2.901    5.8E-02
  3.339E+02      2.703    8.1E-02
  3.359E+02      2.873    3.9E-02
  3.392E+02      2.669    8.1E-02
  3.432E+02      2.845    3.2E-02
  3.503E+02      2.882    2.4E-02
  3.579E+02      2.763    6.7E-02
  3.660E+02      2.732    4.6E-02
  3.843E+02      2.847    3.7E-02
  3.859E+02      2.929    1.0E-01
  3.944E+02      2.835    4.3E-02
  3.969E+02      2.897    7.1E-02
  4.016E+02      2.821    2.1E-02
  4.042E+02      2.819    2.2E-02
  4.123E+02      2.833    3.6E-02
  4.198E+02      2.900    4.0E-02
  4.264E+02      2.853    4.4E-02
  4.313E+02      2.770    5.7E-02
  4.424E+02      2.818    3.5E-02
  4.514E+02      3.043    9.0E-02
  4.557E+02      2.843    3.6E-02
  4.682E+02      2.878    3.2E-02
  4.700E+02      2.878    3.2E-02
ENDDATA            139
ENDSUBENT          147
ENDENTRY             2
