ENTRY            14130   20070411   20070719   20070713       1343
SUBENT        14130001   20070411   20070719   20070713       1343
BIB                 11         21
INSTITUTE  (1USALAS)
REFERENCE  (J,PR/C,75,034610,2007)
AUTHOR     (F.Tovesson,T.S.Hill)
TITLE      Neutron induced fission cross section of 237Np from
            100 keV to 200 MeV
FACILITY   (ACCEL,1USALAS) LANSCE accelerator at Los Alamos
INC-SPECT  WNR center, spallation target, 90-degree left flight
            path, 9.84 meters
DETECTOR   (FISCH) Event counting was achieved by detecting
            fission fragments in a gas-filled parallel-plate
            ionization chamber
SAMPLE     For this experiment the following samples were mounted:
            237Np (5.6 mg), 238U (11.4 mg), 235U (15.5 mg), and
            a blank backing foil. The sample deposits were
            13.3 cm in diameter.
METHOD     (TOF)
MONITOR    The 235U sample was used for neutron flux monitoring,
            the 238U sample for measuring beam-related background
            events, and the blank foil to monitor neutron-induced
            charged-particle emission from the sample backings.
HISTORY    (20070411C) DR
ENDBIB              21
NOCOMMON             0          0
ENDSUBENT           24
SUBENT        14130002   20070411   20070719   20070713       1343
BIB                  3          3
REACTION   ((93-NP-237(N,F),,SIG)/(92-U-235(N,F),,SIG))
ERR-ANALYS (ERR-T) Total uncertainties
STATUS     Data received from F. Tovesson on April 2007
ENDBIB               3
NOCOMMON             0          0
DATA                 3        660
EN         DATA       ERR-T
EV         NO-DIM     NO-DIM
 1.0058E+05 0.019641  0.0149375
 1.0174E+05 0.0418093 0.0157872
 1.0292E+05 0.0274231 0.0144341
 1.0411E+05 0.0447181 0.0142638
 1.0532E+05 0.0216455 0.0140757
 1.0654E+05 0.0236944 0.0143174
 1.0777E+05 0.023461  0.0149926
 1.0902E+05 0.0387153 0.0146204
 1.1028E+05 0.0565318 0.0144747
 1.1156E+05 0.0290959 0.0148916
 1.1285E+05 0.0466514 0.0141054
 1.1416E+05 0.0241021 0.0125589
 1.1548E+05 0.0439855 0.0130305
 1.1682E+05 0.0423974 0.0127327
 1.1817E+05 0.0327203 0.011493
 1.1954E+05 0.0374038 0.0118159
 1.2092E+05 0.0308338 0.0125264
 1.2232E+05 0.0184408 0.0112516
 1.2374E+05 0.0327566 0.0113041
 1.2517E+05 0.0299656 0.01083
 1.2662E+05 0.0334394 0.0106237
 1.2809E+05 0.0319214 0.0111512
 1.2957E+05 0.0310185 0.0121108
 1.3107E+05 0.0165257 0.0099475
 1.3259E+05 0.0388327 0.00979993
 1.3412E+05 0.0275399 0.0089342
 1.3568E+05 0.0353944 0.00864401
 1.3725E+05 0.0429262 0.00959032
 1.3884E+05 0.0409193 0.0116938
 1.4045E+05 0.0335496 0.0132635
 1.4207E+05 0.0337653 0.0117574
 1.4372E+05 0.0379947 0.0113058
 1.4538E+05 0.0358115 0.0104126
 1.4706E+05 0.0371191 0.00987343
 1.4877E+05 0.0495759 0.00982049
 1.5049E+05 0.0303806 0.00916679
 1.5223E+05 0.0325959 0.00884899
 1.5400E+05 0.0341034 0.00849105
 1.5578E+05 0.0400601 0.00889793
 1.5758E+05 0.0380147 0.00859699
 1.5941E+05 0.0419896 0.00882234
 1.6125E+05 0.0280602 0.00549984
 1.6312E+05 0.030587  0.00536856
 1.6501E+05 0.0358996 0.00523379
 1.6692E+05 0.0394447 0.00525205
 1.6885E+05 0.0380609 0.006011
 1.7081E+05 0.0304439 0.00530262
 1.7279E+05 0.0388125 0.00534112
 1.7479E+05 0.0312315 0.00493152
 1.7681E+05 0.0353509 0.00474562
 1.7886E+05 0.0339356 0.00464338
 1.8093E+05 0.0370617 0.00434539
 1.8302E+05 0.0334012 0.0041771
 1.8514E+05 0.0374045 0.00471619
 1.8729E+05 0.0393961 0.00540884
 1.8946E+05 0.0334519 0.00510719
 1.9165E+05 0.0416798 0.00486415
 1.9387E+05 0.0425124 0.00467703
 1.9611E+05 0.0347456 0.00462814
 1.9838E+05 0.0418326 0.00457743
 2.0068E+05 0.0399794 0.00433104
 2.0301E+05 0.0307806 0.00413932
 2.0536E+05 0.0374762 0.0042278
 2.0773E+05 0.032934  0.00411861
 2.1014E+05 0.0393756 0.00420027
 2.1257E+05 0.0345263 0.00395759
 2.1503E+05 0.036002  0.00388044
 2.1752E+05 0.0405573 0.00387884
 2.2004E+05 0.0363836 0.00406233
 2.2259E+05 0.0401407 0.00394952
 2.2517E+05 0.0391362 0.00392162
 2.2778E+05 0.0425404 0.00370864
 2.3041E+05 0.0356453 0.00368391
 2.3308E+05 0.0397253 0.00379651
 2.3578E+05 0.0408347 0.00372988
 2.3851E+05 0.0384206 0.00353843
 2.4127E+05 0.0455815 0.00354537
 2.4407E+05 0.0420979 0.0036445
 2.4689E+05 0.0409771 0.00353031
 2.4975E+05 0.0387675 0.00352162
 2.5264E+05 0.0388491 0.0034372
 2.5557E+05 0.0422678 0.00345221
 2.5853E+05 0.0397044 0.00321264
 2.6152E+05 0.0434233 0.00319356
 2.6455E+05 0.0532875 0.00329137
 2.6761E+05 0.0475925 0.00306558
 2.7071E+05 0.0486598 0.00302752
 2.7385E+05 0.0506125 0.00339817
 2.7702E+05 0.055195  0.00364984
 2.8023E+05 0.0518665 0.0034121
 2.8347E+05 0.048237  0.00319748
 2.8675E+05 0.0549376 0.00322112
 2.9007E+05 0.0568854 0.00322888
 2.9343E+05 0.0596455 0.00312014
 2.9683E+05 0.0576015 0.00297956
 3.0027E+05 0.0613394 0.00291595
 3.0374E+05 0.0612151 0.00286136
 3.0726E+05 0.0684346 0.00282507
 3.1082E+05 0.0673977 0.00283849
 3.1442E+05 0.0660832 0.00298538
 3.1806E+05 0.0699674 0.00311849
 3.2174E+05 0.0790457 0.00310357
 3.2547E+05 0.0742515 0.00303044
 3.2924E+05 0.0801926 0.00305071
 3.3305E+05 0.0826255 0.00297386
 3.3691E+05 0.0790489 0.0028729
 3.4081E+05 0.0884838 0.00289338
 3.4475E+05 0.0900259 0.00287114
 3.4874E+05 0.090565  0.00278245
 3.5278E+05 0.0905535 0.00276555
 3.5687E+05 0.104662  0.00301872
 3.6100E+05 0.108492  0.00313795
 3.6518E+05 0.109309  0.00300993
 3.6941E+05 0.116798  0.00295758
 3.7369E+05 0.121869  0.00289629
 3.7801E+05 0.123579  0.00306199
 3.8239E+05 0.131198  0.0031961
 3.8682E+05 0.134884  0.00321738
 3.9130E+05 0.143051  0.00322068
 3.9583E+05 0.150586  0.00324456
 4.0041E+05 0.153444  0.00323111
 4.0505E+05 0.16652   0.00340764
 4.0974E+05 0.174434  0.00342493
 4.1448E+05 0.186032  0.00359171
 4.1928E+05 0.199464  0.00358693
 4.2414E+05 0.215814  0.0037575
 4.2905E+05 0.227439  0.00394616
 4.3402E+05 0.239805  0.00392492
 4.3904E+05 0.245997  0.00397254
 4.4413E+05 0.266904  0.00410748
 4.4927E+05 0.279322  0.00405633
 4.5447E+05 0.295566  0.00413808
 4.5974E+05 0.297468  0.00405102
 4.6506E+05 0.324645  0.0041941
 4.7044E+05 0.334041  0.00433748
 4.7589E+05 0.365859  0.00451595
 4.8140E+05 0.373492  0.00448305
 4.8698E+05 0.393465  0.0046552
 4.9262E+05 0.404544  0.00456126
 4.9832E+05 0.409199  0.00463084
 5.0409E+05 0.428135  0.00465687
 5.0993E+05 0.442112  0.00478972
 5.1583E+05 0.467771  0.00486424
 5.2180E+05 0.472828  0.00482723
 5.2785E+05 0.495231  0.00490913
 5.3396E+05 0.497292  0.00491996
 5.4014E+05 0.526917  0.00511095
 5.4640E+05 0.548625  0.00513349
 5.5272E+05 0.561735  0.00513845
 5.5912E+05 0.575228  0.00523361
 5.6560E+05 0.600296  0.00529651
 5.7215E+05 0.632897  0.00558672
 5.7877E+05 0.649829  0.00552614
 5.8547E+05 0.660695  0.00545803
 5.9225E+05 0.68726   0.00553538
 5.9911E+05 0.709056  0.00561298
 6.0605E+05 0.725301  0.00568111
 6.1307E+05 0.756321  0.00593594
 6.2017E+05 0.770335  0.00588778
 6.2735E+05 0.798559  0.005969
 6.3461E+05 0.82194   0.00603868
 6.4196E+05 0.843135  0.0061501
 6.4939E+05 0.853781  0.0061211
 6.5691E+05 0.879802  0.0062486
 6.6452E+05 0.904549  0.00644011
 6.7221E+05 0.904954  0.00648082
 6.8000E+05 0.92707   0.00645095
 6.8787E+05 0.936485  0.0063828
 6.9584E+05 0.949733  0.00629712
 7.0389E+05 0.971285  0.00639031
 7.1205E+05 0.9757    0.00656906
 7.2029E+05 1.00773   0.00668804
 7.2863E+05 1.02749   0.00663559
 7.3707E+05 1.04066   0.00671971
 7.4560E+05 1.05157   0.00683128
 7.5424E+05 1.0758    0.00694481
 7.6297E+05 1.09273   0.0068774
 7.7180E+05 1.09392   0.00690568
 7.8074E+05 1.1133    0.00698589
 7.8978E+05 1.13329   0.00700179
 7.9893E+05 1.13556   0.00698817
 8.0818E+05 1.14087   0.00691524
 8.1754E+05 1.15974   0.00698352
 8.2700E+05 1.17218   0.00700818
 8.3658E+05 1.17427   0.00699997
 8.4627E+05 1.1874    0.00696041
 8.5607E+05 1.19562   0.007055
 8.6598E+05 1.18404   0.00695884
 8.7601E+05 1.19273   0.00687017
 8.8615E+05 1.18782   0.00684297
 8.9641E+05 1.20352   0.00692601
 9.0679E+05 1.20515   0.0068474
 9.1729E+05 1.22472   0.00688123
 9.2791E+05 1.21713   0.0067778
 9.3866E+05 1.20593   0.00665907
 9.4953E+05 1.21342   0.0066202
 9.6052E+05 1.21962   0.00683313
 9.7164E+05 1.22733   0.00677345
 9.8290E+05 1.21095   0.00674299
 9.9428E+05 1.2179    0.00680538
 1.0058E+06 1.22313   0.00676684
 1.0174E+06 1.23585   0.00671089
 1.0292E+06 1.24022   0.00685498
 1.0411E+06 1.23558   0.00679853
 1.0532E+06 1.2449    0.00680811
 1.0654E+06 1.24086   0.0067267
 1.0777E+06 1.23529   0.00668088
 1.0902E+06 1.24202   0.00667211
 1.1028E+06 1.26314   0.006752
 1.1156E+06 1.25009   0.00674648
 1.1285E+06 1.25902   0.00667176
 1.1416E+06 1.24954   0.00664931
 1.1548E+06 1.25254   0.00657268
 1.1682E+06 1.25624   0.00659709
 1.1817E+06 1.25491   0.00656626
 1.1954E+06 1.25568   0.00659148
 1.2092E+06 1.2801    0.00670923
 1.2232E+06 1.26578   0.00673853
 1.2374E+06 1.28301   0.00668413
 1.2517E+06 1.28622   0.00676585
 1.2662E+06 1.27995   0.00674529
 1.2809E+06 1.28373   0.00673437
 1.2957E+06 1.28291   0.0067592
 1.3107E+06 1.28782   0.00681699
 1.3259E+06 1.28709   0.0068138
 1.3412E+06 1.27976   0.00675511
 1.3568E+06 1.29418   0.00674939
 1.3725E+06 1.2974    0.00680935
 1.3884E+06 1.30448   0.00678318
 1.4045E+06 1.29113   0.00671954
 1.4207E+06 1.29842   0.00672076
 1.4372E+06 1.29332   0.0067397
 1.4538E+06 1.31049   0.0068705
 1.4706E+06 1.29209   0.00668196
 1.4877E+06 1.29978   0.00666061
 1.5049E+06 1.3128    0.00674617
 1.5223E+06 1.29458   0.00672393
 1.5400E+06 1.30514   0.00679565
 1.5578E+06 1.30915   0.0067287
 1.5758E+06 1.30243   0.00672069
 1.5941E+06 1.30514   0.00676823
 1.6125E+06 1.31618   0.00679471
 1.6312E+06 1.31766   0.00676855
 1.6501E+06 1.3165    0.00677814
 1.6692E+06 1.30685   0.00667277
 1.6885E+06 1.31122   0.0066834
 1.7081E+06 1.31242   0.00668545
 1.7279E+06 1.31933   0.00671124
 1.7479E+06 1.30999   0.00671473
 1.7681E+06 1.31696   0.00674776
 1.7886E+06 1.31893   0.00671583
 1.8093E+06 1.32295   0.00671048
 1.8302E+06 1.32163   0.0067584
 1.8514E+06 1.31009   0.00670372
 1.8729E+06 1.2975    0.00664514
 1.8946E+06 1.31589   0.0067144
 1.9165E+06 1.31297   0.00677019
 1.9387E+06 1.30782   0.00670147
 1.9611E+06 1.31153   0.00671042
 1.9838E+06 1.31813   0.00673944
 2.0068E+06 1.32676   0.00679535
 2.0301E+06 1.32036   0.00675913
 2.0536E+06 1.32109   0.00678278
 2.0773E+06 1.32069   0.00673542
 2.1014E+06 1.32424   0.00677636
 2.1257E+06 1.31512   0.00675585
 2.1503E+06 1.32986   0.00681598
 2.1752E+06 1.31808   0.00677812
 2.2004E+06 1.32252   0.00679637
 2.2259E+06 1.32836   0.00675562
 2.2517E+06 1.32484   0.00678337
 2.2778E+06 1.34242   0.00687474
 2.3041E+06 1.32542   0.0068109
 2.3308E+06 1.33534   0.00682494
 2.3578E+06 1.33467   0.00681384
 2.3851E+06 1.34402   0.00690859
 2.4127E+06 1.3271    0.00683884
 2.4407E+06 1.34736   0.00698374
 2.4689E+06 1.34914   0.00698387
 2.4975E+06 1.35279   0.00701012
 2.5264E+06 1.3573    0.00705663
 2.5557E+06 1.33128   0.00693674
 2.5853E+06 1.35533   0.00704677
 2.6152E+06 1.34201   0.00697161
 2.6455E+06 1.3568    0.00705552
 2.6761E+06 1.34979   0.00706584
 2.7071E+06 1.35975   0.00710706
 2.7385E+06 1.35409   0.00710404
 2.7702E+06 1.35279   0.00708524
 2.8023E+06 1.35735   0.00711098
 2.8347E+06 1.36563   0.00719526
 2.8675E+06 1.36019   0.00719208
 2.9007E+06 1.36336   0.00719737
 2.9343E+06 1.37309   0.00729497
 2.9683E+06 1.37035   0.00725554
 3.0027E+06 1.35018   0.00721809
 3.0374E+06 1.36251   0.00726561
 3.0726E+06 1.3612    0.00727235
 3.1082E+06 1.36294   0.00731834
 3.1442E+06 1.36642   0.00734529
 3.1806E+06 1.36976   0.00738798
 3.2174E+06 1.37416   0.00743653
 3.2547E+06 1.36662   0.00741491
 3.2924E+06 1.37899   0.00749722
 3.3305E+06 1.37165   0.00748953
 3.3691E+06 1.36904   0.00748342
 3.4081E+06 1.38051   0.00754843
 3.4475E+06 1.38687   0.00761398
 3.4874E+06 1.37953   0.00759272
 3.5278E+06 1.38253   0.00763717
 3.5687E+06 1.37822   0.00764935
 3.6100E+06 1.38542   0.00770383
 3.6518E+06 1.38139   0.00769992
 3.6941E+06 1.38583   0.00772317
 3.7369E+06 1.37373   0.00769881
 3.7801E+06 1.38749   0.00780289
 3.8239E+06 1.38848   0.00780462
 3.8682E+06 1.36738   0.00773569
 3.9130E+06 1.37547   0.00777571
 3.9583E+06 1.36883   0.00776322
 4.0041E+06 1.37988   0.00786983
 4.0505E+06 1.38302   0.0078892
 4.0974E+06 1.39655   0.0079835
 4.1448E+06 1.38491   0.00798518
 4.1928E+06 1.39187   0.00802766
 4.2414E+06 1.39184   0.00804845
 4.2905E+06 1.38909   0.00807411
 4.3402E+06 1.38103   0.00807065
 4.3904E+06 1.3776    0.00806624
 4.4413E+06 1.37133   0.00804826
 4.4927E+06 1.3885    0.00819001
 4.5447E+06 1.38256   0.00821499
 4.5974E+06 1.37128   0.00817458
 4.6506E+06 1.3938    0.00830786
 4.7044E+06 1.36913   0.00820692
 4.7589E+06 1.37327   0.008252
 4.8140E+06 1.36663   0.00831249
 4.8698E+06 1.3753    0.00833762
 4.9262E+06 1.39596   0.00851542
 4.9832E+06 1.38797   0.00853326
 5.0409E+06 1.38786   0.00860363
 5.0993E+06 1.37734   0.00862184
 5.1583E+06 1.38279   0.0086819
 5.2180E+06 1.39116   0.00875326
 5.2785E+06 1.40085   0.00886697
 5.3396E+06 1.39365   0.00886947
 5.4014E+06 1.40314   0.00897876
 5.4640E+06 1.39584   0.0089761
 5.5272E+06 1.40519   0.0090692
 5.5912E+06 1.42692   0.00925125
 5.6560E+06 1.45476   0.00939428
 5.7215E+06 1.43727   0.00931437
 5.7877E+06 1.47581   0.00951765
 5.8547E+06 1.48775   0.00957349
 5.9225E+06 1.49844   0.00957716
 5.9911E+06 1.49246   0.00943237
 6.0605E+06 1.52833   0.0095885
 6.1307E+06 1.51685   0.00944395
 6.2017E+06 1.49718   0.00925654
 6.2735E+06 1.47762   0.00905927
 6.3461E+06 1.46162   0.00886783
 6.4196E+06 1.43308   0.00865615
 6.4939E+06 1.42045   0.00847271
 6.5691E+06 1.41112   0.00836351
 6.6452E+06 1.41388   0.00831482
 6.7221E+06 1.39403   0.00818429
 6.8000E+06 1.37596   0.0080385
 6.8787E+06 1.3644    0.00792444
 6.9584E+06 1.36343   0.00788863
 7.0389E+06 1.3663    0.00790612
 7.1205E+06 1.34938   0.00779784
 7.2029E+06 1.34039   0.00776619
 7.2863E+06 1.30985   0.00760576
 7.3707E+06 1.32993   0.00771908
 7.4560E+06 1.30284   0.00757922
 7.5424E+06 1.29959   0.00758488
 7.6297E+06 1.29418   0.00756596
 7.7180E+06 1.28687   0.0075705
 7.8074E+06 1.29781   0.00767375
 7.8978E+06 1.28156   0.00759087
 7.9893E+06 1.27337   0.0075943
 8.0818E+06 1.27268   0.00762077
 8.1754E+06 1.27593   0.00768437
 8.2700E+06 1.26918   0.00769236
 8.3658E+06 1.26525   0.00771266
 8.4627E+06 1.26395   0.00776062
 8.5607E+06 1.24917   0.00774182
 8.6598E+06 1.25681   0.00785155
 8.7601E+06 1.2393    0.00780424
 8.8615E+06 1.26181   0.0079767
 8.9641E+06 1.23326   0.00787571
 9.0679E+06 1.24601   0.00801007
 9.1729E+06 1.25635   0.00811463
 9.2791E+06 1.23621   0.00807118
 9.3866E+06 1.23299   0.00812595
 9.4953E+06 1.24507   0.00825253
 9.6052E+06 1.23146   0.00826344
 9.7164E+06 1.21724   0.00824342
 9.8290E+06 1.23847   0.0084141
 9.9428E+06 1.2179    0.00839325
 1.0058E+07 1.22677   0.00851792
 1.0174E+07 1.23638   0.00866909
 1.0292E+07 1.24025   0.00872398
 1.0411E+07 1.25852   0.00894397
 1.0532E+07 1.22685   0.00883117
 1.0654E+07 1.22746   0.00888233
 1.0777E+07 1.23003   0.00895207
 1.0902E+07 1.22442   0.00900414
 1.1028E+07 1.22664   0.00910346
 1.1156E+07 1.21452   0.00907886
 1.1285E+07 1.21855   0.00919477
 1.1416E+07 1.21711   0.00926466
 1.1548E+07 1.21659   0.0093218
 1.1682E+07 1.21788   0.00935806
 1.1817E+07 1.22504   0.0095276
 1.1954E+07 1.2021    0.00944978
 1.2092E+07 1.19006   0.00936965
 1.2232E+07 1.18852   0.00941655
 1.2374E+07 1.16159   0.00928213
 1.2517E+07 1.15579   0.00924943
 1.2662E+07 1.15713   0.00929324
 1.2809E+07 1.1269    0.0091091
 1.2957E+07 1.1081    0.00897388
 1.3107E+07 1.0806    0.00879359
 1.3259E+07 1.06938   0.00872147
 1.3412E+07 1.07848   0.00882557
 1.3568E+07 1.05334   0.00862014
 1.3725E+07 1.03071   0.00848681
 1.3884E+07 1.03292   0.00848967
 1.4045E+07 1.04932   0.00858741
 1.4207E+07 1.04415   0.00856388
 1.4372E+07 1.02979   0.00846906
 1.4538E+07 1.04282   0.0085834
 1.4706E+07 1.04818   0.00861578
 1.4877E+07 1.05268   0.008653
 1.5049E+07 1.02405   0.0084612
 1.5223E+07 1.05515   0.00868598
 1.5400E+07 1.05079   0.00870895
 1.5578E+07 1.04354   0.00865927
 1.5758E+07 1.05333   0.00876689
 1.5941E+07 1.05332   0.00881305
 1.6125E+07 1.06888   0.00894929
 1.6312E+07 1.06641   0.00894534
 1.6501E+07 1.06222   0.00898502
 1.6692E+07 1.07048   0.00909417
 1.6885E+07 1.07997   0.00918809
 1.7081E+07 1.0783    0.0091851
 1.7279E+07 1.08016   0.009273
 1.7479E+07 1.07659   0.00929172
 1.7681E+07 1.07429   0.00929307
 1.7886E+07 1.08994   0.00945877
 1.8093E+07 1.10073   0.00957332
 1.8302E+07 1.09023   0.00953822
 1.8514E+07 1.0909    0.0095716
 1.8729E+07 1.10578   0.00973616
 1.8946E+07 1.09176   0.00968482
 1.9165E+07 1.11387   0.00987551
 1.9387E+07 1.09542   0.00972973
 1.9611E+07 1.10068   0.00980761
 1.9838E+07 1.10236   0.00985311
 2.0068E+07 1.09734   0.00980684
 2.0301E+07 1.09911   0.00982355
 2.0536E+07 1.07101   0.00966173
 2.0773E+07 1.09959   0.00985955
 2.1014E+07 1.08515   0.00974244
 2.1257E+07 1.06285   0.00959526
 2.1503E+07 1.05956   0.00954402
 2.1752E+07 1.07535   0.00964412
 2.2004E+07 1.08717   0.00972908
 2.2259E+07 1.04723   0.0094407
 2.2517E+07 1.06374   0.00953878
 2.2778E+07 1.06047   0.0095257
 2.3041E+07 1.04714   0.00942114
 2.3308E+07 1.04792   0.00942434
 2.3578E+07 1.05391   0.00948988
 2.3851E+07 1.05191   0.00944385
 2.4127E+07 1.05085   0.00947729
 2.4407E+07 1.04338   0.00941795
 2.4689E+07 1.05043   0.00946392
 2.4975E+07 1.03492   0.00937853
 2.5264E+07 1.03985   0.00943962
 2.5557E+07 1.07302   0.00969408
 2.5853E+07 1.05437   0.00957016
 2.6152E+07 1.04985   0.00952307
 2.6455E+07 1.06192   0.00959984
 2.6761E+07 1.03586   0.00950256
 2.7071E+07 1.06547   0.00966951
 2.7385E+07 1.06146   0.00969703
 2.7702E+07 1.04896   0.00959599
 2.8023E+07 1.0399    0.00952492
 2.8347E+07 1.04688   0.00956949
 2.8675E+07 1.02701   0.00944499
 2.9007E+07 1.04051   0.00955496
 2.9343E+07 1.0554    0.00965419
 2.9683E+07 1.04561   0.00956393
 3.0027E+07 1.05505   0.00965483
 3.0374E+07 1.03229   0.009507
 3.0726E+07 1.04752   0.00962888
 3.1082E+07 1.02129   0.00943519
 3.1442E+07 1.00417   0.00933452
 3.1806E+07 1.05206   0.00968192
 3.2174E+07 1.03921   0.00960426
 3.2547E+07 1.05555   0.00972247
 3.2924E+07 1.03823   0.0095868
 3.3305E+07 1.04489   0.00964612
 3.3691E+07 1.02998   0.00954499
 3.4081E+07 1.0424    0.00965768
 3.4475E+07 1.04794   0.00969899
 3.4874E+07 1.04209   0.00966441
 3.5278E+07 1.04776   0.00972759
 3.5687E+07 1.0453    0.00974367
 3.6100E+07 1.04349   0.00973087
 3.6518E+07 1.03816   0.00969738
 3.6941E+07 1.02694   0.00964846
 3.7369E+07 1.04435   0.00980408
 3.7801E+07 1.03483   0.00975527
 3.8239E+07 1.04691   0.00983469
 3.8682E+07 1.05894   0.00995134
 3.9130E+07 1.02647   0.00973077
 3.9583E+07 1.03369   0.00978282
 4.0041E+07 1.04379   0.00985056
 4.0505E+07 1.03959   0.00985061
 4.0974E+07 1.04331   0.00990645
 4.1448E+07 1.05103   0.00997837
 4.1928E+07 1.06046   0.0100584
 4.2414E+07 1.04428   0.00997079
 4.2905E+07 1.04932   0.0100236
 4.3402E+07 1.03733   0.00993866
 4.3904E+07 1.03516   0.00994245
 4.4413E+07 1.04515   0.0099937
 4.4927E+07 1.03225   0.00996878
 4.5447E+07 1.03704   0.0100403
 4.5974E+07 1.03542   0.0100177
 4.6506E+07 1.03334   0.0100159
 4.7044E+07 1.05423   0.010227
 4.7589E+07 1.05242   0.0102043
 4.8140E+07 1.0425    0.0101286
 4.8698E+07 1.03624   0.010152
 4.9262E+07 1.04426   0.010265
 4.9832E+07 1.03875   0.0102538
 5.0409E+07 1.03934   0.0102687
 5.0993E+07 1.05162   0.0103625
 5.1583E+07 1.04897   0.0103758
 5.2180E+07 1.0337    0.0103106
 5.2785E+07 1.04988   0.0104094
 5.3396E+07 1.05107   0.0104755
 5.4014E+07 1.04125   0.0104638
 5.4640E+07 1.06722   0.0106186
 5.5272E+07 1.04994   0.0105392
 5.5912E+07 1.03359   0.0104648
 5.6560E+07 1.04524   0.010572
 5.7215E+07 1.02592   0.0104291
 5.7877E+07 1.05608   0.0107534
 5.8547E+07 1.04865   0.0106634
 5.9225E+07 1.04488   0.0107448
 5.9911E+07 1.04346   0.0107602
 6.0605E+07 1.03347   0.010666
 6.1307E+07 1.04904   0.0108339
 6.2017E+07 1.02889   0.010723
 6.2735E+07 1.0416    0.0108877
 6.3461E+07 1.04298   0.0109005
 6.4196E+07 1.05645   0.0110902
 6.4939E+07 1.03181   0.0109169
 6.5691E+07 1.04035   0.011041
 6.6452E+07 1.06727   0.0112502
 6.7221E+07 1.05991   0.0113051
 6.8000E+07 1.04448   0.0112116
 6.8787E+07 1.05401   0.011311
 6.9584E+07 1.02711   0.0110809
 7.0389E+07 1.0485    0.0113704
 7.1205E+07 1.02592   0.0112016
 7.2029E+07 1.04401   0.0114492
 7.2863E+07 1.05652   0.0115764
 7.3707E+07 1.03602   0.011385
 7.4560E+07 1.0592    0.011682
 7.5424E+07 1.0218    0.0114461
 7.6297E+07 1.05662   0.0118314
 7.7180E+07 1.04264   0.0117844
 7.8074E+07 1.05542   0.0119266
 7.8978E+07 1.04715   0.0119337
 7.9893E+07 1.03491   0.0118423
 8.0818E+07 1.02496   0.01179
 8.1754E+07 1.04663   0.0120997
 8.2700E+07 1.02391   0.0119625
 8.3658E+07 1.05226   0.0122636
 8.4627E+07 1.04298   0.0122644
 8.5607E+07 1.035     0.0123045
 8.6598E+07 1.05724   0.012563
 8.7601E+07 1.06573   0.0127545
 8.8615E+07 1.0414    0.0125582
 8.9641E+07 1.05873   0.0128233
 9.0679E+07 1.03102   0.0126094
 9.1729E+07 1.03639   0.0127398
 9.2791E+07 1.04986   0.0129018
 9.3866E+07 1.05248   0.0130705
 9.4953E+07 1.04718   0.0130695
 9.6052E+07 1.05203   0.0132594
 9.7164E+07 1.04159   0.0132276
 9.8290E+07 1.04792   0.0133823
 9.9428E+07 1.06489   0.01365
 1.0058E+08 1.05518   0.0136349
 1.0174E+08 1.08381   0.0141247
 1.0292E+08 1.0357    0.0136812
 1.0411E+08 1.04194   0.0138624
 1.0532E+08 1.0604    0.014192
 1.0654E+08 1.05966   0.0142324
 1.0777E+08 1.03491   0.0141215
 1.0902E+08 1.02932   0.0141517
 1.1028E+08 1.05848   0.0145608
 1.1156E+08 1.03437   0.0144931
 1.1285E+08 1.05079   0.0147207
 1.1416E+08 1.07299   0.0151894
 1.1548E+08 1.04593   0.014989
 1.1682E+08 1.05855   0.0152412
 1.1817E+08 1.03215   0.0151162
 1.1954E+08 1.03979   0.0154204
 1.2092E+08 1.02411   0.0153229
 1.2232E+08 1.04881   0.0157209
 1.2374E+08 1.04423   0.0159293
 1.2517E+08 1.06623   0.0162578
 1.2662E+08 1.05276   0.0163143
 1.2809E+08 1.04726   0.0163911
 1.2957E+08 1.04916   0.0166563
 1.3107E+08 1.05276   0.0169423
 1.3259E+08 1.03146   0.0167222
 1.3412E+08 1.06872   0.0174782
 1.3568E+08 1.05523   0.0173574
 1.3725E+08 1.05774   0.0175956
 1.3884E+08 1.00462   0.0170517
 1.4045E+08 1.055     0.0178312
 1.4207E+08 1.06008   0.0183736
 1.4372E+08 1.05356   0.0184424
 1.4538E+08 1.04222   0.0185383
 1.4706E+08 1.08914   0.0195951
 1.4877E+08 1.05127   0.0190467
 1.5049E+08 1.04054   0.0191102
 1.5223E+08 1.02087   0.0191511
 1.5400E+08 1.09851   0.0204115
 1.5578E+08 1.07243   0.0204414
 1.5758E+08 1.05392   0.020463
 1.5941E+08 1.04497   0.0206345
 1.6125E+08 1.06022   0.0208863
 1.6312E+08 1.01913   0.0205047
 1.6501E+08 1.04222   0.0212593
 1.6692E+08 1.04869   0.0217879
 1.6885E+08 1.05371   0.0223772
 1.7081E+08 1.0799    0.0230053
 1.7279E+08 1.04948   0.0228061
 1.7479E+08 1.0716    0.023481
 1.7681E+08 1.03825   0.0231389
 1.7886E+08 1.0602    0.024174
 1.8093E+08 1.04249   0.0239431
 1.8302E+08 1.08086   0.0254763
 1.8514E+08 1.06032   0.0253046
 1.8729E+08 1.09339   0.0269063
 1.8946E+08 1.10401   0.0273884
 1.9165E+08 1.03695   0.0261912
 1.9387E+08 1.019     0.0264921
 1.9611E+08 1.04133   0.027667
 1.9838E+08 1.03323   0.0278159
ENDDATA            662
ENDSUBENT          670
ENDENTRY             2
