ENTRY            14149   20170329   20170703   20170622       1426
SUBENT        14149001   20170329   20170703   20170622       1426
BIB                 12         63
TITLE      New precision measurements of the 235U(n,g) cross
            section
AUTHOR     (M.Jandel, T.A.Bredeweg, E.M.Bond, M.B.Chadwick,
            A.Couture, J.M.O'Donnell, M.Fowler, R.C.Haight,
            T.Kawano, R.Reifarth, R.S.Rundberg, J.L.Ullmann,
            D.J.Vieira, J.M.Wouters, J.B.Wilhelmy, C.Y.Wu,
            J.A.Becker)
INSTITUTE  (1USALAS,1USALRL)
REFERENCE  (J,PRL,109,202506,2012) Final (n,g) and alpha
           (J,NIM/B,261,986,2007)  Prelim. (n,g) and (n,f) in figs
           (C,2007NICE,1,607,2008) Prelim. (n,g) and (n,f) in figs
FACILITY   (LINAC,1USALAS) Lujan Neutron Scattering Center of
            LANSCE
SAMPLE     (92-U-235,ENR=0.94)
           Self-supporting sample (26 mg/cm2 thick) for
            thick target experiment
           (92-U-235,ENR=0.999)
           Sample installed inside PPAC (130 ug/cm2 thick) for
            thin target measurements
           (82-PB-208,ENR=0.99)
           Enriched 208Pb sample (~120 mg/cm2) for neutron
            scattering background measurement
DETECTOR   (BAF2) 4pi highly segmented highly efficient gamma-ray
            calorimeter DANCE (inner radius of 17 cm) which
            consists of 160 BaF2 scintillation crystals (15 cm
            long) having the same solid-angle coverage.
           (PPAC) To detect fission fragments and tag the
            gamma-rays from fission.
METHOD     (TOF) gamma flash from the spallation reaction and
            gamma-ray by neutron interacting with sample were
            used to calculate the time-of-flight
MONITOR    (92-U-235(N,G)92-U-236,,INT)
            Overall normalization constant was obtained by
            cross section integral from 45 to 100 eV in
            ENDF/B-VII.1 (837.8 eV*b)
INC-SOURCE (SPALL) Spallation on a natural W target by 800-MeV
            protons beams (~ 1-2 uA, pulse width of ~125 nsec
            FWHM with a repetition rate of 20 Hz).
ANALYSIS   Capture cross section was obtained by combination
            of three independent experiments/measurements
             1. Measurement with a thick sample to obtain a good
                statistics of capture gamma-rays
             2. Measurement with a thin sample inside a 4pi
                PPAC counter to measure gamma-rays associated
                with fission
             3. Measurements of the neutron scattering background
                using a 208Pb sample
           Overall fission gamma-ray spectrum obtained in
            coincidence with PPAC was normalized to thick target
            data in high gamma multiplicity region M>6, where
            only gamma-rays associated with fission are emitted.
           Thick target events with gamma multiplicity between 3
            and 5 and the total gamma energy between 5.7 and
            6.7 MeV were selected as capture events, and the
            remaining portion fission gamma-rays was subtracted
            by using the PPAC data normalized to the thick target
            data.
HISTORY    (20080211C) Compiled by S.H.
           (20100315A) 2007NICE added. Major revisions in 002-003.
           (20120425A) S.H. 004-006 added for data presented at
            2007NICE without numerical data
           (20130408A) S.H. Major revision in 003. 004-006 deleted
           (20170329A) On. Major revisions in 002-003. 007 added.
ENDBIB              63
NOCOMMON             0          0
ENDSUBENT           66
SUBENT        14149002   20170329   20170703   20170622       1426
BIB                  4          6
REACTION   (92-U-235(N,F),,SIG)
ERR-ANALYS (ERR-S) Statistical uncertainty
STATUS     (CURVE) Fig.5 of Nucl.Instrum.Meth.B261(2007)986
           (PRELM)
HISTORY    (20100315A) S.H. EN: KEV -> EV
           (20170329A) On. Data format changed. DATA-ERR->ERR-S.
ENDBIB               6
NOCOMMON             0          0
DATA                 3        187
EN         DATA       ERR-S
EV         B          B
  6.028      2.928E+01  3.919E+00
  6.080      3.721E+01  5.490E+00
  6.131      4.803E+01  6.428E+00
  6.196      5.635E+01  7.541E+00
  6.273      6.505E+01  8.706E+00
  6.325      8.671E+01  7.920E+00
  6.389      1.212E+02  1.282E+01
  6.441      6.402E+01  8.568E+00
  6.506      2.128E+01  5.058E+00
  6.557      8.987E+00  2.661E+00
  6.622      6.851E+00  2.469E+00
  6.687      6.029E+00  2.234E+00
  6.738      7.909E+00  2.162E+00
  6.803      9.890E+00  2.817E+00
  6.854      1.237E+01  2.852E+00
  6.906      1.996E+01  4.251E+00
  6.983      3.841E+01  4.605E+00
  7.034      6.934E+01  7.332E+00
  7.150      6.934E+01  8.314E+00
  7.163      3.327E+01  7.500E+00
  7.228      1.361E+01  4.182E+00
  7.280      6.742E+00  2.697E+00
  7.332      3.918E+00  1.782E+00
  7.383      4.045E+00  1.909E+00
  7.448      3.981E+00  1.740E+00
  7.499      4.312E+00  2.107E+00
  7.538      3.676E+00  1.855E+00
  7.577      3.340E+00  1.737E+00
  7.641      2.389E+00  1.542E+00
  7.693      1.972E+00  1.395E+00
  7.758      2.758E+00  1.665E+00
  7.835      2.546E+00  1.505E+00
  7.874      3.560E+00  1.852E+00
  7.951      3.856E+00  1.686E+00
  8.015      4.244E+00  1.930E+00
  8.067      6.126E+00  2.451E+00
  8.118      8.987E+00  2.661E+00
  8.183      1.451E+01  3.623E+00
  8.247      1.675E+01  4.183E+00
  8.299      2.061E+01  4.754E+00
  8.363      3.327E+01  6.236E+00
  8.428      4.727E+01  4.318E+00
  8.479      7.046E+01  7.449E+00
  8.544      1.156E+02  1.222E+01
  8.595      1.807E+02  1.911E+01
  8.672      3.368E+02  3.076E+01
  8.724      5.351E+02  6.415E+01
  8.801      6.177E+02  7.406E+01
  8.853      4.279E+02  4.524E+01
  8.905      2.409E+02  2.200E+01
  8.956      1.565E+02  2.309E+01
  9.034      1.050E+02  1.259E+01
  9.073      8.952E+01  1.073E+01
  9.137      7.275E+01  6.644E+00
  9.215      8.671E+01  1.279E+01
  9.266      1.050E+02  1.405E+01
  9.305      8.006E+01  1.071E+01
  9.382      6.201E+01  8.299E+00
  9.434      4.579E+01  8.581E+00
  9.512      3.721E+01  6.486E+00
  9.589      3.072E+01  4.533E+00
  9.679      2.619E+01  4.217E+00
  9.770      3.072E+01  6.153E+00
  9.795      2.232E+01  4.754E+00
  9.925      1.934E+01  3.873E+00
  9.976      1.785E+01  3.112E+00
  9.989      1.297E+01  3.546E+00
 10.050      2.094E+01  3.925E+00
 10.110      2.791E+01  4.496E+00
 10.170      3.604E+01  6.283E+00
 10.230      3.023E+01  5.271E+00
 10.270      2.418E+01  5.747E+00
 10.360      1.996E+01  4.745E+00
 10.410      1.757E+01  3.741E+00
 10.450      1.088E+01  3.100E+00
 10.530      1.318E+01  3.133E+00
 10.600      1.071E+01  2.281E+00
 10.670      1.257E+01  3.434E+00
 10.710      1.071E+01  3.172E+00
 10.760      1.383E+01  3.463E+00
 10.810      1.142E+01  3.252E+00
 10.910      1.297E+01  2.992E+00
 10.980      1.198E+01  1.632E+00
 11.000      1.054E+01  3.003E+00
 11.070      1.361E+01  3.399E+00
 11.120      1.124E+01  3.201E+00
 11.190      1.428E+01  3.735E+00
 11.250      1.257E+01  2.987E+00
 11.270      1.142E+01  2.431E+00
 11.320      1.474E+01  2.952E+00
 11.400      1.648E+01  3.089E+00
 11.430      1.873E+01  3.265E+00
 11.470      2.380E+01  5.067E+00
 11.560      3.903E+01  6.286E+00
 11.610      5.203E+01  9.070E+00
 11.670      6.402E+01  1.116E+01
 11.730      4.803E+01  8.374E+00
 11.800      2.619E+01  5.576E+00
 11.850      1.934E+01  4.596E+00
 11.920      2.268E+01  3.036E+00
 11.980      2.577E+01  4.151E+00
 12.030      3.327E+01  5.358E+00
 12.090      4.365E+01  6.440E+00
 12.140      5.818E+01  6.975E+00
 12.210      8.810E+01  1.179E+01
 12.260      1.400E+02  2.254E+01
 12.320      2.447E+02  3.611E+01
 12.390      3.368E+02  5.871E+01
 12.450      2.693E+02  5.048E+01
 12.500      1.232E+02  2.309E+01
 12.570      4.959E+01  8.646E+00
 12.630      2.457E+01  4.716E+00
 12.690      1.873E+01  3.510E+00
 12.750      2.661E+01  4.285E+00
 12.850      2.536E+01  4.085E+00
 12.870      3.547E+01  6.183E+00
 12.970      2.704E+01  5.067E+00
 13.000      2.061E+01  4.389E+00
 13.070      1.702E+01  3.624E+00
 13.190      1.934E+01  3.371E+00
 13.240      2.791E+01  4.119E+00
 13.370      2.882E+01  5.401E+00
 13.420      2.305E+01  4.616E+00
 13.490      3.023E+01  3.625E+00
 13.590      3.721E+01  4.461E+00
 13.650      4.506E+01  6.031E+00
 13.700      5.371E+01  6.440E+00
 13.780      6.301E+01  5.755E+00
 13.850      7.046E+01  6.436E+00
 13.950      8.006E+01  8.464E+00
 14.010      9.243E+01  9.772E+00
 14.070      7.275E+01  8.721E+00
 14.130      6.402E+01  6.769E+00
 14.190      5.725E+01  6.864E+00
 14.250      4.803E+01  7.087E+00
 14.310      3.781E+01  5.578E+00
 14.380      4.228E+01  7.923E+00
 14.430      3.327E+01  6.236E+00
 14.490      3.966E+01  7.433E+00
 14.560      3.381E+01  6.771E+00
 14.620      2.232E+01  5.032E+00
 14.670      1.198E+01  3.134E+00
 14.790      1.038E+01  3.414E+00
 14.840      7.187E+00  2.735E+00
 14.920      1.124E+01  3.328E+00
 14.980      9.733E+00  2.883E+00
 15.020      1.142E+01  3.252E+00
 15.100      1.597E+01  3.987E+00
 15.150      1.217E+01  3.327E+00
 15.200      2.162E+01  4.604E+00
 15.270      3.121E+01  5.442E+00
 15.330      4.296E+01  5.150E+00
 15.390      6.006E+01  1.203E+01
 15.430      4.881E+01  1.100E+01
 15.520      3.841E+01  7.693E+00
 15.590      1.814E+01  4.311E+00
 15.640      8.431E+00  2.304E+00
 15.690      7.661E+00  2.839E+00
 15.760      9.890E+00  2.929E+00
 15.810      1.106E+01  2.628E+00
 15.870      1.277E+01  3.189E+00
 15.920      2.061E+01  4.646E+00
 15.990      3.662E+01  6.862E+00
 16.050      4.881E+01  6.532E+00
 16.120      6.505E+01  9.598E+00
 16.180      4.506E+01  7.856E+00
 16.230      2.704E+01  6.753E+00
 16.300      1.405E+01  4.161E+00
 16.360      9.733E+00  3.098E+00
 16.410      1.339E+01  3.815E+00
 16.470      1.814E+01  3.400E+00
 16.530      3.327E+01  3.989E+00
 16.580      4.727E+01  6.975E+00
 16.660      6.825E+01  9.133E+00
 16.720      6.201E+01  8.299E+00
 16.770      5.120E+01  6.852E+00
 16.830      3.721E+01  8.387E+00
 16.890      2.094E+01  4.721E+00
 16.940      1.405E+01  4.161E+00
 17.010      9.890E+00  2.929E+00
 17.070      8.431E+00  2.864E+00
 17.140      9.890E+00  3.148E+00
 17.210      8.297E+00  2.730E+00
 17.320      8.566E+00  2.726E+00
 17.390      8.166E+00  2.774E+00
 17.430      1.071E+01  3.292E+00
 17.500      4.452E+00  2.138E+00
ENDDATA            189
ENDSUBENT          200
SUBENT        14149003   20170329   20170703   20170622       1426
BIB                  4         11
REACTION   (92-U-235(N,G)92-U-236,,SIG)
ERR-ANALYS (DATA-ERR) Total uncertainty which could not be
            separated to statistical and systematic uncertainties
            because of data correlations.
           Uncertainties will be updated after publication of a
            separate paper devoted to uncertainties.
STATUS     (TABLE) Data sent by author (M.J.) corresponding to
            Fig.3+4 of Phys.Rev.Lett.109(2012)202506
HISTORY    (20100315A) S.H. EN: KEV -> EV
           (20130408A) S.H. Final data replaced digitized data.
           (20170329A) On. Data above 500 eV moved to 007.
ENDBIB              11
COMMON               3          3
EN-NRM-MIN EN-NRM-MAX MONIT
EV         EV         B*EV
 45.0       100.0      837.8
ENDCOMMON            3
DATA                 4       1047
EN         EN-RSL     DATA       DATA-ERR
EV         EV         B          B
 4.02718    0.00927      4.34404  1.19815
 4.04577    0.00932      3.70273  1.08498
 4.06444    0.00936      3.06635  0.90688
 4.0832     0.0094       3.91284  1.04457
 4.10205    0.00945      4.06534  1.26251
 4.12099    0.00949      2.20138  0.8085
 4.14001    0.00953      5.06291  1.49761
 4.15912    0.00958      4.31554  1.18224
 4.17831    0.00962      1.83991  0.73411
 4.1976     0.00967      5.81204  1.51136
 4.21698    0.00971      2.41151  0.88567
 4.23644    0.00975      2.42869  1.00252
 4.256      0.0098       2.56948  0.85994
 4.27564    0.00985      4.56329  1.56516
 4.29538    0.00989      3.52278  1.18848
 4.3152     0.00994      3.78532  1.07089
 4.33512    0.00998      3.64694  1.06678
 4.35513    0.01003      2.8864   0.89175
 4.37523    0.01007      3.63557  1.10213
 4.39543    0.01012      3.26699  0.99847
 4.41572    0.01017      4.48894  1.29954
 4.4361     0.01021      5.04819  1.29572
 4.45657    0.01026      3.85347  1.18054
 4.47714    0.01031      4.04251  1.25311
 4.49781    0.01036      6.46769  1.61984
 4.51857    0.0104       5.22668  1.39398
 4.53943    0.01045      4.8595   1.22783
 4.56038    0.0105       4.94748  1.23415
 4.58143    0.01055      9.01765  2.07798
 4.60258    0.0106       8.13521  1.76103
 4.62382    0.01065      9.50537  2.01556
 4.64517    0.0107       9.50914  1.71405
 4.66661    0.01075     14.508    2.56577
 4.68815    0.01079     15.5825   2.42903
 4.70979    0.01084     19.4608   3.07552
 4.73153    0.01089     28.3492   4.11563
 4.75336    0.01095     31.4724   3.95935
 4.77531    0.011       59.5253   6.80178
 4.79735    0.01105     86.3792   8.37083
 4.81949    0.0111     104.054    8.08618
 4.84174    0.01115    132.628    9.62723
 4.86408    0.0112     128.565    8.99217
 4.88654    0.01125    110.189    8.16216
 4.90909    0.0113      77.5298   7.04078
 4.93175    0.01136     43.8535   4.83342
 4.95452    0.01141     24.6566   3.38218
 4.97738    0.01146     16.6386   2.5636
 5.00036    0.01151     11.9989   2.09261
 5.02344    0.01157      9.72062  1.89113
 5.04663    0.01162      7.55447  1.44678
 5.06992    0.01167      7.05342  1.44115
 5.09332    0.01173      7.70469  1.54997
 5.11683    0.01178      8.1738   1.6578
 5.14045    0.01184      9.48584  1.72589
 5.16418    0.01189     12.7722   2.36071
 5.18801    0.01195      7.30528  1.47361
 5.21196    0.012        9.95546  1.83027
 5.23602    0.01206      7.86053  1.49636
 5.26019    0.01211      5.12462  1.36737
 5.28447    0.01217      3.9498   1.13739
 5.30886    0.01222      3.03418  1.05672
 5.33336    0.01228      4.32656  1.16412
 5.35798    0.01234      4.96529  1.25462
 5.38271    0.01239      3.28028  1.1593
 5.40756    0.01245      3.46858  1.16393
 5.43252    0.01251      4.05408  1.24897
 5.45759    0.01257      5.14898  1.34325
 5.48278    0.01262      3.90989  1.19161
 5.50809    0.01268      2.84649  1.17006
 5.53352    0.01274      2.89216  1.12378
 5.55906    0.0128       7.23887  1.69516
 5.58472    0.01286      4.87351  1.37265
 5.61049    0.01292      4.75068  1.30948
 5.63639    0.01298      7.12892  1.70101
 5.66241    0.01304      5.00992  1.37263
 5.68854    0.0131       3.71157  1.12386
 5.7148     0.01316      4.69652  1.28213
 5.74118    0.01322      4.54707  1.24627
 5.76768    0.01328      4.36485  1.22551
 5.7943     0.01334      5.13369  1.33459
 5.82105    0.0134       6.10205  1.53459
 5.84792    0.01347      7.07243  1.47938
 5.87491    0.01353      3.83528  1.12418
 5.90203    0.01359      8.98393  1.69752
 5.92927    0.01365      8.97113  1.6469
 5.95664    0.01372      7.38296  1.44234
 5.98413    0.01378     10.5016   1.84623
 6.01175    0.01384     10.0757   1.77962
 6.0395     0.01391     14.1989   2.06012
 6.06738    0.01397     14.7522   2.10831
 6.09539    0.01404     18.8769   2.35506
 6.12352    0.0141      25.4557   2.82786
 6.15179    0.01417     30.7127   3.0073
 6.18018    0.01423     35.4248   3.17814
 6.20871    0.0143      45.1047   3.61777
 6.23736    0.01436     56.5881   3.90413
 6.26616    0.01443     84.4761   5.26549
 6.29508    0.01449    116.907    6.44615
 6.32414    0.01456    204.093    9.76467
 6.35333    0.01463    285.032    11.6858
 6.38265    0.0147     365.456    13.35
 6.41211    0.01476    335.757    12.0461
 6.44171    0.01483    247.798    9.96733
 6.47144    0.0149     146.764    7.46619
 6.50131    0.01497     60.9976   4.32204
 6.53132    0.01504     30.5188   2.91299
 6.56147    0.01511     21.0693   2.4654
 6.59176    0.01518     18.0272   2.43699
 6.62218    0.01525     10.1959   1.52389
 6.65275    0.01532      9.48793  1.66214
 6.68346    0.01539      7.84222  1.39428
 6.71431    0.01546      5.91278  1.10211
 6.7453     0.01553      9.36313  1.70966
 6.77643    0.0156       6.58482  1.27361
 6.80771    0.01568      7.33836  1.25777
 6.83913    0.01575      7.63469  1.42456
 6.8707     0.01582     11.2262   1.65953
 6.90242    0.01589     17.2993   2.2199
 6.93428    0.01597     16.8863   2.06988
 6.96628    0.01604     22.8718   2.54261
 6.99844    0.01611     36.7853   3.13776
 7.03074    0.01619     57.3831   4.17597
 7.06319    0.01626     96.3492   5.63561
 7.0958     0.01634    109.228    6.09001
 7.12855    0.01641     88.3609   5.20502
 7.16145    0.01649     52.8693   4.02902
 7.19451    0.01657     35.6639   3.34225
 7.22772    0.01664     18.7554   2.52438
 7.26108    0.01672     11.8408   2.10126
 7.29459    0.0168      13.2768   2.41385
 7.32826    0.01687     11.9648   2.33932
 7.36209    0.01695      6.14593  1.33309
 7.39607    0.01703      6.2822   1.44127
 7.43021    0.01711      4.56386  1.23351
 7.46451    0.01719      4.16759  1.09521
 7.49896    0.01727      4.1541   1.22064
 7.53358    0.01735      5.51651  1.50268
 7.56835    0.01743      5.43716  1.40628
 7.60328    0.01751      3.52292  1.04266
 7.63838    0.01759      4.74633  1.24023
 7.67364    0.01767      2.71341  0.95085
 7.70906    0.01775      2.4731   0.95243
 7.74464    0.01783      3.85795  1.06623
 7.78039    0.01792      6.12806  1.50219
 7.8163     0.018        5.54621  1.63632
 7.85238    0.01808      5.49189  1.39164
 7.88862    0.01816      3.09901  0.98953
 7.92503    0.01825      3.80463  1.0005
 7.96161    0.01833      3.97314  1.02019
 7.99836    0.01842      5.60941  1.25715
 8.03528    0.0185       6.51421  1.51071
 8.07237    0.01859      5.39968  1.14673
 8.10963    0.01867      6.34467  1.23075
 8.14706    0.01876      5.9123   1.30992
 8.18467    0.01885      5.56074  1.15356
 8.22245    0.01893      5.34877  1.11916
 8.2604     0.01902      7.98737  1.39183
 8.29853    0.01911     10.1341   1.52588
 8.33683    0.0192      10.0941   1.44379
 8.37532    0.01928     10.7057   1.54243
 8.41397    0.01937     16.7884   2.10241
 8.45281    0.01946     17.7469   2.11514
 8.49183    0.01955     22.2753   2.48794
 8.53102    0.01964     33.8788   3.07284
 8.5704     0.01973     52.057    4.15379
 8.60996    0.01983     65.7098   3.79067
 8.6497     0.01992    102.023    3.68754
 8.68963    0.02001    146.134    4.69656
 8.72974    0.0201     204.094    5.90633
 8.77003    0.02019    234.397    6.60492
 8.81051    0.02029    228.255    6.27712
 8.85118    0.02038    184.512    5.41302
 8.89203    0.02047    113.823    4.0931
 8.93308    0.02057     79.7353   3.2839
 8.97431    0.02066     51.7789   2.58603
 9.01574    0.02076     37.6456   2.17
 9.05735    0.02086     32.586    1.95967
 9.09916    0.02095     29.6747   1.90397
 9.14116    0.02105     29.943    1.89498
 9.18335    0.02115     34.8778   2.02774
 9.22574    0.02124     43.0488   2.232
 9.26832    0.02134     49.2566   2.35835
 9.3111     0.02144     49.0634   2.3155
 9.35408    0.02154     37.6329   2.0692
 9.39726    0.02164     24.2095   1.70254
 9.44063    0.02174     15.9886   1.38356
 9.48421    0.02184     10.1244   1.16049
 9.52799    0.02194      8.01803  1.03551
 9.57197    0.02204      8.63975  1.07341
 9.61615    0.02214      8.14543  1.03646
 9.66053    0.02224      7.85573  1.04886
 9.70513    0.02235     10.1624   1.13833
 9.74992    0.02245      8.75206  1.04565
 9.79493    0.02255      7.37887  0.96174
 9.84014    0.02266      9.17538  1.00404
 9.88556    0.02276      7.44375  0.95158
 9.93119    0.02287      7.6701   0.9691
 9.97703    0.02297      7.78316  0.93265
 10.0231    0.02308      9.44227  0.97335
 10.0693    0.02319     12.219    1.13922
 10.1158    0.02329     15.6113   1.26265
 10.1625    0.0234      18.8377   1.4163
 10.2094    0.02351     21.7928   1.54411
 10.2565    0.02362     12.0106   1.17187
 10.3039    0.02373      9.24687  1.02948
 10.3514    0.02384      4.66298  0.80931
 10.3992    0.02395      4.75611  0.74901
 10.4472    0.02406      4.98263  0.83926
 10.4955    0.02417      4.28418  0.72139
 10.5439    0.02428      5.24068  0.86991
 10.5926    0.02439      3.48583  0.66715
 10.6415    0.0245       3.74992  0.69857
 10.6906    0.02462      5.15268  0.80037
 10.7399    0.02473      4.28757  0.73505
 10.7895    0.02484      3.77442  0.71409
 10.8393    0.02496      4.72013  0.72065
 10.8893    0.02507      6.06838  0.84517
 10.9396    0.02519      5.46046  0.80453
 10.9901    0.02531      5.5953   0.79433
 11.0408    0.02542      8.23676  0.97666
 11.0918    0.02554      9.49306  1.01598
 11.143     0.02566     11.3418   1.09187
 11.1944    0.02578     13.6856   1.23103
 11.2461    0.0259      15.8153   1.25862
 11.298     0.02601     18.6303   1.38979
 11.3501    0.02613     22.5588   1.52249
 11.4025    0.02626     30.2284   1.76407
 11.4552    0.02638     44.5693   2.27459
 11.508     0.0265      68.8923   3.09308
 11.5612    0.02662    113.579    4.15948
 11.6145    0.02674    221.207    6.58417
 11.6681    0.02687    330.952    8.60715
 11.722     0.02699    304.92     8.22953
 11.7761    0.02712    168.616    5.73547
 11.8304    0.02724     63.2949   2.93311
 11.8851    0.02737     29.4725   1.67479
 11.9399    0.02749     24.5945   1.45214
 11.995     0.02762     27.2462   1.54935
 12.0504    0.02775     33.0207   1.68695
 12.106     0.02788     44.7096   2.01989
 12.1619    0.028       63.106    2.57307
 12.218     0.02813     97.0437   3.27728
 12.2744    0.02826    152.705    4.31123
 12.3311    0.02839    264.993    6.06079
 12.388     0.02852    422.672    8.28962
 12.4452    0.02866    440.959    8.5236
 12.5026    0.02879    280.29     6.35178
 12.5603    0.02892    123.898    3.94378
 12.6183    0.02905     58.6178   2.76914
 12.6766    0.02919     29.7134   1.82595
 12.7351    0.02932     20.4576   1.54077
 12.7938    0.02946     18.5198   1.35915
 12.8529    0.02959     14.3493   1.23391
 12.9122    0.02973     14.9282   1.2508
 12.9718    0.02987     11.4516   1.09237
 13.0317    0.03001      8.99143  0.98275
 13.0919    0.03015      8.26776  0.8928
 13.1523    0.03028      7.01196  0.82777
 13.213     0.03042      8.05733  0.9819
 13.274     0.03056      7.37183  0.93498
 13.3352    0.03071      8.18952  0.97462
 13.3968    0.03085      8.62298  0.95148
 13.4586    0.03099      7.06591  0.89989
 13.5208    0.03113      7.17364  0.96183
 13.5832    0.03128      7.63185  1.07088
 13.6459    0.03142      7.96231  1.11857
 13.7089    0.03157     10.2319   1.24523
 13.7721    0.03171     11.9058   1.37543
 13.8357    0.03186     12.6299   1.47334
 13.8996    0.032        9.87364  1.4323
 13.9637    0.03215     12.5102   1.45998
 14.0282    0.0323      12.1654   1.51299
 14.0929    0.03245     11.9719   1.48362
 14.158     0.0326      13.1111   1.46048
 14.2233    0.03275     10.2273   1.33388
 14.289     0.0329      13.5765   1.38471
 14.3549    0.03305     12.3733   1.28034
 14.4212    0.03321     18.2382   1.39085
 14.4878    0.03336     28.259    1.67571
 14.5546    0.03351     39.6954   2.07058
 14.6218    0.03367     36.2123   1.90359
 14.6893    0.03382     21.6974   1.58331
 14.7571    0.03398      8.0263   0.8639
 14.8252    0.03414      5.49173  0.73027
 14.8937    0.03429      5.36748  0.74473
 14.9624    0.03445      4.4073   0.69594
 15.0315    0.03461      6.66213  0.7934
 15.1008    0.03477      6.83526  0.86401
 15.1705    0.03493      9.0821   0.91931
 15.2406    0.03509     13.5356   1.12435
 15.3109    0.03525     20.4837   1.38249
 15.3816    0.03542     36.9473   1.94273
 15.4526    0.03558     45.4089   2.17259
 15.5239    0.03575     33.0338   1.78203
 15.5956    0.03591     21.6769   1.5223
 15.6676    0.03608     12.8961   1.1945
 15.7399    0.03624     11.4266   1.10333
 15.8125    0.03641     13.1484   1.11848
 15.8855    0.03658     20.2321   1.47356
 15.9588    0.03675     30.6289   1.70532
 16.0325    0.03692     60.3662   2.51305
 16.1065    0.03709     96.6873   3.32493
 16.1808    0.03726     82.7804   3.08756
 16.2555    0.03743     35.7502   1.99026
 16.3306    0.0376      14.9784   1.27199
 16.4059    0.03778     10.2252   1.00462
 16.4817    0.03795     13.3316   1.16636
 16.5577    0.03813     15.0294   1.30301
 16.6342    0.0383      22.4857   1.62597
 16.711     0.03848     24.3558   1.7489
 16.7881    0.03866     18.719    1.50995
 16.8656    0.03883      9.27189  1.09975
 16.9434    0.03901      6.34016  0.89071
 17.0216    0.03919      3.78224  0.69816
 17.1002    0.03937      4.01988  0.72853
 17.1791    0.03956      3.38295  0.64422
 17.2584    0.03974      2.85586  0.52219
 17.3381    0.03992      4.46905  0.69485
 17.4181    0.04011      2.76234  0.48706
 17.4985    0.04029      3.81948  0.61049
 17.5793    0.04048      3.66445  0.5577
 17.6604    0.04066      6.37533  0.76988
 17.7419    0.04085      6.67336  0.80191
 17.8238    0.04104      9.15113  0.97953
 17.9061    0.04123     14.5404   1.25675
 17.9888    0.04142     21.6311   1.60033
 18.0718    0.04161     25.4448   1.73215
 18.1552    0.0418      24.2882   1.70797
 18.239     0.042       16.7136   1.39904
 18.3232    0.04219     10.937    1.11128
 18.4078    0.04239     10.6263   1.07109
 18.4927    0.04258     11.8309   1.13079
 18.5781    0.04278     11.7801   1.00105
 18.6638    0.04298     15.9216   1.18904
 18.75      0.04317     21.7464   1.40474
 18.8365    0.04337     31.4156   1.70324
 18.9235    0.04357     45.6448   2.14972
 19.0108    0.04377     67.6878   2.66803
 19.0986    0.04398    103.041    3.51584
 19.1867    0.04418    166.432    4.69459
 19.2753    0.04438    280.879    6.62489
 19.3643    0.04459    328.448    7.2913
 19.4537    0.04479    209.774    5.54867
 19.5434    0.045       71.5672   2.97347
 19.6337    0.04521     29.2653   1.78609
 19.7243    0.04542     18.6503   1.42472
 19.8153    0.04563     13.6305   1.24214
 19.9068    0.04584     12.2032   1.13795
 19.9987    0.04605      9.82363  1.0469
 20.091     0.04626     12.1517   1.11287
 20.1837    0.04647     12.8104   1.11003
 20.2769    0.04669     13.2873   1.1013
 20.3705    0.0469      13.4108   1.04473
 20.4645    0.04712     17.5997   1.27952
 20.559     0.04734     26.5768   1.5521
 20.6539    0.04756     37.5074   1.89291
 20.7492    0.04778     41.9648   2.0139
 20.845     0.048       52.9218   2.3361
 20.9412    0.04822     83.5409   2.94131
 21.0378    0.04844    167.888    4.56934
 21.1349    0.04866    208.028    5.2071
 21.2325    0.04889    120.425    3.82751
 21.3305    0.04912     39.9157   2.23644
 21.429     0.04934     11.2767   1.06605
 21.5279    0.04957      7.15542  0.85466
 21.6272    0.0498       5.2483   0.75273
 21.7271    0.05003      4.74952  0.74087
 21.8274    0.05026      3.56374  0.56928
 21.9281    0.05049      6.05922  0.90968
 22.0293    0.05072      4.3318   0.69008
 22.131     0.05096      3.51059  0.58952
 22.2332    0.05119      5.31198  0.76228
 22.3358    0.05143      5.13186  0.69639
 22.4389    0.05167      8.44794  0.94325
 22.5425    0.05191      8.77263  0.87748
 22.6465    0.05215     13.4816   1.09128
 22.751     0.05239     17.2904   1.20619
 22.856     0.05263     34.1328   1.79054
 22.9615    0.05287     52.9586   2.34871
 23.0675    0.05311     57.3795   2.4842
 23.174     0.05336     42.154    2.05719
 23.281     0.05361     52.1553   2.20889
 23.3884    0.05385    111.219    3.60193
 23.4964    0.0541     144.711    4.18009
 23.6048    0.05435     84.6249   3.06437
 23.7138    0.0546      42.8432   2.27232
 23.8233    0.05486     26.9662   1.89763
 23.9332    0.05511     19.7771   1.56742
 24.0437    0.05536     17.6748   1.41676
 24.1547    0.05562     29.2125   1.74496
 24.2662    0.05587     42.1893   2.10273
 24.3782    0.05613     37.4845   2.04645
 24.4907    0.05639     20.4048   1.55913
 24.6037    0.05665      7.21585  1.1042
 24.7173    0.05691      4.60351  0.99737
 24.8314    0.05718      3.29018  0.93602
 24.946     0.05744      3.71251  0.9978
 25.0612    0.05771      3.4595   0.99991
 25.1768    0.05797      4.7131   1.0761
 25.293     0.05824      5.81597  1.18411
 25.4098    0.05851      5.75485  1.24688
 25.5271    0.05878      6.70464  1.2762
 25.6449    0.05905      7.49898  1.34323
 25.7633    0.05932      7.09343  1.30033
 25.8822    0.0596       7.86849  1.20544
 26.0017    0.05987      7.32826  1.01639
 26.1217    0.06015      8.07924  0.94637
 26.2423    0.06042      8.34626  0.98291
 26.3634    0.0607      11.9912   1.17015
 26.4851    0.06098     14.9267   1.4237
 26.6073    0.06127     13.3933   1.41894
 26.7301    0.06155      8.14082  1.13258
 26.8535    0.06183      7.37872  0.99587
 26.9775    0.06212      5.91311  0.86407
 27.102     0.0624       7.76255  0.88827
 27.2271    0.06269      8.24689  0.98179
 27.3528    0.06298      7.84841  0.91435
 27.479     0.06327      8.09014  0.95642
 27.6059    0.06356     10.6942   1.0472
 27.7333    0.06386     23.8897   1.59805
 27.8613    0.06415     33.8285   1.94541
 27.9899    0.06445     23.6958   1.66777
 28.1191    0.06475     12.2386   1.22253
 28.2489    0.06505     10.5906   1.07528
 28.3793    0.06535      9.43271  1.03485
 28.5103    0.06565      7.72236  0.91686
 28.6419    0.06595      4.66709  0.70428
 28.7741    0.06625      3.92366  0.64638
 28.9069    0.06656      3.4322   0.62165
 29.0403    0.06687      2.71116  0.54198
 29.1743    0.06718      3.12053  0.52813
 29.309     0.06749      2.53898  0.53439
 29.4443    0.0678       4.34467  0.66992
 29.5802    0.06811      9.52362  0.9344
 29.7167    0.06843     16.6937   1.28819
 29.8539    0.06874     11.0864   1.0673
 29.9917    0.06906      5.38891  0.69155
 30.1301    0.06938      4.42638  0.62733
 30.2692    0.0697       6.26089  0.74484
 30.4089    0.07002      9.34457  0.93546
 30.5493    0.07034     15.5335   1.19711
 30.6903    0.07067     23.6634   1.48628
 30.832     0.07099     41.8918   2.10777
 30.9743    0.07132     55.8281   2.63289
 31.1172    0.07165     24.0051   1.6262
 31.2609    0.07198      8.63803  0.85164
 31.4052    0.07231      6.79767  0.74995
 31.5501    0.07265     10.9845   1.03046
 31.6958    0.07298     16.4296   1.30734
 31.8421    0.07332     28.6893   1.70007
 31.989     0.07366     55.4222   2.42527
 32.1367    0.074       99.5064   3.43575
 32.285     0.07434     71.8585   2.98095
 32.434     0.07468     24.674    1.67039
 32.5838    0.07503      9.49636  0.90228
 32.7342    0.07537      8.59326  0.81178
 32.8853    0.07572     12.3453   1.05801
 33.037     0.07607     17.7074   1.31623
 33.1895    0.07642     23.9616   1.47839
 33.3427    0.07677     48.1369   2.15391
 33.4966    0.07713    113.488    3.6494
 33.6512    0.07748    147.992    4.40736
 33.8066    0.07784     61.3123   2.63918
 33.9626    0.0782      32.8815   1.80532
 34.1194    0.07856     40.3671   1.97534
 34.2769    0.07893     76.5402   3.29258
 34.4351    0.07929    132.68     4.97146
 34.594     0.07966     91.409    3.53045
 34.7537    0.08002     58.1379   2.32834
 34.9141    0.08039     86.6199   2.95771
 35.0753    0.08076    113.7      3.35388
 35.2372    0.08114    142.232    3.94706
 35.3998    0.08151    109.833    3.6172
 35.5632    0.08189     35.7714   2.04524
 35.7274    0.08227     12.38     1.20419
 35.8923    0.08264      5.51092  0.88113
 36.058     0.08303      4.64743  0.75391
 36.2244    0.08341      2.43942  0.5634
 36.3916    0.08379      2.16128  0.49273
 36.5596    0.08418      2.35572  0.50588
 36.7283    0.08457      2.1458   0.46807
 36.8979    0.08496      2.00737  0.45766
 37.0682    0.08535      1.88432  0.44114
 37.2393    0.08575      1.85409  0.44153
 37.4112    0.08614      3.10818  0.51771
 37.5838    0.08654      2.18133  0.49436
 37.7573    0.08694      2.74654  0.51398
 37.9316    0.08734      4.00118  0.59579
 38.1067    0.08774      4.83054  0.62842
 38.2826    0.08815      6.55232  0.74827
 38.4593    0.08856      7.37045  0.81918
 38.6368    0.08896      8.38479  0.81943
 38.8151    0.08938     11.5429   0.93554
 38.9943    0.08979     16.1102   1.09852
 39.1743    0.0902      28.0741   1.41217
 39.3551    0.09062     59.8532   2.14476
 39.5368    0.09104     85.3199   2.74386
 39.7193    0.09146     40.848    1.94297
 39.9026    0.09188     13.5252   1.05736
 40.0868    0.0923       8.65746  0.87791
 40.2718    0.09273      9.15     0.8963
 40.4577    0.09316      7.11385  0.79726
 40.6444    0.09359      8.36742  0.89185
 40.832     0.09402      9.02176  0.93612
 41.0205    0.09445      7.9237   0.82697
 41.2099    0.09489     12.817    1.00566
 41.4001    0.09533     19.9923   1.23387
 41.5912    0.09577     30.2218   1.51565
 41.7831    0.09621     53.1691   2.00681
 41.976     0.09665     88.654    2.87021
 42.1698    0.0971      50.7712   2.08973
 42.3644    0.09755     19.6069   1.21276
 42.56      0.098       19.8028   1.27022
 42.7564    0.09845     23.93     1.33219
 42.9538    0.0989      18.4488   1.12596
 43.152     0.09936     13.7793   0.95307
 43.3512    0.09982     26.3814   1.32855
 43.5513    0.10028     40.2219   1.77933
 43.7523    0.10074     14.4265   1.06995
 43.9543    0.10121      9.03229  0.90979
 44.1572    0.10168     10.8161   1.02404
 44.361     0.10215      7.6485   0.91708
 44.5657    0.10262     14.1911   1.13284
 44.7714    0.10309     16.302    1.25553
 44.9781    0.10357      8.67133  0.9819
 45.1857    0.10404      5.35057  0.83367
 45.3943    0.10452      5.36727  0.77569
 45.6038    0.10501      4.11933  0.66682
 45.8143    0.10549      6.49674  0.73048
 46.0258    0.10598      7.14914  0.79114
 46.2382    0.10647      7.0221   0.758
 46.4517    0.10696      7.14913  0.71282
 46.6661    0.10745     12.6527   0.948
 46.8815    0.10795     22.0536   1.31989
 47.0979    0.10845     26.8161   1.56732
 47.3153    0.10895     21.2251   1.42026
 47.5336    0.10945     11.7791   1.00869
 47.7531    0.10996     14.8999   1.02242
 47.9735    0.11046     32.466    1.55668
 48.1949    0.11097     34.7099   1.70058
 48.4174    0.11149     19.4457   1.32696
 48.6408    0.112       24.652    1.42728
 48.8654    0.11252     29.2195   1.4929
 49.0909    0.11304     24.8234   1.44797
 49.3175    0.11356     29.557    1.49101
 49.5452    0.11408     49.7912   2.01422
 49.7738    0.11461     29.2699   1.5173
 50.0036    0.11514     15.7513   1.04608
 50.2344    0.11567     24.0086   1.28794
 50.4663    0.1162      34.0551   1.60737
 50.6992    0.11674     34.1767   1.70106
 50.9332    0.11728     21.2644   1.37548
 51.1683    0.11782     29.5939   1.63656
 51.4045    0.11836     58.631    2.38768
 51.6418    0.11891     44.8822   2.14738
 51.8801    0.11946     18.2616   1.32642
 52.1196    0.12001     10.7364   1.21214
 52.3602    0.12056     11.5186   1.32724
 52.6019    0.12112      9.01676  1.20473
 52.8447    0.12168      6.3199   0.87156
 53.0886    0.12224      5.35538  0.70034
 53.3336    0.12281      8.07437  0.76525
 53.5798    0.12337     12.1816   0.96633
 53.8271    0.12394      9.55649  0.89011
 54.0756    0.12451      7.97172  0.7931
 54.3252    0.12509     12.1567   0.94788
 54.5759    0.12567     15.7013   1.03096
 54.8278    0.12625     27.7292   1.38253
 55.0809    0.12683     58.4992   2.11029
 55.3352    0.12741     78.3324   2.66683
 55.5906    0.128       25.7003   1.53852
 55.8472    0.12859     25.579    1.57795
 56.1049    0.12919     36.7135   1.94812
 56.3639    0.12978     55.5287   2.28081
 56.6241    0.13038     84.0602   2.81115
 56.8854    0.13098     52.2135   2.38858
 57.148     0.13159     11.8033   1.14258
 57.4118    0.1322       9.84372  0.91279
 57.6768    0.13281     15.1714   1.10017
 57.943     0.13342     28.4974   1.51439
 58.2105    0.13403     52.0902   2.17114
 58.4792    0.13465     27.6791   1.53651
 58.7491    0.13528     16.6704   1.1729
 59.0203    0.1359      10.3826   1.06191
 59.2927    0.13653      4.03358  0.72039
 59.5664    0.13716      4.21664  0.6175
 59.8413    0.13779      5.19948  0.70871
 60.1175    0.13843      5.75505  0.80041
 60.395     0.13906      8.82942  1.02413
 60.6738    0.13971      8.04883  0.9534
 60.9539    0.14035      8.32462  0.838
 61.2352    0.141        7.60433  0.83516
 61.5179    0.14165      3.30759  0.6645
 61.8018    0.1423       1.69205  0.5072
 62.0871    0.14296      2.64788  0.51268
 62.3736    0.14362      2.33461  0.53059
 62.6616    0.14428      3.46097  0.58246
 62.9508    0.14495      4.28254  0.65017
 63.2414    0.14562      4.43901  0.62211
 63.5333    0.14629      6.98831  0.76778
 63.8265    0.14697     10.2209   0.93129
 64.1211    0.14764     24.0378   1.45415
 64.4171    0.14833     45.4745   2.32009
 64.7144    0.14901     24.2311   1.69021
 65.0131    0.1497       3.85551  0.59995
 65.3132    0.15039      3.46113  0.51643
 65.6147    0.15108      5.38852  0.5937
 65.9176    0.15178     10.8014   0.8941
 66.2218    0.15248      8.26224  0.79847
 66.5275    0.15319      8.33126  0.74289
 66.8346    0.15389      6.6431   0.85024
 67.1431    0.1546       2.51098  0.44723
 67.453     0.15532      1.21322  0.2941
 67.7643    0.15603      1.27391  0.34409
 68.0771    0.15675      1.56021  0.35695
 68.3913    0.15748      2.64011  0.42326
 68.707     0.1582       3.86438  0.52049
 69.0242    0.15893      3.46325  0.53123
 69.3428    0.15967      6.17693  0.74971
 69.6628    0.1604       6.81474  0.84542
 69.9844    0.16115     10.0188   0.91459
 70.3074    0.16189     17.7881   1.17413
 70.6319    0.16264     34.0826   1.75755
 70.958     0.16339     23.6946   1.60278
 71.2855    0.16414     11.7698   1.16736
 71.6145    0.1649       6.06623  0.75485
 71.9451    0.16566      8.00183  0.78902
 72.2772    0.16642     11.4638   0.90031
 72.6108    0.16719     19.86     1.30269
 72.9459    0.16796     11.9924   1.17476
 73.2826    0.16874      5.27626  0.75677
 73.6209    0.16952      5.00259  0.66082
 73.9607    0.1703       7.91898  0.79111
 74.3021    0.17109     15.661    1.04991
 74.6451    0.17188     31.8898   1.54586
 74.9896    0.17267     22.6938   1.49868
 75.3358    0.17347     10.5355   1.0379
 75.6835    0.17427      8.42138  0.93599
 76.0328    0.17507      7.52789  0.9321
 76.3838    0.17588      3.67884  0.62916
 76.7364    0.17669      3.36953  0.50755
 77.0906    0.17751      4.65052  0.59112
 77.4464    0.17833      7.95151  0.7719
 77.8039    0.17915     12.1023   1.00079
 78.163     0.17998     11.2547   0.9718
 78.5238    0.18081     12.5786   1.09694
 78.8862    0.18164      3.57875  0.61848
 79.2503    0.18248      3.77769  0.53259
 79.6161    0.18332      6.08211  0.64408
 79.9836    0.18417     10.0184   0.89365
 80.3528    0.18502      8.88519  0.82775
 80.7237    0.18587      8.6186   0.86119
 81.0963    0.18673      8.57112  0.81153
 81.4706    0.18759     10.2015   0.83342
 81.8467    0.18846     14.5452   1.11725
 82.2245    0.18933     10.6782   0.8965
 82.604     0.1902      19.1055   1.12576
 82.9853    0.19108     28.2071   1.45999
 83.3683    0.19196     13.8102   1.0556
 83.7532    0.19285     18.9339   1.167
 84.1397    0.19374     15.5306   1.26975
 84.5281    0.19463     15.215    1.37386
 84.9183    0.19553      6.59338  1.02573
 85.3102    0.19643      4.33964  0.86751
 85.704     0.19734      2.60076  0.70802
 86.0996    0.19825      5.66867  0.74172
 86.497     0.19917      3.70182  0.53688
 86.8963    0.20009      5.65464  0.6663
 87.2974    0.20101      6.17702  0.71304
 87.7003    0.20194      5.84309  0.71579
 88.1051    0.20287      7.84377  0.82363
 88.5118    0.20381      6.72583  0.77632
 88.9203    0.20475     12.1947   1.05397
 89.3308    0.20569     19.6917   1.35882
 89.7431    0.20664     22.6824   1.39576
 90.1574    0.2076      41.3673   1.88809
 90.5735    0.20855     79.5919   2.89258
 90.9916    0.20952     32.7082   1.61573
 91.4116    0.21048     13.5999   1.10032
 91.8335    0.21145     16.9054   1.2947
 92.2574    0.21243     17.6754   1.15103
 92.6832    0.21341     26.7746   1.3744
 93.111     0.2144      32.2563   1.84283
 93.5408    0.21539     18.3762   1.33006
 93.9726    0.21638     32.4721   1.823
 94.4063    0.21738     53.883    2.48497
 94.8421    0.21838     14.6704   1.08997
 95.2799    0.21939      4.5528   0.63937
 95.7197    0.2204       2.86711  0.59826
 96.1615    0.22142      1.57672  0.59879
 96.6053    0.22244      2.09687  0.5475
 97.0513    0.22347      2.52527  0.58233
 97.4992    0.2245       4.11515  0.57378
 97.9493    0.22554      4.90704  0.61573
 98.4014    0.22658      9.47804  0.97304
 98.8556    0.22762      7.03853  0.90325
 99.3119    0.22867      3.73543  0.52702
 99.7703    0.22973      4.2356   0.52642
 100.231    0.23079      5.20874  0.62411
 100.693    0.23186      9.91076  0.83205
 101.158    0.23293     11.446    0.94158
 101.625    0.234       10.679    1.06337
 102.094    0.23508      7.41768  0.74929
 102.565    0.23617      8.99905  0.80499
 103.039    0.23726     16.0621   1.07505
 103.514    0.23835     23.8755   1.46823
 103.992    0.23945     20.0339   1.36264
 104.472    0.24056      6.55732  0.82797
 104.955    0.24167      8.24287  0.7748
 105.439    0.24278     10.3199   0.95544
 105.926    0.2439      13.0515   1.16365
 106.415    0.24503     10.8661   0.92818
 106.906    0.24616     14.8288   1.13241
 107.399    0.2473      26.418    1.59548
 107.895    0.24844     52.5134   2.40928
 108.393    0.24958     32.7461   2.04184
 108.893    0.25074     14.1112   1.06121
 109.396    0.25189     20.9539   1.4079
 109.901    0.25306     26.6816   1.67662
 110.408    0.25422     22.2689   1.48546
 110.918    0.2554       7.11972  0.908
 111.43     0.25658      5.47481  0.61278
 111.944    0.25776     11.1077   0.94651
 112.461    0.25895      7.21956  0.79801
 112.98     0.26015      6.34586  0.62324
 113.501    0.26135      5.72634  0.67084
 114.025    0.26255      5.17529  0.74246
 114.552    0.26376      4.12189  0.64956
 115.08     0.26498      4.71788  0.57846
 115.612    0.26621      5.98297  0.70846
 116.145    0.26743      6.31301  0.82338
 116.681    0.26867      6.0272   0.91793
 117.22     0.26991      3.4136   0.60086
 117.761    0.27115      3.84364  0.60586
 118.304    0.27241      8.78813  0.87816
 118.851    0.27366     21.2463   1.34718
 119.399    0.27493     10.2587   1.06329
 119.95     0.2762       3.03979  0.58768
 120.504    0.27747      4.22984  0.62127
 121.06     0.27875      3.3287   0.59666
 121.619    0.28004      8.74364  0.82102
 122.18     0.28133     19.6053   1.31054
 122.744    0.28263     20.999    1.65164
 123.311    0.28393      9.78401  0.84997
 123.88     0.28524      5.60911  0.64202
 124.452    0.28656      8.40693  0.82983
 125.026    0.28788     15.5333   1.06357
 125.603    0.28921     22.8521   1.34037
 126.183    0.29055     24.3727   1.40468
 126.766    0.29189     12.3917   1.24277
 127.351    0.29324      6.72587  0.95807
 127.938    0.29459      5.47722  0.7125
 128.529    0.29595      9.76935  0.93266
 129.122    0.29731      7.21635  0.83131
 129.718    0.29869     10.396    0.87524
 130.317    0.30007     19.1535   1.30772
 130.919    0.30145      6.04843  0.69871
 131.523    0.30284      6.06597  0.80829
 132.13     0.30424      8.724    1.03451
 132.74     0.30564     13.0662   1.13222
 133.352    0.30706     17.4332   1.24747
 133.968    0.30847     30.7601   1.66083
 134.586    0.3099      12.9      1.07919
 135.208    0.31133      9.05373  0.92535
 135.832    0.31276     15.5692   1.30915
 136.459    0.31421     33.1919   1.9481
 137.089    0.31566     17.364    1.26521
 137.721    0.31711     15.7247   1.0665
 138.357    0.31858     13.2827   1.19936
 138.996    0.32005      5.38783  0.63306
 139.637    0.32153      6.58428  0.70647
 140.282    0.32301      5.65284  0.68041
 140.929    0.3245       6.8354   0.75584
 141.58     0.326       10.273    0.84262
 142.233    0.3275      20.0243   1.1888
 142.89     0.32902     17.41     1.33991
 143.549    0.33053      3.6401   0.62838
 144.212    0.33206      4.80688  0.64048
 144.878    0.33359      5.55478  0.59788
 145.546    0.33513     14.1928   1.00457
 146.218    0.33668     25.4905   1.55083
 146.893    0.33823      8.78744  0.89564
 147.571    0.33979      9.96032  0.86818
 148.252    0.34136      9.68224  0.97202
 148.937    0.34294      6.66562  0.71529
 149.624    0.34452     11.3635   1.0141
 150.315    0.34611     10.5472   1.04139
 151.008    0.34771      7.90825  0.87154
 151.705    0.34931      8.21813  0.78811
 152.406    0.35093      7.88554  0.77901
 153.109    0.35255      9.72697  0.79926
 153.816    0.35417     19.7816   1.22571
 154.526    0.35581     13.7949   1.18734
 155.239    0.35745     11.7317   0.91892
 155.956    0.3591      16.948    1.11896
 156.676    0.36076     20.765    1.24868
 157.399    0.36242     20.8242   1.29128
 158.125    0.3641       9.71915  0.88416
 158.855    0.36578      6.16882  0.6891
 159.588    0.36747      9.48414  0.92035
 160.325    0.36916     17.8079   1.27734
 161.065    0.37087     23.1711   1.34465
 161.808    0.37258     20.9798   1.32546
 162.555    0.3743       4.21438  0.61532
 163.306    0.37602      5.27115  0.71054
 164.059    0.37776      9.32834  0.91743
 164.817    0.3795       9.59561  1.05313
 165.577    0.38126     10.6931   0.8867
 166.342    0.38302     13.592    1.03518
 167.11     0.38478      6.11987  0.83935
 167.881    0.38656      4.58412  0.707
 168.656    0.38834      7.33236  0.88443
 169.434    0.39014      6.86754  0.88708
 170.216    0.39194      5.48397  0.73928
 171.002    0.39375      6.19467  0.76114
 171.791    0.39556      4.10447  0.56851
 172.584    0.39739      4.84068  0.63976
 173.381    0.39922      3.51655  0.54969
 174.181    0.40107      7.36539  0.77107
 174.985    0.40292     11.5456   1.03104
 175.793    0.40478      8.92959  0.97962
 176.604    0.40665      8.15604  0.84999
 177.419    0.40852     16.3747   1.17724
 178.238    0.41041     31.2334   1.67568
 179.061    0.4123      30.7364   1.84486
 179.888    0.41421     20.5147   1.29394
 180.718    0.41612     14.4177   1.00944
 181.552    0.41804     10.2068   0.96622
 182.39     0.41997      8.99336  0.85784
 183.232    0.42191     10.2542   1.00916
 184.078    0.42385      4.83203  0.67228
 184.927    0.42581      6.414    0.77568
 185.781    0.42778      2.84917  0.43754
 186.638    0.42975      4.48573  0.5802
 187.5      0.43173      3.10744  0.52282
 188.365    0.43373      5.14047  0.61824
 189.235    0.43573     10.272    0.84876
 190.108    0.43774     16.0954   1.07783
 190.986    0.43976      8.60228  0.89028
 191.867    0.44179      8.62961  0.78374
 192.753    0.44383     17.5529   1.14016
 193.643    0.44588     11.8816   1.20438
 194.537    0.44794      4.60642  0.64437
 195.434    0.45         5.70214  0.8174
 196.337    0.45208      4.38532  0.62786
 197.243    0.45417      4.92752  0.67106
 198.153    0.45626      7.06544  0.76515
 199.068    0.45837      6.57654  0.8663
 199.987    0.46049     11.9433   1.07333
 200.91     0.46261     18.9195   1.26764
 201.837    0.46475     15.4059   1.39787
 202.769    0.46689      8.29526  0.82996
 203.705    0.46905      4.89492  0.65059
 204.645    0.47121      7.41413  0.8793
 205.59     0.47339      8.66944  0.94577
 206.539    0.47557      8.183    0.78998
 207.492    0.47777     10.8614   0.95006
 208.45     0.47997     14.4396   1.2843
 209.412    0.48219     17.72     1.29418
 210.378    0.48441     27.0986   1.67857
 211.349    0.48665     10.1328   0.88132
 212.325    0.4889       9.05463  0.86925
 213.305    0.49115      4.21626  0.64569
 214.29     0.49342      9.19433  0.9363
 215.279    0.4957       4.74075  0.88892
 216.272    0.49799      2.97657  0.5882
 217.271    0.50028      4.10007  0.60878
 218.274    0.50259      4.96907  0.73147
 219.281    0.50491      5.6107   0.7031
 220.293    0.50724      6.2797   0.7725
 221.31     0.50958     12.3389   1.0859
 222.332    0.51194     13.4476   1.23851
 223.358    0.5143      16.9774   1.20571
 224.389    0.51667     25.6301   1.45952
 225.425    0.51906     36.383    1.76911
 226.465    0.52145     25.8434   1.60918
 227.51     0.52386     15.7876   1.13364
 228.56     0.52628      7.41639  0.86586
 229.615    0.52871      9.81582  0.87228
 230.675    0.53115     14.9422   1.11824
 231.74     0.5336      22.027    1.28147
 232.81     0.53606     13.6376   1.21428
 233.884    0.53854     11.0594   1.05107
 234.964    0.54102      9.68704  1.08231
 236.048    0.54352      2.65137  0.53472
 237.138    0.54603      3.48878  0.53539
 238.233    0.54855      2.45814  0.52493
 239.332    0.55108      2.3305   0.58809
 240.437    0.55363      3.42881  0.7151
 241.547    0.55618      5.78075  0.80768
 242.662    0.55875      5.29546  0.93547
 243.782    0.56133      4.08802  0.71009
 244.907    0.56392      3.81887  0.63494
 246.037    0.56652      5.9578   0.72791
 247.173    0.56914      9.49819  0.96629
 248.314    0.57176     11.9022   0.91924
 249.46     0.5744       9.79982  0.92499
 250.612    0.57705      3.94751  0.75847
 251.768    0.57972      3.692    0.58299
 252.93     0.58239      3.89009  0.70089
 254.098    0.58508      6.92722  0.86824
 255.271    0.58778      6.69575  0.9349
 256.449    0.5905       6.5927   0.7593
 257.633    0.59322      4.89983  0.78099
 258.822    0.59596      4.12231  0.57637
 260.017    0.59871      7.35008  0.72954
 261.217    0.60147     15.8313   1.14077
 262.423    0.60425     19.7324   1.3654
 263.634    0.60704     10.0616   1.19524
 264.851    0.60984      5.89599  0.69217
 266.073    0.61266      5.23429  0.66527
 267.301    0.61548      5.41092  0.82161
 268.535    0.61832      7.01642  0.88464
 269.775    0.62118      7.75246  0.85651
 271.02     0.62405      9.85167  1.00084
 272.271    0.62693     17.2242   1.2732
 273.528    0.62982     25.7842   1.55141
 274.79     0.63273     10.8455   1.20069
 276.059    0.63565      4.97798  0.69301
 277.333    0.63858      5.59585  0.7505
 278.613    0.64153      8.07631  0.99768
 279.899    0.64449      3.67565  0.64074
 281.191    0.64747      3.49857  0.77483
 282.489    0.65045      3.98399  0.79446
 283.793    0.65346      2.12643  0.57874
 285.103    0.65647      1.85292  0.43218
 286.419    0.6595       1.51827  0.46945
 287.741    0.66255      3.49062  0.60684
 289.069    0.6656       4.9254   0.70999
 290.403    0.66868      7.72328  0.88448
 291.743    0.67176      4.54491  0.83089
 293.09     0.67486      3.72009  0.74105
 294.443    0.67798      3.33037  0.55859
 295.802    0.68111      3.25232  0.54279
 297.167    0.68425      6.26127  0.77709
 298.539    0.68741     10.5605   0.9798
 299.917    0.69058     12.075    1.08207
 301.301    0.69377      2.51453  0.51646
 302.692    0.69697      1.88126  0.42073
 304.089    0.70019      2.74304  0.55507
 305.493    0.70342      1.91929  0.53002
 306.903    0.70667      3.0775   0.62996
 308.32     0.70993      4.71344  0.659
 309.743    0.71321     10.2134   1.08151
 311.172    0.7165       3.93234  0.59887
 312.609    0.71981      5.13236  0.64028
 314.052    0.72313      9.62678  0.88352
 315.501    0.72647      6.84246  0.78089
 316.958    0.72982      8.17169  0.98387
 318.421    0.73319      4.46843  0.7754
 319.89     0.73657      5.65966  0.72108
 321.367    0.73997      7.43643  0.86468
 322.85     0.74339      9.48654  0.91442
 324.34     0.74682     12.7962   1.10189
 325.838    0.75027     14.0853   1.35921
 327.342    0.75373     11.6823   1.30595
 328.853    0.75721      7.5221   1.02926
 330.37     0.76071      4.18427  0.84207
 331.895    0.76422      5.79462  0.90508
 333.427    0.76774     10.469    1.16506
 334.966    0.77129      9.11091  1.28724
 336.512    0.77485      4.5426   0.98051
 338.066    0.77842      4.71554  0.94529
 339.626    0.78202      4.28756  0.88751
 341.194    0.78563      8.39938  1.24549
 342.769    0.78925     10.2904   1.35547
 344.351    0.7929      10.5455   1.16498
 345.94     0.79656      7.33963  1.13146
 347.537    0.80023      4.41827  0.79102
 349.141    0.80393      5.71125  0.9749
 350.753    0.80764      4.65152  0.76042
 352.372    0.81137      4.82368  0.71815
 353.998    0.81511      5.20894  0.78553
 355.632    0.81887      7.41402  0.92178
 357.274    0.82265      6.95705  0.85154
 358.923    0.82645      3.39813  0.69626
 360.58     0.83026      2.47982  0.56783
 362.244    0.8341       3.56286  0.67045
 363.916    0.83795      4.813    0.79393
 365.596    0.84181      3.85951  0.62327
 367.283    0.8457       5.57208  0.80678
 368.979    0.8496       4.92087  0.70191
 370.682    0.85353      7.68017  0.79658
 372.393    0.85746      6.64513  0.80325
 374.112    0.86142      8.15792  0.91354
 375.838    0.8654       3.6907   0.62319
 377.573    0.86939      2.31178  0.45228
 379.316    0.87341      3.95843  0.60255
 381.067    0.87744      9.91165  0.92242
 382.826    0.88149     10.0223   1.00194
 384.593    0.88556      5.68442  0.73689
 386.368    0.88964      5.69039  0.74621
 388.151    0.89375      7.1942   0.76682
 389.943    0.89788      6.47686  0.85075
 391.743    0.90202      1.8463   0.44149
 393.551    0.90618      2.77338  0.5172
 395.368    0.91037      2.19439  0.53333
 397.193    0.91457      3.43182  0.54652
 399.026    0.91879      4.44258  0.7335
 400.868    0.92303      3.37292  0.57201
 402.718    0.92729      2.88956  0.50349
 404.577    0.93157      3.52135  0.5819
 406.444    0.93587      3.93302  0.59561
 408.32     0.94019      3.18135  0.63025
 410.205    0.94453      2.72556  0.56848
 412.099    0.94889      2.72334  0.537
 414.001    0.95327      2.75145  0.48099
 415.912    0.95767      4.96025  0.64007
 417.831    0.96209      5.29233  0.70017
 419.76     0.96653      7.22722  0.81612
 421.698    0.97099      5.6297   0.79367
 423.644    0.97548      2.3717   0.50569
 425.6      0.97998      5.8879   0.73616
 427.564    0.9845       5.72483  0.77399
 429.538    0.98905      5.69628  0.72817
 431.52     0.99361      4.2889   0.67252
 433.512    0.9982       3.76988  0.66421
 435.513    1.0028       5.66112  0.80533
 437.523    1.00743      5.32889  0.82001
 439.543    1.01208      3.63954  0.58096
 441.572    1.01675      5.97689  0.77252
 443.61     1.02145      5.87719  0.89317
 445.657    1.02616      3.33335  0.6935
 447.714    1.0309       2.83325  0.45934
 449.781    1.03566      4.41593  0.56725
 451.857    1.04044      6.73099  0.83063
 453.943    1.04524      4.65916  0.62731
 456.038    1.05006      4.754    0.65021
 458.143    1.05491      3.22948  0.52914
 460.258    1.05978      4.26355  0.59092
 462.382    1.06467      7.55593  0.76225
 464.517    1.06959      7.08335  0.81371
 466.661    1.07452      4.00008  0.76753
 468.815    1.07948      3.00409  0.56056
 470.979    1.08447      4.40271  0.64805
 473.153    1.08947      3.70687  0.63398
 475.336    1.0945       5.83242  0.78417
 477.531    1.09955      4.81364  0.57676
 479.735    1.10463      5.19154  0.62245
 481.949    1.10973      5.79853  0.74018
 484.174    1.11485      6.09297  0.85298
 486.408    1.11999      3.91146  0.67677
 488.654    1.12516      2.59913  0.53329
 490.909    1.13036      2.64328  0.56254
 493.175    1.13558      5.08623  0.77753
 495.452    1.14082      4.91354  0.64437
 497.738    1.14608      5.99639  0.73361
ENDDATA           1049
ENDSUBENT         1069
NOSUBENT      14149004   20130622   20130812   20130622       1390
NOSUBENT      14149005   20130622   20130812   20130622       1390
NOSUBENT      14149006   20130622   20130812   20130622       1390
SUBENT        14149007   20130408   20170703   20170622       1426
BIB                  6         16
REACTION  1(92-U-235(N,ABS),,ALF)
          2(92-U-235(N,G)92-U-236,,SIG)
ERR-ANALYS1(DATA-ERR) No information on source of uncertainty
          2(DATA-ERR) Total uncertainty which could not be
            separated to statistical and systematic uncertainties
            because of data correlations.
           Uncertainties will be updated after publication of a
            separate paper devoted to uncertainties.
MONITOR   2(92-U-235(N,F),,SIG)
            ENDF/B-VII.1 with broadening function of DANCE
            obtained by SAMMY
MONIT-REF 2(,,3,ENDF/B-VII.1,,2011)
STATUS    1(TABLE) Received from Marian Jandel
          2(TABLE) Data sent by author (M.J.) corresponding to
            Fig.3+4 of Phys.Rev.Lett.109(2012)202506
HISTORY    (20170329C) On
ENDBIB              16
COMMON               3          3
EN-NRM-MIN EN-NRM-MAX MONIT
EV         EV         B*EV
 45.0       100.0      837.8
ENDCOMMON            3
DATA                 6         66
EN-MIN     EN-MAX     DATA      1DATA-ERR  1DATA      2DATA-ERR  2
EV         EV         NO-DIM     NO-DIM     B          B
    498.885    501.187 0.153539   0.0339893  2.61329    0.57851
    501.187    512.861 0.182098   0.0160004  3.55298    0.31219
    512.861    524.808 0.300176   0.0208895  4.99961    0.34793
    524.808    537.031 0.395941   0.0245514  5.00055    0.31007
    537.031    549.541 0.363818   0.0229871  5.28221    0.33375
    549.541    562.342 0.264477   0.0242404  2.72231    0.24951
    562.342    575.44  0.289062   0.0202627  4.05571    0.2843
    575.44     588.844 0.338034   0.0225954  5.12371    0.34249
    588.844    602.559 0.308578   0.0216098  4.88484    0.34209
    602.559    616.595 0.226316   0.0206768  3.05826    0.27941
    616.595    630.958 0.583998   0.0361686  4.94271    0.30612
    630.958    645.654 0.834457   0.0419151  8.20161    0.41197
    645.654    660.693 0.508957   0.0353536  3.73843    0.25968
    660.693    676.083 0.323875   0.0230642  3.92845    0.27976
    676.083    691.831 0.278325   0.0210129  4.12675    0.31156
    691.831    707.946 0.279451   0.0241367  3.03716    0.26233
    707.946    724.436 0.383222   0.0271948  3.86686    0.27441
    724.436    741.31  0.587885   0.030148   7.34986    0.37692
    741.31     758.577 0.557991   0.0337618  5.19598    0.31439
    758.577    776.247 0.326445   0.0255231  3.72374    0.29114
    776.247    794.328 0.350351   0.0243399  4.24022    0.29458
    794.328    812.83  0.427277   0.0289711  4.45654    0.30217
    812.83     831.764 0.490262   0.0386933  3.31429    0.26158
    831.764    851.138 0.474517   0.0349112  3.23729    0.23817
    851.138    870.963 0.466096   0.0310682  4.07577    0.27168
    870.963    891.251 0.438232   0.0330316  3.35424    0.25283
    891.251    912.011 0.567235   0.0357267  4.70958    0.29663
    912.011    933.254 0.615776   0.0364785  5.37209    0.31824
    933.254    954.993 0.571395   0.0387713  4.22382    0.2866
    954.993    977.238 0.693167   0.0470133  4.2607     0.28898
    977.238   1000.    0.496437   0.0360876  3.39142    0.24653
   1000.      1122.02  0.564265   0.0182754  4.42334    0.14326
   1122.02    1258.92  0.386765   0.0146875  3.38042    0.12837
   1258.92    1412.54  0.335609   0.0147608  2.59591    0.11417
   1412.54    1584.9   0.380302   0.016826   2.37602    0.10512
   1584.9     1778.28  0.339617   0.015992   2.25792    0.10632
   1778.28    1995.26  0.423453   0.0176779  2.68088    0.11192
   1995.26    2238.72  0.462748   0.0204695  2.44318    0.10807
   2238.72    2511.88  0.327196   0.0184171  1.72983    0.09737
   2511.88    2818.38  0.359152   0.0192667  1.88963    0.10137
   2818.38    3162.28  0.378309   0.0199235  1.84828    0.09734
   3162.28    3548.13  0.399796   0.0206294  1.97268    0.10179
   3548.13    3981.07  0.398878   0.021252   1.85447    0.09881
   3981.07    4466.83  0.34787    0.0204963  1.55634    0.09170
   4466.83    5011.87  0.40592    0.0233104  1.61451    0.09272
   5011.87    5623.41  0.295593   0.0210785  1.16780    0.08327
   5623.41    6309.58  0.436209   0.0282691  1.56366    0.10134
   6309.58    7079.46  0.399691   0.026253   1.32518    0.08704
   7079.46    7943.29  0.365252   0.0261646  1.14676    0.08215
   7943.29    8912.5   0.46611    0.0303836  1.37565    0.08967
   8912.5     9999.97  0.348935   0.0259274  1.05492    0.07839
   9999.97   12589.3   0.397468   0.0211563  1.10672    0.05891
  12589.3    15848.9   0.393536   0.0221479  1.04448    0.05878
  15848.9    19952.6   0.362907   0.0224769  0.87814    0.05439
  19952.6    25118.8   0.387126   0.0238307  0.86643    0.05334
  25118.8    31622.7   0.367191   0.0223394  0.76678    0.04665
  31622.7    39810.7   0.325162   0.0531691  0.64162    0.10492
  39810.7    50118.7   0.374192   0.0311834  0.69416    0.05785
  50118.7    63095.8   0.299889   0.0264954  0.53867    0.04759
  63095.8    79432.8   0.339532   0.0249016  0.57786    0.04238
  79432.8   100000.    0.250355   0.0514676  0.39891    0.08201
 100000.    158489.    0.254941   0.0223772  0.37764    0.03315
 158489.    251189.    0.245619   0.0243418  0.32912    0.03262
 251189.    398107.    0.170214   0.0217391  0.20986    0.02680
 398107.    630958.    0.143714   0.0270141  0.16447    0.03092
 630958.   1000000.    0.109442   0.0234804  0.12408    0.02662
ENDDATA             68
ENDSUBENT           93
ENDENTRY             7
