ENTRY            E2129   20150520   20150701   20150625       E097
SUBENT        E2129001   20150520   20150701   20150625       E097
BIB                 14         28
TITLE      Measurements of double-differential neutron-production
           cross-sections for the 9Be(p,xn) and 9Be(d,xn)
           reactions at 10 MeV
AUTHOR     (Y.Iwamoto, Y.Sakamoto, N.Matsuda, Y.Nakane, K.Ochiai,
            H.Kaneko, K.Niita, T.Shibata, H.Nakashima)
INSTITUTE  (2JPNJAE)
           (2JPNJPN) Research Organization for Information
                     Science and Technology, Tokai
REFERENCE  (J,NIM/A,598,(3),687,200901)
PART-DET   (N)
INC-SOURCE Beam intensity is 10 to 20 nA.
SAMPLE     - Chemical-form of target is element.
           - Physical-form of target is solid.
           - Target-thickness is 0.028 mg/cm2.
METHOD     (TOF) Flight path of 2.0 m
FACILITY   (ISOCY,2JPNJAE) HB-1 beam line at the TIARA facility
DETECTOR   Solid angle of detector is 2.03 msr.
           (SCIN) To detect neutron (NE213)
ERR-ANALYS (ERR-SYS) Mainly due to limited neutron detection
                     efficiency
           (ERR-S) Statistical uncertainty
ADD-RES    Integrated neutron production cross sections for En >
           1.8 MeV (Fig.9, p695)
STATUS     (APRVD) Proofread by Y.Iwamoto (2015.05.20)
HISTORY    (20090106C) Mt
           (20150430R) Received by e-mail from Y.Iwamoto
           (20150520A) MA: Numerical data replaced and heading
                       modified in 2,3
ENDBIB              28
COMMON               2          3
EN         ERR-SYS
MEV        PER-CENT
 10.        10.
ENDCOMMON            3
ENDSUBENT           35
SUBENT        E2129002   20150520   20150701   20150625       E097
BIB                  4          7
REACTION   (4-BE-9(P,X)0-NN-1,,DA/DE)
EN-SEC     ANG is polar angle (lab.) between beam and neutron
           (E,N)
STATUS     (TABLE) Data (Fig.7, p691 of reference) sent by e-mail
                   from Y.Iwamoto (2009.01.06)
HISTORY    (20150520A) MA: ERR-T -> ERR-S, numerical data
                       replaced
ENDBIB               7
NOCOMMON             0          0
DATA                 4        421
ANG        E          DATA       ERR-S
ADEG       MEV        MB/SR/MEV  MB/SR/MEV
        15.       1.55      9.097     0.3042
        15.       1.65      9.263     0.2984
        15.       1.75      8.923     0.2896
        15.       1.85      8.787     0.2785
        15.       1.95      8.655     0.2738
        15.       2.05      8.613     0.2724
        15.       2.15      8.626     0.2691
        15.       2.25      8.273     0.2617
        15.       2.35      8.312     0.2602
        15.       2.45      8.123     0.2566
        15.       2.55      8.009     0.2499
        15.       2.65      7.456     0.2367
        15.       2.75      7.095     0.2353
        15.       2.85      6.608     0.2310
        15.       2.95      6.421     0.2245
        15.       3.05      5.738     0.2142
        15.       3.15      5.420     0.2121
        15.       3.25      5.116     0.2087
        15.       3.35      4.867     0.1991
        15.       3.45      4.888     0.2006
        15.       3.55      4.720     0.1952
        15.       3.65      4.561     0.1925
        15.       3.75      4.616     0.1893
        15.       3.85      4.293     0.1870
        15.       3.95      4.484     0.1861
        15.       4.05      4.510     0.1875
        15.       4.15      4.550     0.1938
        15.       4.25      4.570     0.1883
        15.       4.35      4.850     0.1946
        15.       4.45      4.919     0.1918
        15.       4.55      5.146     0.1934
        15.       4.65      5.310     0.2006
        15.       4.75      5.559     0.2032
        15.       4.85      5.904     0.2112
        15.       4.95      6.108     0.2220
        15.       5.05      6.773     0.2195
        15.       5.15      7.687     0.2258
        15.       5.25     10.535     0.2554
        15.       5.35     12.872     0.2813
        15.       5.45     10.029     0.2216
        15.       5.55      4.903     0.1760
        15.       5.65      3.208     0.1478
        15.       5.75      2.680     0.1371
        15.       5.85      2.466     0.1412
        15.       5.95      2.352     0.1331
        15.       6.05      2.153     0.1206
        15.       6.15      2.098     0.1317
        15.       6.25      1.920     0.1325
        15.       6.35      1.941     0.1232
        15.       6.45      1.799     0.1224
        15.       6.55      1.743     0.1300
        15.       6.65      1.655     0.1333
        15.       6.75      1.627     0.1389
        15.       6.85      1.528     0.1553
        15.       6.95      1.561     0.1546
        15.       7.05      1.638     0.1574
        15.       7.15      1.690     0.1460
        15.       7.25      1.920     0.1481
        15.       7.35      2.845     0.1544
        15.       7.45      5.549     0.2208
        15.       7.55      9.518     0.2979
        15.       7.65     13.341     0.3040
        15.       7.75     12.702     0.2430
        15.       7.85      6.546     0.1581
        15.       7.95      1.603     0.0888
        15.       8.05      0.187     0.0579
        15.       8.15      0.019     0.0517
        15.       8.25      0.008     0.0490
        15.       8.35      0.010     0.0539
        15.       8.45      0.010     0.0536
        15.       8.55      0.001     0.0546
        30.       1.55      9.461     0.2728
        30.       1.65      9.489     0.2693
        30.       1.75      8.701     0.2583
        30.       1.85      8.907     0.2559
        30.       1.95      8.252     0.2437
        30.       2.05      7.947     0.2357
        30.       2.15      7.886     0.2303
        30.       2.25      7.736     0.2253
        30.       2.35      7.306     0.2157
        30.       2.45      6.488     0.2049
        30.       2.55      6.044     0.1979
        30.       2.65      5.735     0.1929
        30.       2.75      5.349     0.1820
        30.       2.85      5.176     0.1774
        30.       2.95      4.754     0.1754
        30.       3.05      4.507     0.1648
        30.       3.15      3.916     0.1597
        30.       3.25      4.071     0.1610
        30.       3.35      3.752     0.1551
        30.       3.45      3.328     0.1510
        30.       3.55      3.543     0.1509
        30.       3.65      3.082     0.1454
        30.       3.75      2.941     0.1468
        30.       3.85      2.929     0.1423
        30.       3.95      2.645     0.1388
        30.       4.05      2.691     0.1380
        30.       4.15      2.732     0.1376
        30.       4.25      2.428     0.1373
        30.       4.35      2.858     0.1432
        30.       4.45      2.907     0.1408
        30.       4.55      3.541     0.1496
        30.       4.65      3.046     0.1430
        30.       4.75      3.425     0.1494
        30.       4.85      3.655     0.1535
        30.       4.95      4.468     0.1687
        30.       5.05      5.732     0.1839
        30.       5.15      6.734     0.1968
        30.       5.25      5.212     0.1772
        30.       5.35      2.858     0.1428
        30.       5.45      1.819     0.1217
        30.       5.55      1.792     0.1233
        30.       5.65      1.467     0.1155
        30.       5.75      1.474     0.1144
        30.       5.85      1.363     0.1120
        30.       5.95      1.494     0.1148
        30.       6.05      1.050     0.1125
        30.       6.15      1.072     0.1017
        30.       6.25      0.988     0.1053
        30.       6.35      1.115     0.1072
        30.       6.45      1.101     0.1023
        30.       6.55      0.874     0.1000
        30.       6.65      0.797     0.0990
        30.       6.75      0.927     0.1029
        30.       6.85      1.107     0.1078
        30.       6.95      1.575     0.1186
        30.       7.05      2.456     0.1382
        30.       7.15      3.588     0.1604
        30.       7.25      5.047     0.1838
        30.       7.35      5.731     0.1913
        30.       7.45      5.755     0.1957
        30.       7.55      4.943     0.1816
        30.       7.65      1.733     0.1285
        30.       7.75      0.200     0.0768
        30.       7.85      0.022     0.0712
        45.       1.55     10.646     0.0859
        45.       1.65      9.949     0.0825
        45.       1.75      9.676     0.0807
        45.       1.85      9.125     0.0779
        45.       1.95      8.795     0.0765
        45.       2.05      7.706     0.0712
        45.       2.15      7.761     0.0710
        45.       2.25      6.747     0.0664
        45.       2.35      6.229     0.0639
        45.       2.45      5.769     0.0617
        45.       2.55      5.137     0.0585
        45.       2.65      4.752     0.0565
        45.       2.75      4.762     0.0560
        45.       2.85      4.374     0.0542
        45.       2.95      4.038     0.0521
        45.       3.05      4.184     0.0503
        45.       3.15      4.283     0.0513
        45.       3.25      3.601     0.0469
        45.       3.35      3.953     0.0494
        45.       3.45      3.677     0.0476
        45.       3.55      3.395     0.0459
        45.       3.65      3.993     0.0496
        45.       3.75      3.665     0.0482
        45.       3.85      3.388     0.0463
        45.       3.95      4.207     0.0517
        45.       4.05      4.046     0.0508
        45.       4.15      4.449     0.0533
        45.       4.25      4.131     0.0519
        45.       4.35      4.859     0.0571
        45.       4.45      7.052     0.0687
        45.       4.55      8.605     0.0733
        45.       4.65      8.461     0.0705
        45.       4.75      8.622     0.0702
        45.       4.85      4.210     0.0500
        45.       4.95      2.599     0.0410
        45.       5.05      2.475     0.0414
        45.       5.15      1.478     0.0329
        45.       5.25      1.753     0.0359
        45.       5.35      1.737     0.0360
        45.       5.45      1.306     0.0315
        45.       5.55      1.558     0.0349
        45.       5.65      1.192     0.0305
        45.       5.75      1.145     0.0306
        45.       5.85      1.090     0.0305
        45.       5.95      1.021     0.0304
        45.       6.05      1.072     0.0328
        45.       6.15      1.141     0.0351
        45.       6.25      1.452     0.0405
        45.       6.35      1.640     0.0416
        45.       6.45      3.815     0.0596
        45.       6.55      4.741     0.0625
        45.       6.65      9.062     0.0825
        45.       6.75      9.069     0.0797
        45.       6.85      8.613     0.0761
        45.       6.95      6.971     0.0679
        45.       7.05      3.867     0.0508
        45.       7.15      1.487     0.0326
        45.       7.25      0.378     0.0180
        45.       7.35      0.073     0.0108
        45.       7.45      0.018     0.0090
        45.       7.55      0.009     0.0092
        45.       7.65      0.004     0.0068
        45.       7.75      0.005     0.0085
        60.       1.55      6.844     0.0710
        60.       1.65      6.361     0.0678
        60.       1.75      5.927     0.0655
        60.       1.85      5.422     0.0619
        60.       1.95      5.148     0.0606
        60.       2.05      4.376     0.0559
        60.       2.15      4.186     0.0549
        60.       2.25      3.587     0.0510
        60.       2.35      3.219     0.0487
        60.       2.45      3.049     0.0470
        60.       2.55      2.725     0.0445
        60.       2.65      2.518     0.0428
        60.       2.75      2.505     0.0428
        60.       2.85      2.328     0.0412
        60.       2.95      2.168     0.0400
        60.       3.05      2.172     0.0384
        60.       3.15      2.248     0.0390
        60.       3.25      1.907     0.0358
        60.       3.35      2.136     0.0376
        60.       3.45      2.045     0.0364
        60.       3.55      1.856     0.0353
        60.       3.65      2.216     0.0380
        60.       3.75      2.139     0.0372
        60.       3.85      1.969     0.0361
        60.       3.95      2.335     0.0393
        60.       4.05      2.234     0.0386
        60.       4.15      2.449     0.0409
        60.       4.25      2.583     0.0419
        60.       4.35      3.697     0.0488
        60.       4.45      5.349     0.0563
        60.       4.55      3.866     0.0465
        60.       4.65      1.700     0.0322
        60.       4.75      1.272     0.0294
        60.       4.85      0.817     0.0246
        60.       4.95      0.717     0.0235
        60.       5.05      0.865     0.0262
        60.       5.15      0.528     0.0205
        60.       5.25      0.587     0.0223
        60.       5.35      0.617     0.0230
        60.       5.45      0.471     0.0202
        60.       5.55      0.547     0.0224
        60.       5.65      0.431     0.0205
        60.       5.75      0.444     0.0210
        60.       5.85      0.442     0.0216
        60.       5.95      0.463     0.0231
        60.       6.05      0.573     0.0260
        60.       6.15      0.874     0.0311
        60.       6.25      1.677     0.0401
        60.       6.35      2.228     0.0427
        60.       6.45      4.765     0.0589
        60.       6.55      4.604     0.0554
        60.       6.65      6.082     0.0624
        60.       6.75      3.210     0.0454
        60.       6.85      1.409     0.0307
        60.       6.95      0.509     0.0196
        60.       7.05      0.116     0.0119
        60.       7.15      0.027     0.0089
        60.       7.25      0.006     0.0085
        75.       1.05      9.229     0.1118
        75.       1.15      8.972     0.1090
        75.       1.25      8.626     0.1051
        75.       1.35      8.262     0.1023
        75.       1.45      8.010     0.0991
        75.       1.55      7.549     0.0959
        75.       1.65      7.249     0.0926
        75.       1.75      6.476     0.0874
        75.       1.85      6.008     0.0829
        75.       1.95      5.243     0.0793
        75.       2.05      4.762     0.0761
        75.       2.15      4.239     0.0724
        75.       2.25      4.051     0.0705
        75.       2.35      3.934     0.0672
        75.       2.45      3.553     0.0658
        75.       2.55      3.098     0.0637
        75.       2.65      3.013     0.0629
        75.       2.75      2.791     0.0617
        75.       2.85      2.743     0.0609
        75.       2.95      2.700     0.0612
        75.       3.05      2.508     0.0591
        75.       3.15      2.579     0.0598
        75.       3.25      2.181     0.0602
        75.       3.35      2.416     0.0597
        75.       3.45      2.430     0.0610
        75.       3.55      2.519     0.0610
        75.       3.65      2.534     0.0616
        75.       3.75      2.586     0.0636
        75.       3.85      2.922     0.0624
        75.       3.95      3.096     0.0610
        75.       4.05      3.907     0.0617
        75.       4.15      4.466     0.0706
        75.       4.25      5.268     0.0750
        75.       4.35      5.499     0.0636
        75.       4.45      3.730     0.0476
        75.       4.55      2.020     0.0390
        75.       4.65      1.041     0.0357
        75.       4.75      0.788     0.0349
        75.       4.85      0.709     0.0342
        75.       4.95      0.559     0.0340
        75.       5.05      0.534     0.0347
        75.       5.15      0.533     0.0357
        75.       5.25      0.487     0.0379
        75.       5.35      0.420     0.0398
        75.       5.45      0.357     0.0405
        75.       5.55      0.408     0.0411
        75.       5.65      0.503     0.0388
        75.       5.75      0.700     0.0373
        75.       5.85      1.152     0.0360
        75.       5.95      1.647     0.0374
        75.       6.05      2.206     0.0474
        75.       6.15      2.938     0.0646
        75.       6.25      3.425     0.0761
        75.       6.35      4.203     0.0701
        75.       6.45      4.370     0.0567
        75.       6.55      3.801     0.0409
        75.       6.65      2.756     0.0284
        75.       6.75      1.274     0.0174
        75.       6.85      0.418     0.0115
        75.       6.95      0.135     0.0091
        75.       7.05      0.029     0.0088
        75.       7.15      0.012     0.0082
        90.       1.55      2.545     0.0698
        90.       1.65      2.524     0.0679
        90.       1.75      2.353     0.0664
        90.       1.85      2.060     0.0633
        90.       1.95      2.007     0.0611
        90.       2.05      1.835     0.0594
        90.       2.15      1.740     0.0566
        90.       2.25      1.556     0.0539
        90.       2.35      1.421     0.0523
        90.       2.45      1.155     0.0500
        90.       2.55      1.245     0.0506
        90.       2.65      1.120     0.0498
        90.       2.75      1.190     0.0511
        90.       2.85      1.210     0.0524
        90.       2.95      1.058     0.0514
        90.       3.05      1.234     0.0499
        90.       3.15      1.132     0.0487
        90.       3.25      1.190     0.0471
        90.       3.35      1.249     0.0467
        90.       3.45      1.170     0.0451
        90.       3.55      1.306     0.0460
        90.       3.65      1.447     0.0485
        90.       3.75      1.955     0.0554
        90.       3.85      2.415     0.0590
        90.       3.95      2.510     0.0615
        90.       4.05      2.188     0.0583
        90.       4.15      1.156     0.0460
        90.       4.25      0.555     0.0352
        90.       4.35      0.311     0.0300
        90.       4.45      0.252     0.0271
        90.       4.55      0.198     0.0260
        90.       4.65      0.234     0.0262
        90.       4.75      0.241     0.0263
        90.       4.85      0.160     0.0250
        90.       4.95      0.221     0.0259
        90.       5.05      0.164     0.0258
        90.       5.15      0.227     0.0253
        90.       5.25      0.172     0.0262
        90.       5.35      0.266     0.0282
        90.       5.45      0.361     0.0302
        90.       5.55      0.590     0.0342
        90.       5.65      0.806     0.0401
        90.       5.75      1.028     0.0443
        90.       5.85      1.299     0.0474
        90.       5.95      1.417     0.0500
        90.       6.05      1.346     0.0503
        90.       6.15      1.154     0.0480
        90.       6.25      0.731     0.0398
        90.       6.35      0.291     0.0304
        90.       6.45      0.127     0.0252
        90.       6.55      0.034     0.0191
        90.       6.65      0.025     0.0172
       120.       1.55      2.929     0.0959
       120.       1.65      2.801     0.0952
       120.       1.75      2.647     0.0925
       120.       1.85      2.439     0.0916
       120.       1.95      2.302     0.0895
       120.       2.05      2.088     0.0877
       120.       2.15      1.980     0.0850
       120.       2.25      1.693     0.0828
       120.       2.35      1.668     0.0811
       120.       2.45      1.653     0.0788
       120.       2.55      1.576     0.0783
       120.       2.65      1.600     0.0783
       120.       2.75      1.653     0.0770
       120.       2.85      1.752     0.0769
       120.       2.95      1.899     0.0772
       120.       3.05      1.934     0.0755
       120.       3.15      2.117     0.0787
       120.       3.25      3.039     0.0836
       120.       3.35      4.274     0.0940
       120.       3.45      5.700     0.1049
       120.       3.55      6.462     0.1043
       120.       3.65      3.468     0.0841
       120.       3.75      1.159     0.0627
       120.       3.85      0.770     0.0555
       120.       3.95      0.538     0.0532
       120.       4.05      0.471     0.0492
       120.       4.15      0.417     0.0471
       120.       4.25      0.265     0.0451
       120.       4.35      0.307     0.0433
       120.       4.45      0.251     0.0425
       120.       4.55      0.242     0.0425
       120.       4.65      0.215     0.0420
       120.       4.75      0.288     0.0427
       120.       4.85      0.248     0.0412
       120.       4.95      0.540     0.0443
       120.       5.05      0.840     0.0479
       120.       5.15      1.345     0.0563
       120.       5.25      2.006     0.0623
       120.       5.35      2.264     0.0675
       120.       5.45      2.564     0.0710
       120.       5.55      2.447     0.0724
       120.       5.65      1.537     0.0613
       120.       5.75      0.623     0.0478
       120.       5.85      0.159     0.0359
       120.       5.95      0.117     0.0336
       120.       6.05      0.079     0.0302
       120.       6.15      0.051     0.0295
       120.       6.25      0.027     0.0283
       120.       6.35      0.009     0.0267
       120.       6.45      0.011     0.0275
       120.       6.55      0.013     0.0263
ENDDATA            423
ENDSUBENT          435
SUBENT        E2129003   20150520   20150701   20150625       E097
BIB                  4          7
REACTION   (4-BE-9(D,X)0-NN-1,,DA/DE)
EN-SEC     ANG is polar angle (lab.) between beam and neutron
           (E,N)
STATUS     (TABLE) Data (Fig.8, p693 of reference) sent by e-mail
                   from Y.Iwamoto (2009.01.06)
HISTORY    (20150520A) MA: ERR-T -> ERR-S, numerical data
                       replaced
ENDBIB               7
NOCOMMON             0          0
DATA                 4        812
ANG        E          DATA       ERR-S
ADEG       MEV        MB/SR/MEV  MB/SR/MEV
        15.       1.85     21.408     0.0234
        15.       1.95     19.178     0.0216
        15.       2.05     17.588     0.0202
        15.       2.15     16.886     0.0192
        15.       2.25     15.884     0.0185
        15.       2.35     15.083     0.0178
        15.       2.45     14.703     0.0173
        15.       2.55     14.571     0.0172
        15.       2.65     14.085     0.0168
        15.       2.75     14.472     0.0169
        15.       2.85     14.161     0.0167
        15.       2.95     13.881     0.0167
        15.       3.05     12.582     0.0156
        15.       3.15     11.959     0.0153
        15.       3.25     11.164     0.0148
        15.       3.35     10.636     0.0145
        15.       3.45     10.259     0.0144
        15.       3.55     10.269     0.0143
        15.       3.65     10.702     0.0146
        15.       3.75     11.989     0.0154
        15.       3.85     13.782     0.0164
        15.       3.95     14.653     0.0168
        15.       4.05     14.396     0.0167
        15.       4.15     13.416     0.0162
        15.       4.25     11.846     0.0154
        15.       4.35     10.290     0.0144
        15.       4.45      9.180     0.0136
        15.       4.55      8.445     0.0132
        15.       4.65      8.465     0.0132
        15.       4.75      8.478     0.0132
        15.       4.85      8.673     0.0134
        15.       4.95      8.900     0.0136
        15.       5.05      9.530     0.0141
        15.       5.15      9.638     0.0141
        15.       5.25      9.581     0.0142
        15.       5.35      9.688     0.0144
        15.       5.45      9.308     0.0140
        15.       5.55      8.624     0.0137
        15.       5.65      7.764     0.0130
        15.       5.75      7.467     0.0129
        15.       5.85      7.126     0.0127
        15.       5.95      7.098     0.0127
        15.       6.05      7.280     0.0128
        15.       6.15      7.438     0.0130
        15.       6.25      8.067     0.0137
        15.       6.35      8.662     0.0141
        15.       6.45      8.582     0.0140
        15.       6.55      9.356     0.0147
        15.       6.65      9.908     0.0150
        15.       6.75     10.384     0.0154
        15.       6.85     10.394     0.0155
        15.       6.95     10.423     0.0156
        15.       7.05     10.103     0.0154
        15.       7.15      9.056     0.0147
        15.       7.25      8.396     0.0141
        15.       7.35      7.708     0.0136
        15.       7.45      6.900     0.0131
        15.       7.55      6.988     0.0131
        15.       7.65      6.327     0.0126
        15.       7.75      5.749     0.0122
        15.       7.85      5.075     0.0115
        15.       7.95      4.516     0.0109
        15.       8.05      4.079     0.0104
        15.       8.15      3.468     0.0097
        15.       8.25      2.917     0.0089
        15.       8.35      2.490     0.0084
        15.       8.45      2.113     0.0077
        15.       8.55      1.924     0.0075
        15.       8.65      1.575     0.0069
        15.       8.75      1.418     0.0067
        15.       8.85      1.137     0.0061
        15.       8.95      1.049     0.0060
        15.       9.05      0.878     0.0056
        15.       9.15      0.678     0.0053
        15.       9.25      0.778     0.0053
        15.       9.35      0.710     0.0053
        15.       9.45      0.582     0.0051
        15.       9.55      0.688     0.0052
        15.       9.65      0.712     0.0053
        15.       9.75      0.604     0.0051
        15.       9.85      0.725     0.0052
        15.       9.95      0.742     0.0052
        15.      10.05      0.773     0.0054
        15.      10.15      0.798     0.0055
        15.      10.25      0.943     0.0057
        15.      10.35      1.019     0.0061
        15.      10.45      1.122     0.0063
        15.      10.55      1.255     0.0065
        15.      10.65      1.282     0.0066
        15.      10.75      1.335     0.0067
        15.      10.85      1.513     0.0069
        15.      10.95      1.594     0.0072
        15.      11.05      1.630     0.0073
        15.      11.15      1.886     0.0078
        15.      11.25      1.974     0.0080
        15.      11.35      1.976     0.0081
        15.      11.45      2.260     0.0085
        15.      11.55      2.404     0.0088
        15.      11.65      2.635     0.0092
        15.      11.75      2.833     0.0096
        15.      11.85      3.010     0.0098
        15.      11.95      3.192     0.0101
        15.      12.05      3.318     0.0102
        15.      12.15      3.246     0.0102
        15.      12.25      3.443     0.0105
        15.      12.35      3.240     0.0102
        15.      12.45      3.141     0.0100
        15.      12.55      3.210     0.0101
        15.      12.65      2.984     0.0097
        15.      12.75      3.027     0.0098
        15.      12.85      2.789     0.0095
        15.      12.95      2.816     0.0096
        15.      13.05      2.587     0.0092
        15.      13.15      2.531     0.0092
        15.      13.25      2.552     0.0090
        15.      13.35      2.389     0.0088
        15.      13.45      2.053     0.0083
        15.      13.55      1.977     0.0081
        15.      13.65      1.705     0.0074
        15.      13.75      1.664     0.0074
        15.      13.85      1.390     0.0068
        15.      13.95      1.231     0.0065
        15.      14.05      1.170     0.0063
        15.      14.15      0.979     0.0058
        15.      14.25      0.844     0.0055
        15.      14.35      0.776     0.0053
        15.      14.45      0.658     0.0049
        15.      14.55      0.583     0.0046
        15.      14.65      0.444     0.0044
        15.      14.75      0.381     0.0041
        15.      14.85      0.282     0.0037
        15.      14.95      0.165     0.0033
        15.      15.05      0.218     0.0032
        15.      15.15      0.186     0.0032
        15.      15.25      0.111     0.0027
        15.      15.35      0.090     0.0026
        15.      15.45      0.062     0.0025
        15.      15.55      0.102     0.0024
        15.      15.65      0.027     0.0023
        30.       1.85     16.236     0.0256
        30.       1.95     14.144     0.0232
        30.       2.05     12.853     0.0215
        30.       2.15     11.636     0.0202
        30.       2.25     11.076     0.0194
        30.       2.35     10.882     0.0189
        30.       2.45     10.142     0.0182
        30.       2.55      9.864     0.0179
        30.       2.65     10.077     0.0178
        30.       2.75      9.600     0.0173
        30.       2.85      9.271     0.0171
        30.       2.95      9.120     0.0169
        30.       3.05      8.442     0.0161
        30.       3.15      7.850     0.0156
        30.       3.25      7.195     0.0151
        30.       3.35      7.034     0.0149
        30.       3.45      6.766     0.0146
        30.       3.55      7.366     0.0151
        30.       3.65      7.945     0.0156
        30.       3.75      8.447     0.0161
        30.       3.85      8.125     0.0157
        30.       3.95      7.493     0.0152
        30.       4.05      6.656     0.0144
        30.       4.15      5.696     0.0135
        30.       4.25      5.082     0.0129
        30.       4.35      4.716     0.0124
        30.       4.45      4.422     0.0121
        30.       4.55      4.536     0.0122
        30.       4.65      4.821     0.0126
        30.       4.75      4.855     0.0126
        30.       4.85      4.842     0.0127
        30.       4.95      5.101     0.0129
        30.       5.05      4.538     0.0124
        30.       5.15      4.470     0.0123
        30.       5.25      4.305     0.0122
        30.       5.35      4.085     0.0119
        30.       5.45      3.926     0.0117
        30.       5.55      3.521     0.0112
        30.       5.65      3.636     0.0114
        30.       5.75      3.496     0.0113
        30.       5.85      3.792     0.0117
        30.       5.95      4.518     0.0127
        30.       6.05      4.595     0.0128
        30.       6.15      4.808     0.0132
        30.       6.25      5.430     0.0140
        30.       6.35      5.546     0.0142
        30.       6.45      5.597     0.0141
        30.       6.55      5.632     0.0142
        30.       6.65      5.050     0.0135
        30.       6.75      5.338     0.0138
        30.       6.85      4.824     0.0133
        30.       6.95      4.328     0.0127
        30.       7.05      4.136     0.0124
        30.       7.15      3.505     0.0116
        30.       7.25      3.183     0.0111
        30.       7.35      2.906     0.0108
        30.       7.45      2.733     0.0106
        30.       7.55      2.463     0.0101
        30.       7.65      2.311     0.0098
        30.       7.75      2.012     0.0095
        30.       7.85      1.594     0.0086
        30.       7.95      1.543     0.0083
        30.       8.05      1.212     0.0078
        30.       8.15      0.972     0.0072
        30.       8.25      0.939     0.0070
        30.       8.35      0.974     0.0072
        30.       8.45      0.770     0.0066
        30.       8.55      0.645     0.0061
        30.       8.65      0.494     0.0059
        30.       8.75      0.402     0.0056
        30.       8.85      0.477     0.0057
        30.       8.95      0.439     0.0055
        30.       9.05      0.247     0.0053
        30.       9.15      0.531     0.0058
        30.       9.25      0.447     0.0056
        30.       9.35      0.410     0.0054
        30.       9.45      0.375     0.0057
        30.       9.55      0.444     0.0055
        30.       9.65      0.523     0.0059
        30.       9.75      0.538     0.0058
        30.       9.85      0.554     0.0059
        30.       9.95      0.578     0.0059
        30.      10.05      0.627     0.0060
        30.      10.15      0.523     0.0060
        30.      10.25      0.642     0.0063
        30.      10.35      0.821     0.0069
        30.      10.45      0.708     0.0066
        30.      10.55      0.758     0.0068
        30.      10.65      0.888     0.0071
        30.      10.75      0.994     0.0073
        30.      10.85      1.076     0.0077
        30.      10.95      1.167     0.0079
        30.      11.05      1.265     0.0082
        30.      11.15      1.337     0.0085
        30.      11.25      1.395     0.0085
        30.      11.35      1.441     0.0087
        30.      11.45      1.630     0.0092
        30.      11.55      1.735     0.0095
        30.      11.65      1.852     0.0098
        30.      11.75      2.180     0.0104
        30.      11.85      2.181     0.0105
        30.      11.95      2.090     0.0102
        30.      12.05      2.252     0.0106
        30.      12.15      2.345     0.0107
        30.      12.25      1.947     0.0099
        30.      12.35      1.957     0.0100
        30.      12.45      2.081     0.0102
        30.      12.55      1.713     0.0095
        30.      12.65      1.865     0.0098
        30.      12.75      1.627     0.0091
        30.      12.85      1.642     0.0093
        30.      12.95      1.533     0.0089
        30.      13.05      1.399     0.0085
        30.      13.15      1.524     0.0088
        30.      13.25      1.290     0.0083
        30.      13.35      1.199     0.0079
        30.      13.45      1.056     0.0074
        30.      13.55      0.965     0.0073
        30.      13.65      0.836     0.0068
        30.      13.75      0.701     0.0064
        30.      13.85      0.750     0.0064
        30.      13.95      0.531     0.0059
        30.      14.05      0.436     0.0054
        30.      14.15      0.421     0.0054
        30.      14.25      0.396     0.0049
        30.      14.35      0.193     0.0045
        30.      14.45      0.244     0.0047
        30.      14.55      0.313     0.0045
        30.      14.65      0.134     0.0038
        30.      14.75      0.164     0.0039
        30.      14.85      0.098     0.0034
        30.      14.95      0.084     0.0034
        30.      15.05      0.036     0.0035
        30.      15.15      0.007     0.0032
        30.      15.25      0.009     0.0031
        45.       1.85     16.362     0.0181
        45.       1.95     14.172     0.0164
        45.       2.05     13.079     0.0154
        45.       2.15     12.650     0.0147
        45.       2.25     12.209     0.0143
        45.       2.35     11.047     0.0136
        45.       2.45     11.636     0.0136
        45.       2.55     11.248     0.0133
        45.       2.65     11.163     0.0131
        45.       2.75     10.579     0.0128
        45.       2.85      9.899     0.0124
        45.       2.95      9.451     0.0122
        45.       3.05      8.760     0.0115
        45.       3.15      8.021     0.0111
        45.       3.25      7.988     0.0111
        45.       3.35      7.914     0.0111
        45.       3.45      8.284     0.0114
        45.       3.55      8.632     0.0114
        45.       3.65      7.799     0.0109
        45.       3.75      7.292     0.0106
        45.       3.85      6.303     0.0100
        45.       3.95      5.881     0.0096
        45.       4.05      5.153     0.0091
        45.       4.15      5.095     0.0091
        45.       4.25      5.022     0.0090
        45.       4.35      4.853     0.0089
        45.       4.45      4.973     0.0090
        45.       4.55      5.206     0.0091
        45.       4.65      4.880     0.0089
        45.       4.75      4.874     0.0089
        45.       4.85      4.736     0.0087
        45.       4.95      4.443     0.0086
        45.       5.05      4.082     0.0083
        45.       5.15      3.746     0.0081
        45.       5.25      3.640     0.0080
        45.       5.35      3.723     0.0081
        45.       5.45      3.868     0.0081
        45.       5.55      4.225     0.0085
        45.       5.65      4.230     0.0085
        45.       5.75      4.377     0.0087
        45.       5.85      4.634     0.0090
        45.       5.95      4.645     0.0091
        45.       6.05      4.302     0.0087
        45.       6.15      4.595     0.0090
        45.       6.25      4.570     0.0091
        45.       6.35      4.470     0.0090
        45.       6.45      4.085     0.0086
        45.       6.55      3.561     0.0082
        45.       6.65      3.281     0.0079
        45.       6.75      2.861     0.0073
        45.       6.85      2.443     0.0070
        45.       6.95      2.393     0.0069
        45.       7.05      2.228     0.0067
        45.       7.15      2.344     0.0068
        45.       7.25      2.117     0.0065
        45.       7.35      2.030     0.0065
        45.       7.45      1.839     0.0062
        45.       7.55      1.905     0.0063
        45.       7.65      1.587     0.0058
        45.       7.75      1.462     0.0058
        45.       7.85      1.210     0.0054
        45.       7.95      1.061     0.0051
        45.       8.05      0.880     0.0047
        45.       8.15      0.664     0.0043
        45.       8.25      0.634     0.0041
        45.       8.35      0.528     0.0040
        45.       8.45      0.490     0.0038
        45.       8.55      0.464     0.0039
        45.       8.65      0.430     0.0037
        45.       8.75      0.433     0.0038
        45.       8.85      0.430     0.0037
        45.       8.95      0.415     0.0038
        45.       9.05      0.477     0.0038
        45.       9.15      0.267     0.0036
        45.       9.25      0.360     0.0038
        45.       9.35      0.325     0.0037
        45.       9.45      0.363     0.0037
        45.       9.55      0.411     0.0038
        45.       9.65      0.416     0.0039
        45.       9.75      0.418     0.0038
        45.       9.85      0.354     0.0036
        45.       9.95      0.418     0.0038
        45.      10.05      0.417     0.0037
        45.      10.15      0.399     0.0038
        45.      10.25      0.338     0.0037
        45.      10.35      0.528     0.0040
        45.      10.45      0.476     0.0040
        45.      10.55      0.521     0.0040
        45.      10.65      0.533     0.0041
        45.      10.75      0.575     0.0041
        45.      10.85      0.570     0.0043
        45.      10.95      0.689     0.0043
        45.      11.05      0.761     0.0047
        45.      11.15      0.689     0.0045
        45.      11.25      0.900     0.0049
        45.      11.35      0.872     0.0047
        45.      11.45      0.849     0.0050
        45.      11.55      0.951     0.0051
        45.      11.65      0.914     0.0050
        45.      11.75      1.045     0.0053
        45.      11.85      0.919     0.0052
        45.      11.95      1.020     0.0053
        45.      12.05      0.894     0.0051
        45.      12.15      0.847     0.0049
        45.      12.25      0.799     0.0048
        45.      12.35      0.947     0.0050
        45.      12.45      0.830     0.0049
        45.      12.55      0.713     0.0047
        45.      12.65      0.633     0.0044
        45.      12.75      0.646     0.0044
        45.      12.85      0.569     0.0043
        45.      12.95      0.512     0.0041
        45.      13.05      0.486     0.0039
        45.      13.15      0.393     0.0038
        45.      13.25      0.496     0.0038
        45.      13.35      0.358     0.0035
        45.      13.45      0.206     0.0032
        45.      13.55      0.221     0.0032
        45.      13.65      0.314     0.0033
        45.      13.75      0.286     0.0030
        45.      13.85      0.144     0.0026
        45.      13.95      0.117     0.0027
        45.      14.05      0.091     0.0023
        45.      14.15      0.175     0.0025
        45.      14.25      0.144     0.0026
        45.      14.35      0.071     0.0021
        45.      14.45      0.016     0.0023
        45.      14.55      0.092     0.0024
        60.       1.85      9.124     0.0149
        60.       1.95      8.190     0.0136
        60.       2.05      7.595     0.0126
        60.       2.15      7.420     0.0120
        60.       2.25      6.949     0.0116
        60.       2.35      6.285     0.0109
        60.       2.45      5.695     0.0104
        60.       2.55      5.407     0.0101
        60.       2.65      5.221     0.0098
        60.       2.75      4.822     0.0094
        60.       2.85      4.390     0.0090
        60.       2.95      4.358     0.0090
        60.       3.05      4.374     0.0088
        60.       3.15      4.308     0.0088
        60.       3.25      3.986     0.0085
        60.       3.35      3.836     0.0083
        60.       3.45      3.502     0.0080
        60.       3.55      3.200     0.0077
        60.       3.65      2.769     0.0072
        60.       3.75      2.569     0.0070
        60.       3.85      2.603     0.0070
        60.       3.95      2.473     0.0068
        60.       4.05      2.486     0.0069
        60.       4.15      2.496     0.0068
        60.       4.25      2.420     0.0068
        60.       4.35      2.378     0.0066
        60.       4.45      2.289     0.0066
        60.       4.55      2.131     0.0065
        60.       4.65      1.846     0.0062
        60.       4.75      1.915     0.0061
        60.       4.85      1.772     0.0059
        60.       4.95      1.796     0.0059
        60.       5.05      1.786     0.0059
        60.       5.15      1.801     0.0060
        60.       5.25      1.859     0.0060
        60.       5.35      1.888     0.0062
        60.       5.45      1.834     0.0061
        60.       5.55      1.789     0.0061
        60.       5.65      1.757     0.0061
        60.       5.75      1.881     0.0063
        60.       5.85      2.146     0.0065
        60.       5.95      2.133     0.0066
        60.       6.05      1.928     0.0062
        60.       6.15      1.570     0.0058
        60.       6.25      1.484     0.0058
        60.       6.35      1.222     0.0054
        60.       6.45      1.160     0.0051
        60.       6.55      1.071     0.0050
        60.       6.65      0.851     0.0047
        60.       6.75      0.924     0.0047
        60.       6.85      0.872     0.0047
        60.       6.95      0.809     0.0046
        60.       7.05      0.686     0.0044
        60.       7.15      0.698     0.0042
        60.       7.25      0.568     0.0042
        60.       7.35      0.521     0.0040
        60.       7.45      0.447     0.0038
        60.       7.55      0.286     0.0035
        60.       7.65      0.329     0.0034
        60.       7.75      0.363     0.0034
        60.       7.85      0.182     0.0032
        60.       7.95      0.288     0.0033
        60.       8.05      0.239     0.0032
        60.       8.15      0.243     0.0033
        60.       8.25      0.235     0.0033
        60.       8.35      0.236     0.0032
        60.       8.45      0.173     0.0031
        60.       8.55      0.192     0.0032
        60.       8.65      0.147     0.0029
        60.       8.75      0.161     0.0032
        60.       8.85      0.175     0.0031
        60.       8.95      0.239     0.0032
        60.       9.05      0.257     0.0031
        60.       9.15      0.216     0.0033
        60.       9.25      0.293     0.0034
        60.       9.35      0.268     0.0033
        60.       9.45      0.237     0.0035
        60.       9.55      0.331     0.0035
        60.       9.65      0.259     0.0033
        60.       9.75      0.291     0.0035
        60.       9.85      0.335     0.0034
        60.       9.95      0.369     0.0034
        60.      10.05      0.265     0.0033
        60.      10.15      0.300     0.0034
        60.      10.25      0.303     0.0033
        60.      10.35      0.423     0.0037
        60.      10.45      0.309     0.0037
        60.      10.55      0.434     0.0038
        60.      10.65      0.438     0.0038
        60.      10.75      0.445     0.0037
        60.      10.85      0.391     0.0038
        60.      10.95      0.438     0.0038
        60.      11.05      0.608     0.0042
        60.      11.15      0.552     0.0043
        60.      11.25      0.511     0.0042
        60.      11.35      0.495     0.0042
        60.      11.45      0.612     0.0043
        60.      11.55      0.538     0.0041
        60.      11.65      0.519     0.0042
        60.      11.75      0.562     0.0041
        60.      11.85      0.406     0.0039
        60.      11.95      0.402     0.0037
        60.      12.05      0.402     0.0036
        60.      12.15      0.383     0.0036
        60.      12.25      0.390     0.0035
        60.      12.35      0.310     0.0034
        60.      12.45      0.249     0.0032
        60.      12.55      0.221     0.0030
        60.      12.65      0.195     0.0030
        60.      12.75      0.132     0.0027
        60.      12.85      0.135     0.0026
        60.      12.95      0.074     0.0027
        60.      13.05      0.139     0.0027
        60.      13.15      0.101     0.0024
        60.      13.25      0.005     0.0021
        60.      13.35      0.071     0.0021
        60.      13.45      0.090     0.0024
        75.       2.05      7.633     0.0163
        75.       2.15      7.570     0.0159
        75.       2.25      6.617     0.0147
        75.       2.35      6.152     0.0140
        75.       2.45      5.526     0.0133
        75.       2.55      5.256     0.0128
        75.       2.65      4.950     0.0123
        75.       2.75      4.776     0.0121
        75.       2.85      5.061     0.0124
        75.       2.95      4.795     0.0121
        75.       3.05      4.293     0.0114
        75.       3.15      3.820     0.0108
        75.       3.25      3.350     0.0103
        75.       3.35      3.029     0.0098
        75.       3.45      2.929     0.0096
        75.       3.55      2.848     0.0094
        75.       3.65      2.969     0.0096
        75.       3.75      2.933     0.0096
        75.       3.85      2.896     0.0096
        75.       3.95      2.537     0.0090
        75.       4.05      2.396     0.0087
        75.       4.15      2.138     0.0083
        75.       4.25      2.111     0.0083
        75.       4.35      1.827     0.0078
        75.       4.45      1.986     0.0081
        75.       4.55      1.924     0.0079
        75.       4.65      1.984     0.0081
        75.       4.75      2.030     0.0081
        75.       4.85      1.940     0.0080
        75.       4.95      1.913     0.0080
        75.       5.05      1.960     0.0080
        75.       5.15      2.113     0.0083
        75.       5.25      2.369     0.0088
        75.       5.35      2.647     0.0093
        75.       5.45      2.547     0.0092
        75.       5.55      2.133     0.0085
        75.       5.65      2.105     0.0084
        75.       5.75      1.804     0.0079
        75.       5.85      1.439     0.0072
        75.       5.95      1.352     0.0070
        75.       6.05      1.175     0.0066
        75.       6.15      1.189     0.0066
        75.       6.25      1.227     0.0068
        75.       6.35      1.089     0.0065
        75.       6.45      1.018     0.0063
        75.       6.55      1.056     0.0064
        75.       6.65      0.888     0.0059
        75.       6.75      0.865     0.0059
        75.       6.85      0.637     0.0052
        75.       6.95      0.547     0.0048
        75.       7.05      0.401     0.0045
        75.       7.15      0.354     0.0043
        75.       7.25      0.363     0.0042
        75.       7.35      0.374     0.0043
        75.       7.45      0.348     0.0042
        75.       7.55      0.330     0.0041
        75.       7.65      0.267     0.0039
        75.       7.75      0.316     0.0039
        75.       7.85      0.342     0.0043
        75.       7.95      0.287     0.0040
        75.       8.05      0.231     0.0039
        75.       8.15      0.255     0.0037
        75.       8.25      0.259     0.0038
        75.       8.35      0.260     0.0039
        75.       8.45      0.243     0.0039
        75.       8.55      0.328     0.0042
        75.       8.65      0.390     0.0043
        75.       8.75      0.429     0.0045
        75.       8.85      0.331     0.0042
        75.       8.95      0.303     0.0043
        75.       9.05      0.269     0.0041
        75.       9.15      0.488     0.0049
        75.       9.25      0.478     0.0049
        75.       9.35      0.398     0.0047
        75.       9.45      0.467     0.0049
        75.       9.55      0.483     0.0049
        75.       9.65      0.403     0.0047
        75.       9.75      0.554     0.0051
        75.       9.85      0.512     0.0051
        75.       9.95      0.549     0.0052
        75.      10.05      0.586     0.0053
        75.      10.15      0.561     0.0054
        75.      10.25      0.609     0.0054
        75.      10.35      0.605     0.0055
        75.      10.45      0.566     0.0053
        75.      10.55      0.544     0.0053
        75.      10.65      0.519     0.0051
        75.      10.75      0.396     0.0046
        75.      10.85      0.444     0.0047
        75.      10.95      0.390     0.0048
        75.      11.05      0.447     0.0049
        75.      11.15      0.384     0.0046
        75.      11.25      0.325     0.0044
        75.      11.35      0.368     0.0044
        75.      11.45      0.185     0.0038
        75.      11.55      0.256     0.0041
        75.      11.65      0.211     0.0037
        75.      11.75      0.204     0.0036
        75.      11.85      0.163     0.0034
        75.      11.95      0.097     0.0031
        75.      12.05      0.111     0.0032
        75.      12.15      0.126     0.0031
        75.      12.25      0.020     0.0023
        75.      12.35      0.042     0.0028
        75.      12.45      0.042     0.0025
        75.      12.55      0.046     0.0023
        75.      12.65      0.011     0.0022
        75.      12.75      0.034     0.0025
        90.       2.05      4.585     0.0093
        90.       2.15      3.832     0.0085
        90.       2.25      3.548     0.0080
        90.       2.35      3.385     0.0077
        90.       2.45      3.166     0.0074
        90.       2.55      3.240     0.0074
        90.       2.65      2.942     0.0071
        90.       2.75      2.589     0.0067
        90.       2.85      2.253     0.0063
        90.       2.95      2.010     0.0059
        90.       3.05      1.717     0.0056
        90.       3.15      1.745     0.0056
        90.       3.25      1.564     0.0054
        90.       3.35      1.787     0.0056
        90.       3.45      1.726     0.0054
        90.       3.55      1.499     0.0052
        90.       3.65      1.467     0.0050
        90.       3.75      1.313     0.0048
        90.       3.85      1.154     0.0046
        90.       3.95      0.999     0.0044
        90.       4.05      1.013     0.0043
        90.       4.15      0.884     0.0042
        90.       4.25      1.120     0.0045
        90.       4.35      1.000     0.0043
        90.       4.45      1.012     0.0043
        90.       4.55      1.037     0.0045
        90.       4.65      1.024     0.0043
        90.       4.75      1.043     0.0043
        90.       4.85      1.134     0.0045
        90.       4.95      1.172     0.0045
        90.       5.05      1.183     0.0045
        90.       5.15      1.104     0.0044
        90.       5.25      0.929     0.0042
        90.       5.35      0.733     0.0038
        90.       5.45      0.598     0.0036
        90.       5.55      0.596     0.0036
        90.       5.65      0.684     0.0037
        90.       5.75      0.662     0.0037
        90.       5.85      0.728     0.0038
        90.       5.95      0.684     0.0038
        90.       6.05      0.566     0.0036
        90.       6.15      0.668     0.0037
        90.       6.25      0.488     0.0033
        90.       6.35      0.391     0.0032
        90.       6.45      0.381     0.0029
        90.       6.55      0.231     0.0027
        90.       6.65      0.180     0.0026
        90.       6.75      0.156     0.0024
        90.       6.85      0.182     0.0024
        90.       6.95      0.184     0.0025
        90.       7.05      0.213     0.0025
        90.       7.15      0.204     0.0026
        90.       7.25      0.217     0.0026
        90.       7.35      0.198     0.0025
        90.       7.45      0.192     0.0024
        90.       7.55      0.227     0.0024
        90.       7.65      0.111     0.0023
        90.       7.75      0.079     0.0022
        90.       7.85      0.148     0.0024
        90.       7.95      0.166     0.0024
        90.       8.05      0.239     0.0025
        90.       8.15      0.129     0.0024
        90.       8.25      0.093     0.0024
        90.       8.35      0.162     0.0025
        90.       8.45      0.127     0.0024
        90.       8.55      0.151     0.0024
        90.       8.65      0.234     0.0025
        90.       8.75      0.274     0.0027
        90.       8.85      0.133     0.0025
        90.       8.95      0.260     0.0028
        90.       9.05      0.171     0.0025
        90.       9.15      0.288     0.0029
        90.       9.25      0.282     0.0029
        90.       9.35      0.292     0.0029
        90.       9.45      0.279     0.0029
        90.       9.55      0.358     0.0031
        90.       9.65      0.235     0.0028
        90.       9.75      0.277     0.0029
        90.       9.85      0.311     0.0030
        90.       9.95      0.292     0.0029
        90.      10.05      0.245     0.0029
        90.      10.15      0.326     0.0031
        90.      10.25      0.304     0.0029
        90.      10.35      0.263     0.0029
        90.      10.45      0.268     0.0028
        90.      10.55      0.250     0.0027
        90.      10.65      0.146     0.0024
        90.      10.75      0.204     0.0026
        90.      10.85      0.165     0.0025
        90.      10.95      0.176     0.0024
        90.      11.05      0.091     0.0023
        90.      11.15      0.131     0.0022
        90.      11.25      0.026     0.0018
        90.      11.35      0.025     0.0017
        90.      11.45      0.043     0.0018
        90.      11.55      0.021     0.0019
        90.      11.65      0.014     0.0017
        90.      11.75      0.041     0.0018
       120.       2.05      5.901     0.0110
       120.       2.15      5.229     0.0102
       120.       2.25      4.389     0.0093
       120.       2.35      3.722     0.0087
       120.       2.45      3.436     0.0082
       120.       2.55      3.204     0.0080
       120.       2.65      3.031     0.0076
       120.       2.75      3.070     0.0076
       120.       2.85      2.892     0.0075
       120.       2.95      2.900     0.0073
       120.       3.05      2.569     0.0069
       120.       3.15      2.370     0.0067
       120.       3.25      1.956     0.0062
       120.       3.35      1.723     0.0059
       120.       3.45      1.541     0.0058
       120.       3.55      1.647     0.0058
       120.       3.65      1.650     0.0057
       120.       3.75      1.684     0.0058
       120.       3.85      1.810     0.0058
       120.       3.95      1.851     0.0058
       120.       4.05      1.661     0.0056
       120.       4.15      1.851     0.0059
       120.       4.25      2.157     0.0062
       120.       4.35      2.133     0.0062
       120.       4.45      1.899     0.0059
       120.       4.55      1.548     0.0054
       120.       4.65      1.133     0.0049
       120.       4.75      0.780     0.0043
       120.       4.85      0.784     0.0042
       120.       4.95      0.840     0.0043
       120.       5.05      1.019     0.0045
       120.       5.15      1.020     0.0046
       120.       5.25      1.014     0.0046
       120.       5.35      0.922     0.0044
       120.       5.45      0.755     0.0041
       120.       5.55      0.531     0.0036
       120.       5.65      0.439     0.0034
       120.       5.75      0.363     0.0033
       120.       5.85      0.308     0.0031
       120.       5.95      0.285     0.0030
       120.       6.05      0.269     0.0030
       120.       6.15      0.307     0.0031
       120.       6.25      0.421     0.0033
       120.       6.35      0.401     0.0033
       120.       6.45      0.359     0.0032
       120.       6.55      0.286     0.0030
       120.       6.65      0.226     0.0028
       120.       6.75      0.190     0.0029
       120.       6.85      0.239     0.0028
       120.       6.95      0.138     0.0028
       120.       7.05      0.152     0.0027
       120.       7.15      0.228     0.0029
       120.       7.25      0.259     0.0029
       120.       7.35      0.328     0.0031
       120.       7.45      0.284     0.0030
       120.       7.55      0.293     0.0030
       120.       7.65      0.279     0.0030
       120.       7.75      0.332     0.0032
       120.       7.85      0.294     0.0031
       120.       7.95      0.373     0.0033
       120.       8.05      0.301     0.0031
       120.       8.15      0.324     0.0031
       120.       8.25      0.432     0.0033
       120.       8.35      0.479     0.0035
       120.       8.45      0.560     0.0038
       120.       8.55      0.560     0.0037
       120.       8.65      0.592     0.0039
       120.       8.75      0.646     0.0039
       120.       8.85      0.658     0.0040
       120.       8.95      0.690     0.0041
       120.       9.05      0.708     0.0043
       120.       9.15      0.686     0.0041
       120.       9.25      0.639     0.0041
       120.       9.35      0.550     0.0040
       120.       9.45      0.565     0.0040
       120.       9.55      0.370     0.0034
       120.       9.65      0.474     0.0037
       120.       9.75      0.305     0.0032
       120.       9.85      0.346     0.0033
       120.       9.95      0.248     0.0029
       120.      10.05      0.181     0.0028
       120.      10.15      0.203     0.0026
       120.      10.25      0.178     0.0024
       120.      10.35      0.123     0.0022
       120.      10.45      0.025     0.0021
       120.      10.55      0.056     0.0019
       120.      10.65      0.064     0.0019
ENDDATA            814
ENDSUBENT          826
ENDENTRY             3
