ENTRY            F1006   20090424   20090901   20090828       F036
SUBENT        F1006001   20090424   20090901   20090828       F036
BIB                  7         11
TITLE      Study of isobaric analog resonances in 32S nucleus via
           the reactions 31P(p,g)32S, 31P(p,p)31P and
           31P(p,a0)28Si.
AUTHOR     (J.Vernotte,S.Gales,M.Langevin,J.M.Maison)
INSTITUTE  (2FR CSN)
REFERENCE  (J,NP/A,212,493,1973)
FACILITY   (VDG) 4 MV accelerator
ERR-ANALYS (EN-ERR-DIG) Energy digitizing error
           (ERR-DIG)    Data digitizing error
           (DATA-ERR)   Error from the graphic bars
HISTORY    (20090424C)
ENDBIB              11
NOCOMMON             0          0
ENDSUBENT           14
SUBENT        F1006002   20090424   20090901   20090828       F036
BIB                  4          8
REACTION   (15-P-31(P,EL)15-P-31,,DA)
DETECTOR   (SIBAR) Three surface-barrier detectors were used.
SAMPLE     The targets were prepared by phosphorus evaporation in
           vacuum onto carbon backing with the thickness of 15
           mu-g/cm2. The targets (9.0+-0.3 mu-g/cm2 thickness)
           were placed at the center of the reaction chamber 50 cm
           in diameter.
STATUS     (CURVE) Fig.2,3,8-11
ENDBIB               8
COMMON               2          3
EN-ERR-DIG ERR-DIG
KEV        MB/SR
 0.036      0.153
ENDCOMMON            3
DATA                 4        762
ANG-CM     EN         DATA-CM    DATA-ERR
ADEG       KEV        MB/SR      MB/SR
       126. 1.2086E+03      328.2     7.6125
       126. 1.2117E+03     328.55     7.6125
       126. 1.2149E+03     327.86     7.2664
       126. 1.2179E+03     320.26     6.9204
       126. 1.2208E+03     318.87     6.2284
       126.  1.224E+03     320.95     6.9204
       126. 1.2269E+03     320.61     6.5743
       126. 1.2299E+03     310.58     6.9203
       126.  1.233E+03     312.31     6.9204
       126.  1.236E+03     308.51     5.8824
       126. 1.2376E+03      305.4     6.9204
       126.  1.239E+03     302.98     6.5744
       126. 1.2405E+03     302.28     7.2664
       126. 1.2421E+03     295.71     6.9204
       126. 1.2436E+03     291.21     6.9204
       126. 1.2453E+03      283.6     7.9584
       126. 1.2456E+03     275.99     5.5363
       126. 1.2458E+03     270.11     5.1902
       126. 1.2462E+03     263.88     6.5744
       126. 1.2464E+03     260.77     5.1903
       126. 1.2468E+03     260.08     7.2664
       126.  1.247E+03     235.85     5.8824
       126. 1.2473E+03     235.51     5.1903
       126. 1.2477E+03     220.98     5.5364
       126.  1.248E+03     219.94     5.8824
       126. 1.2482E+03     219.25     5.1903
       126. 1.2485E+03     233.09     7.6125
       126. 1.2489E+03     247.62     8.3045
       126. 1.2491E+03     258.35     7.2664
       126. 1.2496E+03     273.23     6.9204
       126.   1.25E+03     290.88     9.6886
       126. 1.2501E+03     302.29     6.9204
       126. 1.2505E+03     302.29     7.6125
       126. 1.2508E+03     311.29     5.8824
       126. 1.2511E+03     313.02     7.9585
       126. 1.2512E+03     314.41     6.2284
       126. 1.2514E+03     316.83     5.5363
       126. 1.2517E+03     316.48     7.2664
       126. 1.2521E+03     311.29     7.2664
       126. 1.2523E+03     313.37     7.9585
       126. 1.2527E+03     313.02     7.2664
       126. 1.2531E+03     317.18     7.6125
       126. 1.2544E+03     315.45     8.3045
       126. 1.2561E+03     317.18     7.2664
       126. 1.2576E+03     311.99     7.6125
       126. 1.2591E+03     311.65     7.9585
       126. 1.2607E+03     309.92     7.2664
       126. 1.2622E+03     308.53     8.6505
       126. 1.2637E+03     310.27     6.9204
       126. 1.2652E+03     308.19     7.2664
       126. 1.2668E+03     306.12     7.9585
       126. 1.2684E+03     305.77     7.6124
       126.   1.27E+03     306.81     7.9585
       126. 1.2715E+03     301.62     7.6125
       126.  1.273E+03     302.66     7.9585
       126. 1.2745E+03     300.93     7.9585
       126. 1.3983E+03     250.33     5.1324
       126. 1.3986E+03     248.45     5.2152
       126.  1.399E+03     246.89     5.1562
       126. 1.3993E+03     246.43     4.6875
       126. 1.3997E+03     251.27     5.1763
       126.    1.4E+03     247.84     5.1824
       126. 1.4003E+03     249.24     4.8437
       126. 1.4006E+03     250.18     4.0625
       126. 1.4009E+03     248.62     4.2561
       126. 1.4013E+03     254.56     4.8328
       126. 1.4016E+03     247.06     5.3622
       126. 1.4019E+03     247.69     4.8541
       126. 1.4022E+03      246.6     5.3125
       126. 1.4025E+03     240.51     5.1725
       126.  1.403E+03     243.79     4.8723
       126. 1.4032E+03     242.54     5.3125
       126. 1.4036E+03     241.14     5.4537
       126. 1.4038E+03      245.2     5.4826
       126. 1.4042E+03      242.7     5.1749
       126. 1.4045E+03     240.68     4.8437
       126. 1.4049E+03     236.15     3.9062
       126. 1.4052E+03     235.05     5.2853
       126. 1.4056E+03     235.06     5.3247
       126. 1.4059E+03     237.71     6.5624
       126. 1.4062E+03     242.72     5.3125
       126. 1.4065E+03     248.03     5.6128
       126. 1.4069E+03     244.44     5.4687
       126. 1.4072E+03     251.47     7.0312
       126. 1.4076E+03     248.97     4.8132
       126. 1.4078E+03     244.76     5.4687
       126. 1.4082E+03     247.42     4.5431
       126. 1.4085E+03     246.64     5.3925
       126. 1.4088E+03     244.14     5.2945
       126. 1.4092E+03      246.8     5.6345
       126. 1.4095E+03     245.86     5.3815
       126. 1.4098E+03     246.96     5.6543
       126. 1.4101E+03     244.46     5.3248
       126. 1.4105E+03     238.84     5.7812
       126. 1.4108E+03     241.96     5.3927
       126. 1.4111E+03     248.37     5.3846
       126. 1.4114E+03     249.31     4.4251
       126. 1.4118E+03     252.75     5.7123
       126. 1.4122E+03     254.47     5.3124
       126. 1.4124E+03     252.28     5.6249
       126. 1.4127E+03     249.32     5.5671
       126. 1.4131E+03     249.79     5.3892
       126. 1.4134E+03     250.88     4.4875
       126. 1.4138E+03     246.82     5.2753
       126. 1.4651E+03     226.76     5.2918
       126. 1.4655E+03     224.74     5.9144
       126. 1.4659E+03     225.98      4.358
       126. 1.4661E+03     222.56     5.6031
       126. 1.4665E+03     223.65     4.8249
       126. 1.4669E+03     225.98     4.6693
       126. 1.4672E+03     223.18     4.9745
       126. 1.4675E+03     224.27     4.9628
       126. 1.4678E+03     224.27     5.4425
       126. 1.4682E+03     225.67     4.9805
       126. 1.4685E+03     224.73     5.4265
       126. 1.4689E+03     224.89     5.2918
       126. 1.4692E+03     223.33     5.4372
       126. 1.4695E+03     221.15     5.2843
       126. 1.4699E+03     222.08     4.6572
       126. 1.4702E+03      225.5     4.9806
       126. 1.4706E+03     226.75     4.8314
       126. 1.4709E+03     226.44     4.9384
       126. 1.4712E+03     224.57     4.9671
       126. 1.4715E+03     223.63     5.7587
       126. 1.4719E+03     213.83     4.6129
       126. 1.4722E+03     209.16     4.5837
       126. 1.4725E+03     212.73      5.623
       126. 1.4729E+03     213.98     4.8358
       126. 1.4733E+03     219.89     5.4162
       126. 1.4736E+03     225.81     5.1362
       126. 1.4739E+03     226.74     5.2918
       126. 1.4742E+03     228.14     4.8351
       126. 1.4746E+03     227.05     4.8475
       126. 1.4749E+03     226.27     4.9348
       126. 1.4753E+03     224.87     4.8165
       126. 1.4755E+03     226.27     4.8532
       126. 1.4759E+03     230.31     5.4621
       126. 1.4762E+03     226.42     5.4178
       126. 1.4766E+03     225.49     5.1362
       126. 1.4768E+03     226.26     4.8531
       126. 1.4772E+03     225.48     5.2918
       126. 1.4775E+03     223.93     5.1362
       126. 1.4779E+03     227.04     5.2918
       126. 1.4782E+03     222.68     5.1473
       126. 1.4785E+03     227.04     5.6031
       126. 1.4788E+03     232.02     5.1594
       126. 1.4791E+03     224.23     4.6285
       126. 1.4795E+03     225.17     5.6031
       126. 1.4799E+03     223.76     4.8532
       126. 1.4802E+03     226.56     5.6129
       126. 1.4957E+03     210.99     2.6432
       126. 1.4975E+03     215.21     2.9075
       126. 1.4991E+03     210.19     2.1145
       126. 1.5009E+03     211.24     2.6128
       126. 1.5025E+03     205.68     2.5637
       126. 1.5041E+03     204.62     2.5842
       126. 1.5058E+03     201.71     2.3789
       126. 1.5075E+03     200.92     2.6183
       126. 1.5092E+03     192.19     2.9149
       126. 1.5109E+03     185.31     2.3789
       126. 1.5125E+03      171.3     2.1253
       126. 1.5143E+03     162.84     2.1348
       126.  1.516E+03     172.62     2.9129
       126. 1.5176E+03     180.01     2.1371
       126. 1.5193E+03     195.87     2.8941
       126.  1.521E+03     199.04     2.7943
       126. 1.5226E+03     209.34     2.8671
       126. 1.5243E+03     207.75     2.6125
       126.  1.526E+03     206.96     2.6283
       126. 1.5276E+03     207.48     2.8763
       126. 1.5293E+03     206.42     2.7941
       126.  1.531E+03     210.91     2.5864
       126. 1.5326E+03     211.44     3.4568
       126. 1.5343E+03       208.     3.3947
       126. 1.5361E+03     206.94     2.6865
       126. 1.5499E+03     206.18     2.9213
       126. 1.5503E+03     204.61     3.1461
       126. 1.5506E+03     204.38     2.8912
       126.  1.551E+03     201.69     2.9145
       126. 1.5513E+03     202.59     2.9081
       126. 1.5516E+03     203.37     2.6547
       126.  1.552E+03     204.61     3.1348
       126. 1.5523E+03     204.72     2.6966
       126. 1.5527E+03     202.36     2.9162
       126.  1.553E+03     202.25     2.6946
       126. 1.5534E+03     202.14     2.9349
       126. 1.5537E+03      200.9     3.0347
       126.  1.554E+03     203.82     3.1523
       126. 1.5544E+03     204.05     3.0241
       126. 1.5547E+03     199.78     3.0258
       126. 1.5551E+03     206.41     2.8732
       126. 1.5554E+03     208.88     2.8052
       126. 1.5558E+03     206.41     2.7941
       126. 1.5561E+03       210.     2.8135
       126. 1.5564E+03     201.01     2.9348
       126. 1.5568E+03     197.87     3.1386
       126. 1.5571E+03     198.88     2.8521
       126. 1.5575E+03     204.16     2.5843
       126. 1.5578E+03     202.48     2.7851
       126. 1.5582E+03     205.51     3.0293
       126. 1.5585E+03     197.08     3.1483
       126. 1.5589E+03     201.58     3.0472
       126. 1.5592E+03     198.77     2.9157
       126. 1.5595E+03      200.9     3.1573
       126. 1.5599E+03      200.9     3.0432
       126. 1.5602E+03     200.12     2.8152
       126. 1.5606E+03     200.79     2.6837
       126. 1.5609E+03     202.59     2.7241
       126.  1.565E+03     197.57     2.7218
       126. 1.5684E+03     202.46     1.0651
       126. 1.5719E+03     194.46     2.9132
       126. 1.5754E+03     194.14     2.8975
       126. 1.5771E+03     189.19     2.3668
       126. 1.5775E+03     193.46     2.6953
       126. 1.5778E+03      189.2     2.9278
       126. 1.5781E+03     190.98     2.6035
       126. 1.5784E+03     193.11     3.0768
       126. 1.5789E+03     188.03     2.6123
       126. 1.5792E+03     192.65     2.7863
       126. 1.5796E+03     193.95     3.0694
       126.   1.58E+03     195.02     2.6127
       126. 1.5802E+03     186.98     2.4852
       126. 1.5807E+03     186.39     2.9348
       126. 1.5809E+03      190.3     2.9561
       126. 1.5812E+03     188.41     3.3135
       126. 1.5818E+03     188.89     3.4319
       126.  1.582E+03      185.7     2.8756
       126. 1.5824E+03      181.8     2.8401
       126. 1.5827E+03     181.09     2.4851
       126.  1.583E+03     181.45     3.1952
       126. 1.5834E+03     180.63     3.0693
       126. 1.5837E+03     180.39     3.1952
       126.  1.584E+03     180.63     3.0757
       126. 1.5845E+03     180.99     3.0531
       126. 1.5848E+03     182.42     2.7143
       126. 1.5851E+03     180.76     2.4638
       126. 1.5855E+03     176.75     3.0691
       126. 1.5857E+03     178.88     3.1847
       126. 1.5861E+03     177.46     3.0684
       126. 1.5865E+03     181.73     2.6817
       126. 1.5868E+03     183.74     2.9136
       126. 1.5872E+03     183.87     3.0685
       126. 1.5875E+03     183.04     2.6842
       126. 1.5893E+03     188.15     3.1952
       126.  1.591E+03     185.21     2.7941
       126. 1.5927E+03      190.2     3.0698
       126. 1.5944E+03     190.81     2.8317
       126. 1.5961E+03     192.73     2.7218
       126. 1.5978E+03      194.4     3.3135
       126. 1.5996E+03     193.12     2.9362
       126. 1.6014E+03     195.28     2.9273
       126.  1.603E+03     194.35     3.0693
       126. 1.6048E+03     188.21     2.5964
       126. 1.6065E+03     193.32     2.6981
       136. 1.2085E+03     270.55     6.8493
       136. 1.2118E+03     271.92     7.1918
       136. 1.2147E+03     268.84     5.4795
       136. 1.2178E+03     267.47     6.5069
       136. 1.2207E+03     267.47     5.8219
       136. 1.2238E+03     265.42     6.1644
       136. 1.2269E+03     263.71     5.4795
       136. 1.2299E+03     260.97     6.5069
       136. 1.2329E+03     257.21     7.1918
       136. 1.2361E+03     251.39     4.7945
       136. 1.2377E+03     248.99     6.1644
       136. 1.2391E+03     240.09     5.8219
       136. 1.2406E+03      239.4     5.8219
       136. 1.2422E+03     236.32      5.137
       136. 1.2436E+03     229.47     5.1369
       136. 1.2453E+03     209.27     6.1644
       136. 1.2456E+03     205.16     5.8219
       136. 1.2459E+03     194.88     6.1644
       136. 1.2462E+03      191.8      5.137
       136. 1.2464E+03     187.69     3.4247
       136. 1.2466E+03     183.58     4.7945
       136.  1.247E+03     166.12      5.137
       136. 1.2473E+03     163.03     4.7945
       136. 1.2475E+03      157.9     4.4521
       136. 1.2477E+03      155.5     4.4521
       136.  1.248E+03     163.04      5.137
       136. 1.2481E+03     170.91     5.8219
       136. 1.2485E+03     192.49     5.8219
       136.  1.249E+03     219.54     6.5069
       136. 1.2491E+03     229.47     4.4521
       136. 1.2495E+03     246.94     6.1644
       136. 1.2497E+03      266.8     6.1644
       136. 1.2504E+03     277.42     6.1644
       136. 1.2507E+03     283.58     4.1096
       136. 1.2511E+03     282.21     4.4521
       136. 1.2514E+03     285.98     5.8219
       136. 1.2517E+03     285.64     6.5069
       136. 1.2521E+03     280.85     7.5342
       136. 1.2524E+03     281.87     4.7945
       136. 1.2528E+03     280.16     6.5069
       136. 1.2531E+03     279.48     6.1644
       136. 1.2544E+03     273.31     5.8219
       136.  1.256E+03     271.26     4.7945
       136. 1.2575E+03     270.92     6.1644
       136. 1.2591E+03      262.7     5.8219
       136. 1.2607E+03     262.36     5.8219
       136. 1.2623E+03     266.47     5.4794
       136. 1.2637E+03     259.62     5.4794
       136. 1.2652E+03     263.04     5.4795
       136. 1.2669E+03     256.54     5.4795
       136. 1.2684E+03     262.36     6.1644
       136.   1.27E+03     257.57     6.5069
       136. 1.2716E+03     254.49     5.8219
       136.  1.273E+03     258.25     6.1644
       136. 1.2746E+03     253.46     6.5068
       136. 1.3983E+03     205.64     4.2187
       136. 1.3986E+03     206.73     4.1625
       136.  1.399E+03     210.17     4.2532
       136. 1.3993E+03     204.71     4.1625
       136. 1.3996E+03     206.58     4.5312
       136.    1.4E+03     211.43     3.5937
       136. 1.4003E+03     206.43     4.2842
       136. 1.4006E+03     208.62     4.3641
       136. 1.4009E+03     207.53     4.4127
       136. 1.4013E+03     206.44     4.3845
       136. 1.4016E+03     209.09     4.3215
       136. 1.4019E+03     205.97     4.3245
       136. 1.4022E+03      204.1     4.7832
       136. 1.4026E+03     202.23     4.4621
       136. 1.4029E+03     203.95     4.3342
       136. 1.4033E+03     203.95     4.2639
       136. 1.4037E+03     203.01     4.6875
       136. 1.4039E+03     203.01     4.2583
       136. 1.4042E+03     201.77     4.3463
       136. 1.4046E+03     203.64     4.5247
       136. 1.4049E+03     193.02     4.3945
       136. 1.4052E+03     190.52     4.4362
       136. 1.4056E+03     191.77     4.3546
       136. 1.4059E+03     193.96     4.4681
       136. 1.4061E+03     201.62     4.3923
       136. 1.4065E+03     208.65     5.1267
       136. 1.4069E+03     210.84     4.2188
       136. 1.4072E+03      209.6     3.9062
       136. 1.4075E+03     211.32     4.2367
       136. 1.4079E+03     205.54     4.2381
       136. 1.4082E+03     210.38      4.356
       136. 1.4085E+03     207.88     4.4892
       136. 1.4088E+03     210.39     4.3761
       136. 1.4091E+03     207.73     4.5312
       136. 1.4094E+03     207.89     4.1935
       136. 1.4098E+03     206.49     4.5313
       136. 1.4101E+03     203.36     4.6915
       136. 1.4104E+03     200.55     4.6521
       136. 1.4107E+03     207.43     4.2718
       136. 1.4111E+03     210.71     4.2934
       136. 1.4114E+03     213.21     4.3163
       136. 1.4117E+03     213.21     3.9062
       136. 1.4121E+03     208.53     2.9153
       136. 1.4124E+03     209.78     4.4371
       136. 1.4127E+03     206.97     4.5248
       136.  1.413E+03     209.32     4.3967
       136. 1.4133E+03     208.85     4.4157
       136. 1.4137E+03     207.44     4.6248
       136. 1.4651E+03     189.37     4.0625
       136. 1.4655E+03     187.96     4.2188
       136. 1.4658E+03     188.12     3.5938
       136. 1.4661E+03     186.87     3.9062
       136. 1.4665E+03     186.55     4.5642
       136. 1.4668E+03     191.39     3.9136
       136. 1.4672E+03     186.71     4.5312
       136. 1.4675E+03     187.02      4.375
       136. 1.4678E+03     185.61     4.0817
       136. 1.4682E+03     189.05     4.2317
       136. 1.4685E+03     187.95     4.0738
       136. 1.4689E+03     187.48       3.75
       136. 1.4692E+03     185.92     4.2356
       136. 1.4695E+03     184.51     4.3623
       136. 1.4699E+03     187.64     4.3571
       136. 1.4702E+03     178.57     4.2437
       136. 1.4705E+03     190.13     4.3692
       136. 1.4709E+03     186.69     3.9148
       136. 1.4712E+03     185.29     4.5312
       136. 1.4715E+03      180.6     4.2435
       136. 1.4719E+03     176.69      3.125
       136. 1.4722E+03     172.32      4.375
       136. 1.4726E+03     172.16     3.9265
       136. 1.4729E+03     184.03     4.2347
       136. 1.4733E+03     190.75     4.6731
       136. 1.4735E+03     194.66     4.0589
       136. 1.4739E+03     193.56     4.0496
       136. 1.4743E+03     193.87     4.3863
       136. 1.4746E+03     192.93     4.5459
       136. 1.4748E+03     194.65     4.2248
       136. 1.4752E+03     191.52     4.0541
       136. 1.4755E+03     188.87     4.2397
       136. 1.4759E+03     190.12     3.9247
       136. 1.4762E+03      190.9     4.2541
       136. 1.4765E+03     189.33     4.3648
       136. 1.4769E+03     190.58     4.0782
       136. 1.4773E+03     186.21     4.2576
       136. 1.4776E+03     191.99     4.5435
       136. 1.4779E+03     187.14      4.364
       136. 1.4782E+03     186.36     4.8327
       136. 1.4785E+03     184.64     4.5639
       136. 1.4788E+03     187.61     4.0735
       136. 1.4793E+03     186.82     4.5158
       136. 1.4796E+03     187.76     4.2439
       136.   1.48E+03      186.2     4.5641
       136. 1.4803E+03     184.48     4.2537
       136. 1.4958E+03     175.28     2.6087
       136. 1.4974E+03     176.84     3.1304
       136. 1.4991E+03     173.45     2.8696
       136. 1.5008E+03     172.14     3.3913
       136. 1.5025E+03     167.44     3.1321
       136. 1.5042E+03     167.44     2.6347
       136. 1.5059E+03     161.44     3.6128
       136. 1.5075E+03     159.09     2.3478
       136. 1.5092E+03     153.08     2.5983
       136. 1.5108E+03     142.12     2.8117
       136. 1.5125E+03     126.99     2.6129
       136. 1.5143E+03     124.64     2.5943
       136. 1.5159E+03     136.12     2.3721
       136. 1.5175E+03      150.2     2.5846
       136. 1.5192E+03     167.41     2.5794
       136. 1.5209E+03      170.8     3.1293
       136. 1.5226E+03     174.97     2.8347
       136. 1.5242E+03     174.19     3.5674
       136. 1.5259E+03     177.58     3.2146
       136. 1.5276E+03     173.14     2.6457
       136. 1.5293E+03     178.61     3.2164
       136. 1.5309E+03     177.05     2.7845
       136. 1.5326E+03     174.96     2.5961
       136. 1.5343E+03      177.3     2.7945
       136. 1.5359E+03     174.17     3.1162
       136. 1.5499E+03     171.38     2.5414
       136. 1.5503E+03     172.15     2.6519
       136. 1.5506E+03     169.28     2.4309
       136.  1.551E+03     171.05     2.3205
       136. 1.5513E+03     172.15     2.3124
       136. 1.5516E+03     173.92     2.6431
       136.  1.552E+03     171.27     2.2905
       136. 1.5523E+03     169.83     2.3843
       136. 1.5527E+03     170.93     2.4251
       136.  1.553E+03     169.17     2.4952
       136. 1.5534E+03     169.28     2.3148
       136. 1.5537E+03     172.59       2.21
       136.  1.554E+03     168.94     2.4918
       136. 1.5544E+03     169.61     2.0925
       136. 1.5547E+03     169.16     2.2148
       136.  1.555E+03     170.93     2.2356
       136. 1.5554E+03     172.04     2.3109
       136. 1.5557E+03     173.36     2.3462
       136. 1.5561E+03      173.8     2.5123
       136. 1.5564E+03     171.48     2.5048
       136. 1.5568E+03     169.27     2.4309
       136. 1.5571E+03      167.5      1.989
       136. 1.5574E+03     170.71     2.4155
       136. 1.5578E+03     168.83     2.4284
       136. 1.5582E+03     167.17     2.5329
       136. 1.5585E+03     172.58     2.5612
       136. 1.5589E+03     164.74     2.3047
       136. 1.5592E+03     170.82     2.0879
       136. 1.5595E+03     168.83     2.9834
       136. 1.5599E+03     164.07     2.3152
       136. 1.5602E+03     167.94     2.3046
       136. 1.5606E+03     168.49     2.5248
       136. 1.5609E+03     168.27     2.3456
       136.  1.565E+03     162.52     2.9412
       136. 1.5685E+03     164.43     2.8235
       136. 1.5719E+03     158.35     2.8913
       136. 1.5754E+03     159.09     2.7059
       136. 1.5771E+03     159.81      2.353
       136. 1.5775E+03     157.34     2.4706
       136. 1.5779E+03     155.11     2.3428
       136. 1.5782E+03     153.94     2.4706
       136. 1.5785E+03     159.94     2.3621
       136. 1.5789E+03     153.24     2.4936
       136. 1.5794E+03     153.83     2.4863
       136. 1.5796E+03      153.6     2.4951
       136. 1.5799E+03     152.19     2.7982
       136. 1.5803E+03     153.96     2.4965
       136. 1.5808E+03     151.38     3.1765
       136.  1.581E+03     152.79     2.4706
       136. 1.5813E+03     150.91     2.9412
       136. 1.5817E+03     148.56     2.8143
       136.  1.582E+03     152.09     2.5362
       136. 1.5823E+03     148.22     2.7912
       136. 1.5827E+03     147.16     2.1176
       136. 1.5831E+03     144.46     2.2353
       136. 1.5834E+03      146.7     2.8048
       136. 1.5837E+03      142.7     2.4706
       136.  1.584E+03     144.11     2.3529
       136. 1.5845E+03     142.94     2.4531
       136. 1.5848E+03     143.89     2.3875
       136. 1.5852E+03     144.01     2.1304
       136. 1.5855E+03     144.72     2.4986
       136. 1.5858E+03      144.6     2.2145
       136. 1.5861E+03     144.72     2.2071
       136. 1.5865E+03     150.49     2.3984
       136. 1.5868E+03     151.55     2.7059
       136. 1.5871E+03     150.73      2.353
       136. 1.5876E+03     152.62     2.6904
       136. 1.5893E+03      158.4     2.8035
       136.  1.591E+03     160.06     2.7863
       136. 1.5927E+03     161.38     2.2012
       136. 1.5943E+03     162.33     2.9321
       136. 1.5961E+03     164.35     2.4982
       136. 1.5977E+03     164.13     2.6945
       136. 1.5996E+03     163.21     2.4321
       136. 1.6013E+03     166.05     2.6984
       136. 1.6031E+03     165.24     2.5437
       136. 1.6047E+03     161.73     2.8451
       136. 1.6065E+03     161.51     2.2734
       161. 1.2086E+03     206.73     8.0537
       161. 1.2118E+03     205.39     8.0537
       161. 1.2147E+03     204.73     8.0537
       161. 1.2178E+03     201.39     8.0537
       161. 1.2207E+03     199.39     7.3826
       161. 1.2238E+03     203.43     8.7248
       161. 1.2269E+03     196.73     8.7248
       161. 1.2299E+03      195.4      9.396
       161. 1.2331E+03     189.37     6.0403
       161.  1.236E+03     181.99     5.3691
       161. 1.2375E+03       182.     8.0537
       161.  1.239E+03     176.64     7.3826
       161. 1.2406E+03     168.59     6.7114
       161. 1.2421E+03     160.54     6.0403
       161. 1.2435E+03     147.79     7.3826
       161. 1.2451E+03     129.01     6.7114
       161. 1.2456E+03     120.96     6.7114
       161. 1.2458E+03     108.21     7.3826
       161. 1.2462E+03     104.18     6.0403
       161. 1.2466E+03     98.813     6.0403
       161.  1.247E+03     92.103     3.3557
       161. 1.2471E+03     87.405     6.0403
       161. 1.2473E+03     88.077     6.7114
       161. 1.2477E+03     100.83     6.7114
       161.  1.248E+03     127.01     8.7248
       161. 1.2483E+03     153.85     7.3826
       161. 1.2485E+03     191.44     10.067
       161. 1.2489E+03     235.06      9.396
       161. 1.2492E+03      250.5     5.3691
       161. 1.2496E+03     267.28     8.0537
       161. 1.2498E+03     280.03     9.3957
       161. 1.2501E+03     280.71     7.3826
       161. 1.2502E+03     282.05     6.0403
       161. 1.2506E+03     282.05     7.3825
       161. 1.2508E+03     278.69      4.698
       161.  1.251E+03     276.01      4.698
       161. 1.2513E+03     268.63     6.7114
       161. 1.2515E+03     266.62     4.0268
       161. 1.2517E+03     265.95     7.3825
       161. 1.2521E+03     265.28     6.7114
       161. 1.2525E+03     261.92     5.3691
       161. 1.2529E+03     256.55     8.7248
       161.  1.253E+03     251.19     6.0403
       161. 1.2544E+03     243.14     7.3826
       161.  1.256E+03     231.73     7.3826
       161. 1.2575E+03     226.37     8.7248
       161.  1.259E+03     220.34     7.3826
       161. 1.2606E+03     219.67     5.3691
       161. 1.2622E+03     217.66      4.698
       161. 1.2637E+03     212.97     7.3826
       161. 1.2653E+03     206.27     8.7248
       161. 1.2669E+03     209.63     8.0537
       161. 1.2684E+03     210.98     6.7114
       161. 1.2701E+03     204.27     10.738
       161. 1.2715E+03      203.6      9.396
       161. 1.2731E+03     207.64     8.0537
       161. 1.2745E+03     200.93     8.7248
       161. 1.3983E+03     158.74     2.8482
       161. 1.3986E+03     159.22     2.7367
       161.  1.399E+03     160.81     2.5397
       161. 1.3993E+03     156.36     3.2154
       161. 1.3997E+03     161.13     3.1415
       161.    1.4E+03     156.21     3.1746
       161. 1.4003E+03     157.32     3.1159
       161. 1.4006E+03     157.96     2.6578
       161.  1.401E+03     157.64     2.6381
       161. 1.4013E+03     157.64     2.8247
       161. 1.4016E+03     160.34     2.8472
       161. 1.4019E+03     162.41     2.8365
       161. 1.4022E+03     164.47     2.5579
       161. 1.4026E+03     159.71     2.8535
       161. 1.4029E+03     161.94     2.6858
       161. 1.4033E+03     158.29     2.7284
       161. 1.4036E+03      156.7     2.6346
       161. 1.4039E+03     153.69     2.5284
       161. 1.4043E+03     147.81     2.4826
       161. 1.4045E+03      150.2     3.4136
       161. 1.4048E+03     145.91     2.6542
       161. 1.4052E+03     138.45     3.4921
       161. 1.4056E+03     143.06     3.5149
       161. 1.4059E+03     156.55     2.6984
       161. 1.4062E+03     168.78     2.8246
       161. 1.4065E+03     168.94     3.3159
       161. 1.4069E+03     167.99     3.1748
       161. 1.4072E+03     168.94     2.6984
       161. 1.4075E+03     164.81     2.5632
       161. 1.4078E+03     162.28     3.4159
       161. 1.4082E+03     160.53     2.5367
       161. 1.4084E+03     159.58     3.1746
       161. 1.4088E+03     160.37     2.5725
       161. 1.4091E+03     160.38     2.5849
       161. 1.4095E+03     161.96     2.5781
       161. 1.4098E+03     162.44      2.381
       161. 1.4101E+03     159.43     2.8327
       161. 1.4104E+03     157.68     3.3162
       161. 1.4108E+03     162.92     2.5483
       161. 1.4111E+03     165.62     2.5648
       161. 1.4114E+03     163.88     3.3162
       161. 1.4117E+03     164.36     2.6984
       161. 1.4121E+03     162.61     3.4128
       161. 1.4124E+03     164.52     3.1746
       161. 1.4127E+03     162.14     2.7349
       161.  1.413E+03     161.19     3.2846
       161. 1.4134E+03     165.32     3.3241
       161. 1.4137E+03      160.4     3.2917
       161. 1.4651E+03     144.28     3.1746
       161. 1.4655E+03     146.82     3.3251
       161. 1.4658E+03     142.53     2.8571
       161. 1.4661E+03     145.55      3.492
       161. 1.4665E+03     145.23     3.1683
       161. 1.4669E+03       143.     3.0159
       161. 1.4671E+03     146.18     3.4853
       161. 1.4675E+03     144.43     3.0238
       161. 1.4679E+03     140.78     2.6984
       161. 1.4682E+03      145.7     3.6508
       161. 1.4685E+03     145.54     3.0265
       161. 1.4689E+03     144.74     3.1831
       161. 1.4692E+03     142.36     3.1593
       161. 1.4695E+03     142.36     3.3148
       161. 1.4698E+03     146.33     3.3085
       161. 1.4702E+03     142.84     2.8439
       161. 1.4705E+03     141.72     3.1698
       161. 1.4709E+03     142.83     3.4692
       161. 1.4712E+03     136.48     3.1803
       161. 1.4715E+03     134.26      3.169
       161. 1.4719E+03     130.77     3.4854
       161. 1.4722E+03     127.59     3.0216
       161. 1.4725E+03     132.83     2.8351
       161. 1.4729E+03     155.05     3.0329
       161. 1.4732E+03     159.65     3.1803
       161. 1.4736E+03     162.19     2.6984
       161. 1.4739E+03     158.38     3.4921
       161. 1.4742E+03     160.13     2.8492
       161. 1.4746E+03     156.32     2.6984
       161. 1.4749E+03     152.98     3.3149
       161. 1.4752E+03     152.03     3.3257
       161. 1.4756E+03     146.79     3.1492
       161. 1.4759E+03      147.1      2.835
       161. 1.4762E+03      147.1     3.4846
       161. 1.4766E+03      147.1     3.6491
       161. 1.4769E+03     143.93     3.1582
       161. 1.4772E+03     149.01     3.8136
       161. 1.4775E+03     146.15      3.516
       161. 1.4779E+03     147.26     3.1684
       161. 1.4782E+03     143.29     3.4831
       161. 1.4785E+03     148.21     3.4639
       161. 1.4788E+03     146.94     3.3219
       161. 1.4792E+03     145.03     3.1495
       161. 1.4796E+03     144.55      3.027
       161. 1.4799E+03     144.71     3.1598
       161. 1.4802E+03     145.03     3.2941
       161. 1.4957E+03      154.8     5.2419
       161. 1.4974E+03     155.61     4.1352
       161. 1.4991E+03     149.15     4.0561
       161. 1.5007E+03     147.94     4.0297
       161. 1.5024E+03     137.85     4.0417
       161.  1.504E+03     133.01     3.2148
       161. 1.5058E+03     128.16     3.6135
       161. 1.5075E+03     114.85     3.2176
       161. 1.5092E+03     105.17     3.5943
       161. 1.5108E+03     87.022     2.8148
       161. 1.5125E+03     72.502     2.4193
       161. 1.5141E+03     76.126     2.8172
       161. 1.5158E+03     108.38     2.8318
       161. 1.5175E+03     137.41     4.0412
       161. 1.5192E+03     166.84     3.1285
       161.  1.521E+03      174.5     4.0459
       161. 1.5226E+03     177.72     4.4157
       161. 1.5242E+03     182.55     4.4244
       161. 1.5259E+03     175.29     4.0291
       161. 1.5275E+03     174.88     4.0462
       161. 1.5292E+03     168.43     3.6125
       161. 1.5309E+03     177.29     3.5931
       161. 1.5326E+03     172.85     4.1263
       161. 1.5343E+03     169.22     4.0563
       161. 1.5359E+03     165.59     4.4217
       161. 1.5498E+03       135.     2.2826
       161. 1.5502E+03     134.67     1.7961
       161. 1.5506E+03     138.15     1.8456
       161.  1.551E+03     134.13     1.8347
       161. 1.5513E+03     135.11     1.9565
       161. 1.5516E+03     136.63     2.1739
       161.  1.552E+03     135.65     1.7941
       161. 1.5523E+03     134.45     1.7865
       161. 1.5527E+03     134.67     1.8153
       161.  1.553E+03     134.78     1.5217
       161. 1.5533E+03      135.1     1.7452
       161. 1.5536E+03     133.58     1.6985
       161.  1.554E+03     133.15     1.9238
       161. 1.5543E+03     134.02     1.7689
       161. 1.5547E+03      133.8     2.3913
       161.  1.555E+03     133.91     1.6971
       161. 1.5553E+03     137.06     1.8258
       161. 1.5558E+03     140.21      1.414
       161. 1.5561E+03      141.3     1.4264
       161. 1.5564E+03     135.86     1.7945
       161. 1.5567E+03     133.36     1.8673
       161. 1.5571E+03      132.6     1.8378
       161. 1.5574E+03     130.54     1.7581
       161. 1.5578E+03     129.56     1.8137
       161. 1.5581E+03     129.23     1.7649
       161. 1.5585E+03     129.99     1.9366
       161. 1.5588E+03     131.08     1.7852
       161. 1.5591E+03     131.08     1.7561
       161. 1.5595E+03     130.86     1.8123
       161. 1.5599E+03     129.34     1.8268
       161. 1.5602E+03     127.92     1.7945
       161. 1.5605E+03     129.99     1.6128
       161. 1.5609E+03     131.08     1.6981
       161. 1.5649E+03     119.54     2.3621
       161. 1.5684E+03     122.29     2.1365
       161. 1.5718E+03     118.54     2.0561
       161. 1.5753E+03     116.57     1.8568
       161.  1.577E+03     114.22     1.7139
       161. 1.5774E+03     112.93     1.8597
       161. 1.5777E+03     111.16     2.0691
       161.  1.578E+03      110.1     1.5145
       161. 1.5783E+03     110.46     2.0284
       161. 1.5787E+03     109.64     1.7124
       161. 1.5792E+03     110.23     1.6962
       161. 1.5795E+03       110.     1.4173
       161. 1.5798E+03     108.82     1.6535
       161. 1.5802E+03     106.11     2.0148
       161. 1.5805E+03     107.29     2.1259
       161. 1.5809E+03     106.23     1.5354
       161. 1.5812E+03     103.76     1.2432
       161. 1.5816E+03     109.78     1.4068
       161. 1.5819E+03     114.98     1.4871
       161. 1.5823E+03     113.45     1.2748
       161. 1.5827E+03     112.04     1.2837
       161.  1.583E+03      103.3     1.1824
       161. 1.5833E+03     103.42      1.063
       161. 1.5836E+03     100.12     1.4954
       161. 1.5841E+03     99.886     1.7516
       161. 1.5844E+03     100.24     1.4231
       161. 1.5847E+03     101.19     1.1723
       161. 1.5851E+03     101.67     1.1689
       161. 1.5854E+03     100.61     1.1578
       161. 1.5858E+03     105.81     1.2145
       161. 1.5861E+03     106.99     1.0584
       161. 1.5864E+03     110.42     2.0126
       161. 1.5868E+03      113.5     1.5147
       161. 1.5871E+03     116.33     1.5973
       161. 1.5874E+03     119.64     1.5741
       161. 1.5892E+03     127.46     2.1271
       161.  1.591E+03     133.74     1.7368
       161. 1.5926E+03     132.81     1.6942
       161. 1.5943E+03     131.76     1.7912
       161.  1.596E+03     135.09     2.1251
       161. 1.5976E+03     134.51     1.8134
       161. 1.5996E+03     129.93     1.7562
       161. 1.6012E+03     134.08     1.5973
       161. 1.6031E+03     126.06     1.7416
       161. 1.6047E+03     123.24     2.0137
       161. 1.6065E+03     129.64     1.8456
ENDDATA            764
ENDSUBENT          781
SUBENT        F1006003   20090424   20090901   20090828       F036
BIB                  4          8
REACTION   (15-P-31(P,EL)15-P-31,,DA)
DETECTOR   (SIBAR) Three surface-barrier detectors were used.
SAMPLE     The targets were prepared by phosphorus evaporation in
           vacuum onto carbon backing with the thickness of 15
           mu-g/cm2. The targets (2.1+-0.1 mu-g/cm2 thickness)
           were placed at the center of the reaction chamber 50 cm
           in diameter.
STATUS     (CURVE) Fig.7
ENDBIB               8
COMMON               2          3
EN-ERR-DIG ERR-DIG
KEV        MB/SR
 0.041      0.118
ENDCOMMON            3
DATA                 4         72
ANG-CM     EN         DATA-CM    DATA-ERR
ADEG       KEV        MB/SR      MB/SR
       126. 1.4323E+03     235.77     5.5493
       126. 1.4326E+03     235.55     5.7805
       126. 1.4330E+03     239.25     5.0729
       126. 1.4333E+03      238.8     4.8516
       126. 1.4336E+03     233.48     4.6231
       126. 1.4340E+03     247.59     4.8536
       126. 1.4343E+03     241.12     5.3181
       126. 1.4346E+03     243.67     3.9308
       126. 1.4350E+03     239.52     4.6318
       126. 1.4353E+03     240.45     4.3932
       126. 1.4357E+03     239.06     5.3181
       126. 1.4360E+03     236.76     4.8457
       126. 1.4363E+03     234.91     4.3932
       126. 1.4367E+03     235.61     5.5132
       126. 1.4370E+03     232.84     4.8327
       126. 1.4373E+03     227.53     4.6156
       126. 1.4377E+03     222.22     4.8172
       126. 1.4380E+03     225.69     5.0261
       126. 1.4383E+03     235.18     4.6543
       126. 1.4387E+03     225.24     4.3562
       126. 1.4390E+03     226.86     5.0685
       126. 1.4393E+03     229.18     4.3248
       126. 1.4397E+03     232.65     4.3845
       126. 1.4400E+03     225.03      4.162
       126. 1.4404E+03     234.28     3.9426
       141. 1.4336E+03     192.26     3.1235
       141. 1.4339E+03     192.49     2.6317
       141. 1.4343E+03     187.16     3.1356
       141. 1.4346E+03     187.82     2.8259
       141. 1.4350E+03     188.72     3.1428
       141. 1.4353E+03     190.05     2.6457
       141. 1.4357E+03     184.72     2.6413
       141. 1.4360E+03     186.28     3.1562
       141. 1.4363E+03     184.95     2.4625
       141. 1.4366E+03     184.95     2.6317
       141. 1.4370E+03     185.84     3.1529
       141. 1.4373E+03     191.85     2.6246
       141. 1.4376E+03     197.41     2.3514
       141. 1.4380E+03     191.19     3.3564
       141. 1.4383E+03     187.86     2.8142
       141. 1.4387E+03     184.08     3.1639
       141. 1.4390E+03     184.53     2.6251
       141. 1.4393E+03     182.75     2.8327
       141. 1.4397E+03     186.53     3.1452
       141. 1.4400E+03      185.2     3.1648
       141. 1.4403E+03     183.43     3.5421
       141. 1.4407E+03     180.99     2.8513
       161. 1.4322E+03     154.31     3.6142
       161. 1.4325E+03     159.98      3.849
       161. 1.4329E+03     160.21     3.1698
       161. 1.4332E+03     153.65     3.3712
       161. 1.4336E+03     155.69     3.3843
       161. 1.4339E+03     159.99     3.1356
       161. 1.4342E+03     163.17     3.3542
       161. 1.4346E+03     160.68     3.6546
       161. 1.4349E+03      159.1     3.3891
       161. 1.4352E+03     164.77     2.9425
       161. 1.4356E+03     160.02     3.1738
       161. 1.4359E+03     154.36     2.4906
       161. 1.4363E+03     157.08     2.9318
       161. 1.4366E+03     155.96     2.9519
       161. 1.4369E+03     164.34     3.1743
       161. 1.4373E+03     182.68     2.9135
       161. 1.4376E+03     202.38     3.8617
       161. 1.4379E+03     177.03     3.3872
       161. 1.4383E+03     166.17     2.9563
       161. 1.4386E+03     155.53     2.9274
       161. 1.4390E+03     156.67     3.3841
       161. 1.4393E+03     150.11     3.3563
       161. 1.4396E+03     152.15     3.1842
       161. 1.4399E+03     153.28     2.9148
       161. 1.4403E+03     153.52     3.3783
ENDDATA             74
ENDSUBENT           91
SUBENT        F1006004   20090424   20090901   20090828       F036
BIB                  4          8
REACTION   (15-P-31(P,A)14-SI-28,PAR,DA,,REL)
DETECTOR   (SIBAR) Three surface-barrier detectors were used.
SAMPLE     The targets were prepared by phosphorus evaporation in
           vacuum onto carbon backing with the thickness of 15
           mu-g/cm2. The targets (9.0+-0.3 mu-g/cm2 thickness)
           were placed at the center of the reaction chamber 50 cm
           in diameter.
STATUS     (CURVE) Fig.3,8,9
ENDBIB               8
COMMON               3          3
E-LVL      EN-ERR-DIG ERR-DIG
MEV        KEV        ARB-UNITS
 0.         0.012      0.775
ENDCOMMON            3
DATA                 4        122
ANG        EN         DATA       DATA-ERR
ADEG       KEV        ARB-UNITS  ARB-UNITS
       124. 1.4957E+03     1.1083    0.45752
       124. 1.4974E+03     1.4347    0.39216
       124. 1.4992E+03     1.6304    0.43278
       124. 1.5006E+03     1.6955    0.42413
       124. 1.5023E+03     2.0873    0.51348
       124. 1.5040E+03     2.7405    0.54283
       124. 1.5058E+03     3.6552    0.44891
       124. 1.5074E+03      4.962    0.56193
       124. 1.5090E+03     7.5761    0.65359
       124. 1.5107E+03     12.086     1.0458
       124. 1.5124E+03     18.098     1.3725
       124. 1.5142E+03     23.719     1.5033
       124. 1.5158E+03     23.457     1.7647
       124. 1.5175E+03     19.862      1.634
       124. 1.5191E+03     11.299     1.1765
       124. 1.5208E+03      8.554    0.76581
       124. 1.5225E+03     5.2203    0.57612
       124. 1.5240E+03     3.9128    0.76749
       124. 1.5258E+03     3.0628    0.64573
       124. 1.5275E+03     2.2781    0.51365
       124. 1.5290E+03     2.1471    0.36831
       124. 1.5308E+03     1.5585    0.37915
       124. 1.5324E+03      1.362    0.29816
       124. 1.5340E+03     1.1003    0.28792
       124. 1.5356E+03      1.296    0.30567
       124. 1.5400E+03    0.90293    0.27984
       160. 1.3983E+03     1.4501
       160. 1.3986E+03     1.4334
       160. 1.3989E+03     4.5647
       160. 1.3993E+03     2.9733
       160. 1.3996E+03     2.9534
       160. 1.4000E+03     1.3619
       160. 1.4003E+03     2.9184
       160. 1.4006E+03     4.4782
       160. 1.4009E+03     1.3103
       160. 1.4013E+03     1.2937
       160. 1.4016E+03     1.2754
       160. 1.4019E+03     68.029
       160. 1.4022E+03      439.7     14.173
       160. 1.4025E+03     447.59     15.748
       160. 1.4029E+03     395.64     15.835
       160. 1.4032E+03     269.67     14.173
       160. 1.4035E+03     101.19     7.6951
       160. 1.4039E+03     85.456     7.8542
       160. 1.4042E+03     44.528     9.4587
       160. 1.4045E+03      46.12
       160. 1.4048E+03     25.662
       160. 1.4051E+03     20.955
       160. 1.4055E+03     17.823
       160. 1.4058E+03     14.692
       160. 1.4062E+03     13.134
       160. 1.4065E+03     3.7019
       160. 1.4068E+03     2.1437
       160. 1.4072E+03    0.98588
       160. 1.4075E+03     2.5424
       160. 1.4078E+03     0.9543
       160. 1.4081E+03     2.5141
       160. 1.4084E+03     4.0739
       160. 1.4086E+03     4.0589
       160. 1.4089E+03     2.4708
       160. 1.4092E+03     2.4575
       160. 1.4095E+03     4.0157
       160. 1.4097E+03     4.0024
       160. 1.4101E+03      2.411
       160. 1.4104E+03     2.3943
       160. 1.4107E+03     3.9525
       160. 1.4110E+03      2.361
       160. 1.4114E+03     2.3427
       160. 1.4117E+03     2.3278
       160. 1.4120E+03     3.8843
       160. 1.4123E+03     2.2962
       160. 1.4125E+03     2.2812
       160. 1.4129E+03     2.2645
       160. 1.4132E+03     2.2446
       160. 1.4136E+03     2.2263
       160. 1.4651E+03 4.3791E-02
       160. 1.4655E+03     4.6907
       160. 1.4659E+03     1.5213
       160. 1.4662E+03     6.2578
       160. 1.4665E+03     4.6695
       160. 1.4669E+03     4.6622
       160. 1.4672E+03     7.8176
       160. 1.4675E+03     10.973
       160. 1.4678E+03     15.709
       160. 1.4682E+03     6.2167
       160. 1.4685E+03     40.991
       160. 1.4688E+03     93.159     11.067
       160. 1.4692E+03     254.42     20.553
       160. 1.4695E+03     303.42     12.648
       160. 1.4699E+03     271.79     14.229
       160. 1.4702E+03     123.17     9.4561
       160. 1.4705E+03     121.58     11.145
       160. 1.4709E+03      83.63     9.4328
       160. 1.4712E+03     42.517
       160. 1.4715E+03     29.862
       160. 1.4718E+03     15.626
       160. 1.4722E+03     18.781
       160. 1.4725E+03     18.774
       160. 1.4728E+03     6.1192
       160. 1.4732E+03     2.9492
       160. 1.4736E+03     1.3608
       160. 1.4739E+03     9.2594
       160. 1.4742E+03     53.521
       160. 1.4745E+03     127.82     12.584
       160. 1.4749E+03     371.29     14.137
       160. 1.4752E+03      336.5      15.81
       160. 1.4755E+03     257.45
       160. 1.4755E+03     271.68
       160. 1.4759E+03     176.81     17.391
       160. 1.4762E+03     132.53     9.4182
       160. 1.4765E+03     47.149
       160. 1.4769E+03     37.655
       160. 1.4772E+03     21.838
       160. 1.4775E+03     26.574
       160. 1.4779E+03     13.919
       160. 1.4783E+03     4.4248
       160. 1.4785E+03     13.906
       160. 1.4788E+03      15.48
       160. 1.4792E+03     4.4049
       160. 1.4795E+03     2.8179
       160. 1.4798E+03     4.3916
       160. 1.4802E+03     1.2216
ENDDATA            124
ENDSUBENT          141
SUBENT        F1006005   20090424   20090901   20090828       F036
BIB                  5         10
REACTION   (15-P-31(P,G)16-S-32,,MLT,,REL)
DETECTOR   (NAICR) The NaI(Tl) detectors 12.7 cm x 12.7 cm and
           3.8 cm x 3.8 cm were used for gamma rays measurements.
           (GELI)
SAMPLE     The targets were prepared by phosphorus evaporation in
           vacuum onto tangsten backing. Target thickness was
           11 and 23 mu-g/cm2 for the energies Ep<1.4 MeV and
           Ep>1.4 MeV, respectively.
METHOD     (GSPEC)
STATUS     (CURVE) Fig.2,3,7,8,10,11
ENDBIB              10
COMMON               2          3
EN-ERR-DIG ERR-DIG
KEV        ARB-UNITS
 0.099       3.959
ENDCOMMON            3
DATA                 3        251
EN         DATA       DATA-ERR
KEV        ARB-UNITS  ARB-UNITS
 1.2095E+03     99.275
 1.2125E+03     121.08     19.996
 1.2156E+03     92.855
 1.2184E+03     118.09
 1.2213E+03     116.63
 1.2244E+03     111.74
 1.2276E+03     93.479
 1.2305E+03     102.02
 1.2337E+03     100.42
 1.2364E+03     89.034      13.33
 1.2378E+03     101.65
 1.2394E+03     110.87
  1.241E+03     103.39
 1.2424E+03     102.68     19.962
 1.2438E+03     115.29
 1.2453E+03     124.55
 1.2462E+03     180.79
 1.2464E+03     213.98
 1.2468E+03      283.8
 1.2471E+03     316.99     16.663
 1.2473E+03     453.52      13.33
 1.2476E+03     513.34     9.9979
 1.2479E+03     719.86
 1.2481E+03     843.06     16.663
 1.2484E+03     796.27     19.996
 1.2488E+03     836.06
  1.249E+03     769.27
 1.2494E+03     705.78
 1.2496E+03     642.33     19.996
   1.25E+03     478.83      13.33
 1.2503E+03     372.01      13.33
 1.2506E+03     395.21     19.996
 1.2509E+03     291.73
 1.2512E+03     251.57
 1.2515E+03     264.76     19.996
 1.2518E+03     234.63
  1.252E+03     191.17     10.032
 1.2528E+03     167.47
  1.253E+03     154.04
 1.2546E+03      123.2
 1.2561E+03     102.45
 1.2576E+03      111.7
 1.2592E+03      97.56
 1.2608E+03     93.446
 1.2622E+03     96.066
 1.2639E+03     111.88
 1.2653E+03     101.14
 1.2669E+03     73.695     13.364
 1.2685E+03     82.879
 1.2702E+03      82.03
 1.2715E+03     74.686
  1.273E+03     83.972
 1.2746E+03     73.125
 1.3983E+03     73.622     15.699
 1.3986E+03     88.919     15.788
 1.3989E+03     101.07     18.892
 1.3993E+03     147.81      25.19
 1.3996E+03     285.86     21.996
 1.3999E+03     323.24     18.937
 1.4003E+03     322.75     18.848
 1.4006E+03     240.44     18.892
  1.401E+03     164.29     22.041
 1.4013E+03     148.14     15.788
 1.4016E+03     109.87     18.937
 1.4019E+03     238.56     22.041
 1.4022E+03     685.41     15.743
 1.4026E+03     688.02     31.442
 1.4028E+03     615.25     28.383
 1.4032E+03     403.75     31.487
 1.4036E+03     239.43     18.803
 1.4039E+03     210.65      25.19
 1.4042E+03     144.04     15.743
 1.4045E+03     137.38     25.234
 1.4048E+03     146.34     15.743
  1.405E+03     123.98     18.848
 1.4054E+03     151.79     18.937
 1.4058E+03      163.8     12.639
 1.4062E+03     131.82     21.996
 1.4065E+03     118.78     18.892
 1.4068E+03     112.08     15.788
 1.4072E+03     95.803     15.743
 1.4075E+03     92.252     12.595
 1.4078E+03     98.103     9.4461
 1.4081E+03     85.106     12.595
 1.4084E+03     78.318      12.55
 1.4086E+03     87.452     12.639
  1.409E+03     71.217     9.4461
 1.4092E+03     64.607     12.595
 1.4094E+03     92.633     12.595
 1.4097E+03     89.082     15.743
 1.4099E+03     139.15     18.937
 1.4103E+03     226.82     12.639
 1.4106E+03     242.12     9.4461
 1.4109E+03     244.82      12.55
 1.4113E+03     187.65     15.743
 1.4117E+03     171.37     21.952
 1.4119E+03     120.68     18.937
 1.4122E+03     95.046     9.4907
 1.4125E+03     75.797     15.833
 1.4129E+03     87.811      12.55
 1.4133E+03     87.276     12.595
 1.4137E+03     83.547      12.55
 1.4322E+03     147.21     18.102
 1.4325E+03     121.67     13.634
 1.4328E+03     168.93     13.634
 1.4332E+03      170.7     13.596
 1.4334E+03     195.27     13.673
 1.4338E+03     174.24     15.945
 1.4342E+03     141.89     15.907
 1.4345E+03     166.46     13.673
 1.4348E+03     195.43     11.362
 1.4352E+03     179.02     13.596
 1.4355E+03     173.97     11.362
 1.4358E+03     178.02      9.128
 1.4362E+03     179.75     13.634
 1.4365E+03     174.78     13.634
 1.4368E+03     365.16     22.762
 1.4372E+03     689.69     36.397
 1.4375E+03 1.0233E+03     34.086
 1.4379E+03     536.32     27.269
 1.4382E+03     456.25     24.958
 1.4385E+03     276.23     20.451
 1.4389E+03     200.67     15.907
 1.4392E+03     177.44     18.141
 1.4396E+03     154.18     11.362
 1.4399E+03     160.53     13.557
 1.4402E+03      182.8     18.141
 1.4651E+03     89.006     6.3486
 1.4655E+03     74.652     4.7614
 1.4659E+03     93.623     7.9231
 1.4661E+03     68.172     6.3549
 1.4665E+03     103.02      11.11
 1.4668E+03     80.737     6.3549
 1.4672E+03       75.9     6.3486
 1.4675E+03     72.663     6.3486
 1.4679E+03     75.768     4.7614
 1.4682E+03     89.989     3.1806
 1.4685E+03     81.997     6.3486
 1.4688E+03     93.038     6.3486
 1.4692E+03      126.3     6.3486
 1.4695E+03     116.71     4.7551
 1.4698E+03     122.99     3.1743
 1.4702E+03     105.46     3.1743
 1.4705E+03     97.466     6.3486
 1.4708E+03     89.468     6.3486
 1.4712E+03     89.398     6.3486
 1.4715E+03     116.32     6.3549
 1.4718E+03     141.64     7.9357
 1.4721E+03     306.65      11.11
 1.4725E+03     379.59     9.5291
 1.4728E+03     328.74      11.11
 1.4732E+03     265.18     9.5229
 1.4735E+03     200.03     9.5166
 1.4738E+03     176.17     7.9294
 1.4742E+03     136.42     7.9357
 1.4745E+03     153.82     9.5229
 1.4748E+03     180.73     6.3486
 1.4752E+03     164.79     4.7614
 1.4755E+03     147.27     6.3549
 1.4758E+03     134.51     6.3486
 1.4762E+03     121.74     4.7614
 1.4764E+03     124.87     6.3549
 1.4768E+03     110.51     9.5291
 1.4772E+03     132.65     6.3486
 1.4774E+03     115.14     6.3423
 1.4778E+03     115.07     6.3549
 1.4782E+03      91.19     6.3486
 1.4784E+03     97.488     6.3486
 1.4788E+03     95.832     4.7677
 1.4791E+03     119.58     9.5292
 1.4794E+03     105.22     6.3486
 1.4798E+03     86.108     6.3486
 1.4801E+03     119.37     6.3549
 1.5499E+03     135.07
 1.5503E+03     126.18
 1.5503E+03     108.78
 1.5506E+03     139.17
  1.551E+03     176.02
 1.5514E+03     162.82
 1.5516E+03     160.53
  1.552E+03     110.28
 1.5523E+03     103.63
 1.5527E+03     127.45
  1.553E+03     138.23     10.893
 1.5533E+03     120.67
 1.5536E+03     129.27
  1.554E+03     137.85
 1.5543E+03     146.42
 1.5546E+03     161.56
  1.555E+03     239.85
 1.5553E+03     834.49     19.608
 1.5556E+03 1.1176E+03     32.679
  1.556E+03 1.2569E+03     26.144
 1.5563E+03 1.2285E+03     30.509
 1.5567E+03 1.0714E+03     32.679
 1.5571E+03     676.95     21.786
 1.5574E+03     448.06     26.152
 1.5578E+03     280.15
 1.5582E+03     234.28
 1.5585E+03     192.76
 1.5587E+03     197.02
 1.5591E+03     162.01
 1.5596E+03     179.26
 1.5598E+03     170.45
 1.5602E+03     163.77
 1.5606E+03      176.7
 1.5609E+03     146.08
 1.5646E+03     71.741     30.987
 1.5681E+03     40.099     19.035
 1.5715E+03     27.272     11.897
  1.575E+03      55.06     14.276
 1.5767E+03     35.505     14.276
 1.5771E+03     33.563     14.331
 1.5775E+03     31.622     14.276
 1.5778E+03     36.709     19.035
  1.578E+03     34.658     14.331
 1.5784E+03      37.42     11.897
  1.579E+03     47.648     9.4628
 1.5795E+03     33.919     9.4628
 1.5798E+03      41.44     14.222
 1.5802E+03     46.582     11.897
 1.5806E+03     82.765      4.704
  1.581E+03     168.91     42.883
 1.5813E+03     545.46     47.642
 1.5818E+03 1.0388E+03     40.504
 1.5821E+03     884.42     35.691
 1.5825E+03     703.86     28.552
 1.5831E+03     245.08     23.794
 1.5834E+03     145.48      19.09
 1.5838E+03     131.69      19.09
 1.5841E+03     101.09     21.414
 1.5844E+03     89.521      19.09
 1.5847E+03     77.952     16.656
 1.5851E+03     71.252     9.5722
 1.5855E+03     71.634     16.601
 1.5858E+03     57.741     14.331
 1.5862E+03     46.282     11.897
 1.5865E+03     51.424     14.222
  1.587E+03     80.468     19.035
 1.5873E+03     52.244     9.5722
 1.5889E+03     46.911     14.222
 1.5906E+03     46.556     9.5175
 1.5923E+03     41.278     11.842
  1.594E+03     36.109     23.794
 1.5957E+03     40.348     11.897
 1.5973E+03     39.774     9.5722
 1.5993E+03     63.486     11.952
 1.6009E+03     46.311      18.98
 1.6027E+03     41.197     14.276
 1.6044E+03     43.057     14.276
 1.6061E+03     66.496     14.276
ENDDATA            253
ENDSUBENT          272
ENDENTRY             5
