ENTRY            F1001   20090409   20090901   20090828       F036
SUBENT        F1001001   20090409   20090901   20090828       F036
BIB                  9         18
TITLE      Resonances in excitation functions of the 27Al(p,a)24Mg
           reaction in the 6.5 MeV proton energy region.
AUTHOR     (S.S.Vasilyev,Yu.A.Vorobyev,T.N.Mikhaleva,
           D.L.Chuprunov)
INSTITUTE  (4RUSMOS)
REFERENCE  (J,IZV,32,583,1968)
           (J,BAS,32,535,1969)
           (J,IZV,30,1399,1966)
           (J,BAS,30,1460,1967)
FACILITY   (CYCLO) 120 cm length
DETECTOR   (SCIN) Scintillation counter with a good resolution and
           a multichannel spectrometer were used for particle
           detection.
SAMPLE     The 27Al target was of 0.5 mu-m thickness.
ERR-ANALYS (EN-ERR-DIG) Energy digitizing error
           (ERR-DIG)    Data digitizing error
           (DATA-ERR)   Error from the graphic bars
HISTORY    (20090409C)
ENDBIB              18
COMMON               3          3
EN-RSL     EN-ERR-DIG ERR-DIG
KEV        MEV        ARB-UNITS
 150.       0.01       0.231
ENDCOMMON            3
ENDSUBENT           25
SUBENT        F1001002   20090409   20090901   20090828       F036
BIB                  2          2
REACTION   (13-AL-27(P,A)12-MG-24,PAR,DA,,REL)
STATUS     (CURVE) Fig.1
ENDBIB               2
NOCOMMON             0          0
DATA                 5        218
E-LVL      ANG        EN         DATA       DATA-ERR
MEV        ADEG       MEV        ARB-UNITS  ARB-UNITS
         0.        70.      6.201     180.64
         0.        70.     6.2101      189.4
         0.        70.     6.2177     165.03
         0.        70.     6.2189     156.27
         0.        70.     6.2391     132.53
         0.        70.     6.2492     128.78
         0.        70.     6.2593     125.66
         0.        70.     6.2694     120.67
         0.        70.     6.2794     115.04
         0.        70.     6.2908     115.67
         0.        70.     6.3021     118.18
         0.        70.     6.3109     120.06
         0.        70.     6.3197     126.31
         0.        70.     6.3298     143.19
         0.        70.     6.3399     130.07
         0.        70.       6.35     125.69
         0.        70.       6.36     155.07
         0.        70.     6.3802     139.45     10.021
         0.        70.      6.389     148.83
         0.        70.      6.394     164.46
         0.        70.      6.407     180.07
         0.        70.     6.4103     185.71
         0.        70.     6.4204     210.72
         0.        70.     6.4304     230.72     10.013
         0.        70.     6.4393     188.22
         0.        70.     6.4494      170.1
         0.        70.     6.4595     150.11
         0.        70.     6.4684     119.48
         0.        70.     6.4785     90.112
         0.        70.     6.4898     85.741
         0.        70.     6.4986     86.994
         0.        70.     6.5087     90.747
         0.        70.     6.5187     108.25
         0.        70.       6.53     130.75
         0.        70.     6.5401     155.76
         0.        70.     6.5489     172.64
         0.        70.     6.5603     191.39
         0.        70.     6.5723     195.77
         0.        70.     6.5802     218.89
         0.        70.     6.5904     222.02
         0.        70.     6.6017     235.78
         0.        70.     6.6105     243.91
         0.        70.     6.6218     255.16
         0.        70.     6.6332     244.54
         0.        70.     6.6433     224.54
         0.        70.     6.6521     205.17
         0.        70.     6.6609     195.17
         0.        70.     6.6698      155.8
         0.        70.     6.6824     150.18
         0.        70.     6.6912     150.18
         0.        70.     6.7013     151.44
         0.        70.     6.7126     175.82
         0.        70.     6.7214     182.07
         0.        70.      6.734     170.82
         0.        70.     6.7429     150.83
         0.        90.     6.1983     130.27
         0.        90.     6.2083     156.81
         0.        90.     6.2183     162.99
         0.        90.      6.227     164.85
         0.        90.     6.2371     166.71
         0.        90.     6.2464     148.18
         0.        90.     6.2571     140.78
         0.        90.     6.2684     116.71
         0.        90.     6.2772     100.05
         0.        90.     6.2873     85.856
         0.        90.     6.2985     98.823
         0.        90.     6.3073     92.037
         0.        90.     6.3173     103.77
         0.        90.     6.3285     137.72
         0.        90.     6.3397     164.89
         0.        90.     6.3472     187.11
         0.        90.     6.3572     192.67
         0.        90.     6.3773     172.93
         0.        90.     6.3873     163.06
         0.        90.     6.3974     127.87
         0.        90.     6.4075     104.42
         0.        90.     6.4175     105.04
         0.        90.     6.4275     131.59
         0.        90.     6.4374     158.14
         0.        90.     6.4475     164.93
         0.        90.      6.455     146.41
         0.        90.     6.4663     115.56
         0.        90.     6.4776     79.757
         0.        90.     6.4865     53.217
         0.        90.     6.4952     60.628
         0.        90.     6.5065     64.953
         0.        90.     6.5177     61.871
         0.        90.     6.5278     64.961
         0.        90.     6.5365     68.051
         0.        90.     6.5453     83.487
         0.        90.     6.5552     107.56
         0.        90.     6.5652     115.59
         0.        90.     6.5765     120.54
         0.        90.      6.584     127.95
         0.        90.     6.5953     132.27
         0.        90.     6.6065     146.47
         0.        90.      6.614     166.23
         0.        90.     6.6253     168.09
         0.        90.     6.6353     153.27
         0.        90.     6.6479     131.67
         0.        90.     6.6567     114.39
         0.        90.     6.6655     99.582
         0.        90.     6.6755     97.734
         0.        90.     6.6867     110.08
         0.        90.     6.6967     124.29
         0.        90.     6.7067     145.89
         0.        90.     6.7179     170.59
         0.        90.     6.7267     161.33
         0.        90.     6.7355     133.56
       1.37        70.     6.2041     768.05
       1.37        70.     6.2142     822.03
       1.37        70.     6.2243     947.17
       1.37        70.     6.2331 1.0306E+03      36.81
       1.37        70.     6.2444     996.23
       1.37        70.      6.252     956.96
       1.37        70.     6.2645     964.32
       1.37        70.     6.2746     971.67
       1.37        70.     6.2847     961.84
       1.37        70.     6.2947     929.93
       1.37        70.     6.3048     878.39
       1.37        70.     6.3149     812.12
       1.37        70.     6.3262     706.59
       1.37        70.     6.3375      593.7
       1.37        70.     6.3475     578.97
       1.37        70.     6.3588      544.6
       1.37        70.     6.3689     480.79
       1.37        70.     6.3789     397.34
       1.37        70.      6.389     397.33
       1.37        70.     6.3991     424.32
       1.37        70.     6.4092     434.13
       1.37        70.     6.4192      451.3
       1.37        70.     6.4293     485.64
       1.37        70.     6.4381     578.89
       1.37        70.     6.4482     603.42
       1.37        70.     6.4583     603.41
       1.37        70.     6.4684     598.49
       1.37        70.     6.4797     596.03
       1.37        70.     6.4885     524.85     29.448
       1.37        70.     6.4985     542.02
       1.37        70.     6.5086     578.82
       1.37        70.     6.5174      600.9
       1.37        70.     6.5275     608.26
       1.37        70.     6.5388     618.06
       1.37        70.     6.5489     642.59
       1.37        70.      6.559     517.43
       1.37        70.      6.569     514.97
       1.37        70.     6.5804     529.68
       1.37        70.     6.5892     554.21
       1.37        70.     6.5993     591.02
       1.37        70.     6.6093     620.45
       1.37        70.     6.6194     637.62
       1.37        70.     6.6295     632.71
       1.37        70.     6.6395     649.88
       1.37        70.     6.6496     676.86
       1.37        70.     6.6597     659.67
       1.37        70.     6.6685     603.22
       1.37        70.     6.6798     578.68
       1.37        70.     6.6899     603.21
       1.37        70.        6.7     696.45
       1.37        70.     6.7088     750.43
       1.37        70.     6.7189     792.14
       1.37        70.     6.7302     794.58
       1.37        70.      6.739     730.77
       1.37        90.     6.2057     741.09
       1.37        90.     6.2157     883.42
       1.37        90.     6.2258 1.0233E+03
       1.37        90.     6.2358 1.0699E+03
       1.37        90.     6.2458 1.0061E+03
       1.37        90.     6.2571     986.48
       1.37        90.     6.2659     939.85
       1.37        90.     6.2759     883.41
       1.37        90.     6.2872     868.68
       1.37        90.      6.296      819.6
       1.37        90.     6.3073     782.79
       1.37        90.     6.3173     768.06
       1.37        90.     6.3273     731.25
       1.37        90.     6.3386     645.36
       1.37        90.     6.3486     574.19
       1.37        90.     6.3587     571.73
       1.37        90.     6.3687     542.28
       1.37        90.     6.3787     512.83
       1.37        90.       6.39     473.57
       1.37        90.        6.4     500.56
       1.37        90.     6.4101     480.92
       1.37        90.     6.4201     473.56
       1.37        90.     6.4239     488.28
       1.37        90.     6.4289     512.82
       1.37        90.     6.4402     522.63
       1.37        90.     6.4502     544.72
       1.37        90.     6.4602      566.8
       1.37        90.      6.469     556.98
       1.37        90.     6.4803     512.81
       1.37        90.     6.4903     466.18
       1.37        90.     6.5003     446.55
       1.37        90.     6.5116     434.27
       1.37        90.     6.5204     412.19
       1.37        90.     6.5317     436.72
       1.37        90.     6.5417     488.26
       1.37        90.     6.5492      549.6
       1.37        90.     6.5593     591.32
       1.37        90.     6.5718     544.69
       1.37        90.     6.5806      522.6
       1.37        90.     6.5906     534.87
       1.37        90.     6.6007     544.68
       1.37        90.     6.6107     532.41
       1.37        90.     6.6207     512.78
       1.37        90.     6.6307     544.68
       1.37        90.     6.6408     583.94
       1.37        90.     6.6508     601.11
       1.37        90.     6.6608      591.3
       1.37        90.     6.6709     498.04
       1.37        90.     6.6821     448.96
       1.37        90.     6.6922     456.32
       1.37        90.      6.701     512.76
       1.37        90.      6.711     556.93
       1.37        90.     6.7198     608.46
       1.37        90.     6.7298     686.99
       1.37        90.     6.7386     684.53
ENDDATA            220
ENDSUBENT          227
ENDENTRY             2
