ENTRY            F1012   20090827   20090901   20090828       F036
SUBENT        F1012001   20090827   20090901   20090828       F036
BIB                 10         24
TITLE      Spectroscopy of 41Sc by resonant scattering of protons:
           observation of an intermediate structure.
AUTHOR     (W.Mittig,Y.Cassagnou,N.Cindro,L.Papineau,K.K.Seth)
INSTITUTE  (2FR SAC)
REFERENCE  (J,NP/A,231,316,1974)
           (J,IZV,32,1650,1968) Preliminary reported data
           (J,BAS,32,1531,1969) Preliminary reported data
FACILITY   (VDGT)
SAMPLE     The targets were prepared by vacuum evaporation of
           metallic enriched (99.97%) 40Ca. The thickness of the
           targets varied between 50 and 200 mu-g/cm2 (on a carbon
           backing of 25 mu-g/cm2). For protons of an average
           energy of 6 MeV, this corresponds to an energy loss of
           3-10 keV.
DETECTOR   (SIBAR) Protons were detected with 1 mm thick silicon
           surface barrier detectors.
COMMENT    The absolute value of the cross sections was obtained
           by measuring the elastic scattering cross section at
           3.8 and 3.9 MeV and assuming that at this energy at
           forward angles it is only due to Rutherford scattering.
ERR-ANALYS (ERR-SYS)    Systematic error
           (EN-ERR-DIG) Energy digitizing error
           (ERR-DIG)    Data digitizing error
HISTORY    (20090827C)
ENDBIB              24
COMMON               1          3
ERR-SYS
PER-CENT
 15.
ENDCOMMON            3
ENDSUBENT           31
SUBENT        F1012002   20090827   20090901   20090828       F036
BIB                  2          3
REACTION   (20-CA-40(P,INL)20-CA-40,PAR,DA,,REL)
STATUS     (CURVE) Fig.1 from Ref. J,IZV,32,1650,1968
           (PRELM)
ENDBIB               3
COMMON               4          3
ANG        EN-RSL     EN-ERR-DIG ERR-DIG
ADEG       KEV        MEV        ARB-UNITS
 125.       10.        1.649      8.19
ENDCOMMON            3
DATA                 3        359
E-LVL      EN         DATA
MEV        KEV        ARB-UNITS
       3.73  4.819E+03     97.707
       3.73  4.827E+03     97.926
       3.73  4.835E+03     98.146
       3.73  4.843E+03     98.366
       3.73  4.852E+03     98.586
       3.73  4.862E+03      98.86
       3.73   4.87E+03      99.08
       3.73  4.876E+03     99.245
       3.73  4.884E+03     99.464
       3.73  4.888E+03     181.54
       3.73  4.894E+03     304.65
       3.73  4.901E+03     140.89
       3.73  4.907E+03       264.
       3.73  4.917E+03     100.34
       3.73  4.927E+03     100.62
       3.73  4.937E+03     100.89
       3.73  4.948E+03     101.17
       3.73  4.958E+03     142.42
       3.73  4.968E+03     101.72
       3.73  4.978E+03     101.99
       3.73  4.986E+03     102.21
       3.73  4.996E+03     102.49
       3.73  5.007E+03     102.76
       3.73  5.017E+03     103.03
       3.73  5.025E+03     103.25
       3.73  5.037E+03     103.58
       3.73   5.05E+03     103.91
       3.73  5.056E+03     104.08
       3.73  5.066E+03     186.32
       3.73  5.078E+03     186.65
       3.73  5.086E+03     309.82
       3.73  5.096E+03     105.18
       3.73  5.107E+03     105.45
       3.73  5.117E+03     392.61
       3.73  5.129E+03     351.95
       3.73  5.137E+03     270.21
       3.73  5.147E+03     106.55
       3.73   5.16E+03     147.86
       3.73  5.168E+03     230.05
       3.73  5.178E+03     312.29
       3.73  5.188E+03  1.419E+03
       3.73    5.2E+03     927.64
       3.73  5.209E+03     313.11
       3.73  5.219E+03     149.45
       3.73  5.229E+03     149.73
       3.73  5.239E+03       150.
       3.73  5.249E+03      109.3
       3.73   5.26E+03     150.55
       3.73  5.268E+03     355.69
       3.73  5.278E+03     601.86
       3.73   5.29E+03     397.28
       3.73  5.296E+03     274.49
       3.73  5.309E+03     233.84
       3.73  5.317E+03     193.07
       3.73  5.329E+03     152.42
       3.73  5.337E+03     111.66
       3.73  5.347E+03     111.93
       3.73  5.358E+03     112.21
       3.73  5.368E+03     112.48
       3.73  5.376E+03     153.68
       3.73  5.388E+03     276.96
       3.73  5.396E+03     154.23
       3.73  5.407E+03     441.39
       3.73  5.413E+03  1.097E+03
       3.73  5.425E+03     441.88
       3.73  5.437E+03      237.3
       3.73  5.447E+03  1.426E+03
       3.73  5.455E+03  1.098E+03
       3.73   5.47E+03     648.01
       3.73  5.476E+03     566.21
       3.73  5.482E+03  1.099E+03
       3.73  5.486E+03  3.558E+03
       3.73  5.492E+03  2.083E+03
       3.73  5.496E+03  1.264E+03
       3.73    5.5E+03     648.83
       3.73  5.504E+03     444.03
       3.73  5.511E+03     280.26
       3.73  5.519E+03     485.39
       3.73  5.523E+03     772.39
       3.73  5.527E+03     567.58
       3.73  5.531E+03     362.77
       3.73  5.535E+03     239.93
       3.73  5.541E+03     322.07
       3.73  5.547E+03     199.28
       3.73  5.551E+03     76.441
       3.73  5.557E+03     240.54
       3.73   5.56E+03     76.661
       3.73  5.572E+03     158.96
       3.73  5.574E+03     240.98
       3.73  5.582E+03  2.126E+03
       3.73  5.586E+03  2.372E+03
       3.73  5.592E+03  1.266E+03
       3.73  5.594E+03     528.41
       3.73    5.6E+03     200.71
       3.73  5.606E+03     241.86
       3.73  5.611E+03     78.034
       3.73  5.617E+03     78.198
       3.73  5.621E+03     324.21
       3.73  5.625E+03     160.38
       3.73  5.631E+03     160.55
       3.73  5.637E+03     119.73
       3.73  5.639E+03     447.65
       3.73  5.645E+03     447.82
       3.73  5.651E+03     488.96
       3.73  5.653E+03     202.14
       3.73  5.659E+03     161.32
       3.73  5.668E+03     325.47
       3.73  5.672E+03     448.53
       3.73  5.676E+03     653.56
       3.73   5.68E+03     448.75
       3.73  5.686E+03     162.03
       3.73   5.69E+03     326.07
       3.73  5.696E+03     203.29
       3.73    5.7E+03     777.16
       3.73  5.704E+03  1.392E+03
       3.73   5.71E+03     613.51
       3.73  5.713E+03      285.7
       3.73  5.719E+03     203.89
       3.73  5.725E+03     286.03
       3.73  5.729E+03     204.17
       3.73  5.733E+03     122.31
       3.73  5.739E+03     204.44
       3.73  5.745E+03     286.57
       3.73  5.749E+03     368.65
       3.73  5.757E+03  2.541E+03
       3.73  5.759E+03  2.131E+03
       3.73  5.766E+03   1.23E+03
       3.73  5.772E+03     902.04
       3.73  5.776E+03     574.28
       3.73  5.782E+03      451.5
       3.73  5.786E+03     738.49
       3.73   5.79E+03   2.87E+03
       3.73  5.796E+03  5.001E+03
       3.73  5.802E+03  3.977E+03
       3.73  5.806E+03  2.747E+03
       3.73   5.81E+03    1.6E+03
       3.73  5.814E+03  1.477E+03
       3.73  5.821E+03  1.067E+03
       3.73  5.825E+03     780.51
       3.73  5.831E+03     780.68
       3.73  5.835E+03     698.82
       3.73  5.843E+03     535.11
       3.73  5.855E+03     535.44
       3.73  5.857E+03     699.43
       3.73   5.88E+03  3.528E+03
       3.73  5.886E+03  2.135E+03
       3.73   5.89E+03  1.192E+03
       3.73  5.894E+03  1.807E+03
       3.73    5.9E+03  2.381E+03
       3.73  5.904E+03  1.643E+03
       3.73  5.908E+03   1.07E+03
       3.73  5.914E+03      864.9
       3.73  5.921E+03     701.13
       3.73  5.925E+03     865.17
       3.73  5.931E+03     824.35
       3.73  5.935E+03  1.193E+03
       3.73  5.943E+03  5.333E+03
       3.73  5.947E+03  4.636E+03
       3.73  5.951E+03   2.71E+03
       3.73  5.955E+03  1.645E+03
       3.73  5.959E+03  1.071E+03
       3.73  5.965E+03  1.276E+03
       3.73  5.969E+03  1.645E+03
       3.73  5.976E+03  2.752E+03
       3.73   5.98E+03  4.063E+03
       3.73  5.988E+03  3.982E+03
       3.73  5.992E+03  2.711E+03
       3.73  5.996E+03   2.22E+03
       3.73  6.002E+03   1.81E+03
       3.73  6.006E+03  3.244E+03
       3.73   6.01E+03  5.048E+03
       3.73  6.014E+03  4.884E+03
       3.73  6.018E+03  4.761E+03
       3.73   6.02E+03  5.581E+03
       3.73  6.026E+03  9.515E+03
       3.73  6.034E+03  2.013E+04
       3.73   6.04E+03  1.607E+04
       3.73  6.042E+03  8.327E+03
       3.73  6.047E+03  2.631E+03
       3.73  6.049E+03  1.442E+03
       3.73  6.057E+03  4.557E+03
       3.90  4.819E+03     75.577
       3.90  4.829E+03     75.619
       3.90  4.838E+03     34.837
       3.90  4.846E+03     75.687
       3.90  4.854E+03     34.905
       3.90  4.862E+03     75.755
       3.90   4.87E+03     75.789
       3.90   4.88E+03     35.015
       3.90   4.89E+03     35.058
       3.90  4.899E+03     35.092
       3.90  4.909E+03     35.134
       3.90  4.917E+03     35.168
       3.90  4.925E+03     35.202
       3.90  4.935E+03     35.245
       3.90  4.945E+03     157.74
       3.90  4.952E+03     76.129
       3.90   4.96E+03     76.163
       3.90  4.968E+03     76.197
       3.90  4.976E+03     76.231
       3.90  4.988E+03     76.282
       3.90  4.994E+03     76.307
       3.90  5.004E+03      76.35
       3.90  5.015E+03     76.392
       3.90  5.027E+03     76.443
       3.90  5.037E+03     76.486
       3.90  5.047E+03     35.712
       3.90  5.055E+03     76.562
       3.90   5.07E+03     35.805
       3.90  5.076E+03      199.1
       3.90  5.088E+03     444.04
       3.90  5.098E+03     362.45
       3.90  5.108E+03     240.05
       3.90  5.116E+03     76.817
       3.90  5.129E+03     76.868
       3.90  5.137E+03     76.902
       3.90  5.149E+03     76.953
       3.90  5.159E+03     76.995
       3.90  5.167E+03     77.029
       3.90  5.177E+03     77.072
       3.90  5.188E+03     77.114
       3.90  5.204E+03     77.182
       3.90  5.218E+03     77.242
       3.90  5.228E+03      118.1
       3.90  5.238E+03     444.67
       3.90  5.249E+03     363.08
       3.90  5.259E+03     240.68
       3.90  5.269E+03     159.09
       3.90  5.279E+03     240.76
       3.90  5.289E+03     322.44
       3.90  5.299E+03     240.85
       3.90   5.31E+03     240.89
       3.90   5.32E+03     77.666
       3.90   5.33E+03     118.53
       3.90  5.338E+03     118.56
       3.90  5.346E+03     159.41
       3.90  5.356E+03     649.25
       3.90  5.367E+03     159.49
       3.90  5.377E+03      322.8
       3.90  5.385E+03      486.1
       3.90  5.397E+03     404.52
       3.90  5.407E+03     200.48
       3.90  5.417E+03     241.34
       3.90   5.43E+03     241.39
       3.90  5.438E+03     527.14
       3.90  5.448E+03  1.303E+03
       3.90  5.452E+03  1.344E+03
       3.90  5.461E+03  1.425E+03
       3.90  5.467E+03  1.833E+03
       3.90  5.468E+03  1.997E+03
       3.90  5.479E+03  2.691E+03
       3.90  5.487E+03  5.711E+03
       3.90  5.491E+03  4.446E+03
       3.90  5.495E+03  3.058E+03
       3.90  5.499E+03  1.548E+03
       3.90  5.505E+03  2.078E+03
       3.90  5.511E+03   2.16E+03
       3.90  5.515E+03  1.385E+03
       3.90  5.521E+03  1.385E+03
       3.90  5.525E+03  1.262E+03
       3.90  5.531E+03  1.099E+03
       3.90  5.533E+03     813.25
       3.90   5.54E+03     650.01
       3.90  5.546E+03      813.3
       3.90  5.552E+03  1.017E+03
       3.90  5.554E+03  1.956E+03
       3.90   5.56E+03  3.099E+03
       3.90  5.564E+03  3.997E+03
       3.90  5.574E+03  2.773E+03
       3.90  5.578E+03  2.405E+03
       3.90  5.586E+03  1.916E+03
       3.90   5.59E+03  1.181E+03
       3.90  5.595E+03     813.51
       3.90  5.601E+03     650.27
       3.90  5.605E+03     527.83
       3.90  5.611E+03     487.04
       3.90  5.615E+03  1.181E+03
       3.90  5.619E+03  3.508E+03
       3.90  5.625E+03  3.589E+03
       3.90  5.631E+03  1.671E+03
       3.90  5.633E+03  1.467E+03
       3.90  5.639E+03  1.467E+03
       3.90  5.643E+03  1.222E+03
       3.90  5.649E+03  1.222E+03
       3.90  5.654E+03  1.018E+03
       3.90  5.664E+03  1.793E+03
       3.90  5.668E+03   2.12E+03
       3.90  5.674E+03  5.671E+03
       3.90   5.68E+03  3.263E+03
       3.90  5.684E+03  1.345E+03
       3.90  5.686E+03  1.059E+03
       3.90  5.694E+03  1.345E+03
       3.90  5.698E+03     977.21
       3.90  5.702E+03     691.51
       3.90  5.708E+03     487.45
       3.90  5.715E+03     324.21
       3.90  5.721E+03      242.6
       3.90  5.729E+03     242.64
       3.90  5.733E+03     324.29
       3.90  5.741E+03    3.1E+03
       3.90  5.745E+03  7.835E+03
       3.90  5.749E+03  7.712E+03
       3.90  5.755E+03  8.651E+03
       3.90  5.761E+03  5.345E+03
       3.90  5.765E+03  2.569E+03
       3.90   5.77E+03   1.59E+03
       3.90  5.774E+03  1.263E+03
       3.90  5.778E+03   1.59E+03
       3.90  5.784E+03  2.365E+03
       3.90   5.79E+03  3.223E+03
       3.90  5.796E+03  3.182E+03
       3.90    5.8E+03  2.365E+03
       3.90  5.802E+03  2.651E+03
       3.90   5.81E+03  1.345E+03
       3.90   5.81E+03     610.33
       3.90   5.82E+03     487.92
       3.90  5.822E+03  1.712E+03
       3.90  5.831E+03  5.468E+03
       3.90  5.837E+03  4.815E+03
       3.90  5.843E+03  1.508E+03
       3.90  5.849E+03     773.75
       3.90  5.853E+03     488.05
       3.90  5.859E+03     243.18
       3.90  5.879E+03  2.937E+03
       3.90  5.883E+03  2.611E+03
       3.90   5.89E+03   2.57E+03
       3.90  5.896E+03  8.937E+03
       3.90    5.9E+03  9.917E+03
       3.90  5.904E+03  8.488E+03
       3.90   5.91E+03  1.057E+04
       3.90  5.916E+03  6.652E+03
       3.90   5.92E+03  3.795E+03
       3.90  5.924E+03  1.672E+03
       3.90  5.928E+03      814.9
       3.90  5.934E+03  1.223E+03
       3.90   5.94E+03  9.672E+03
       3.90  5.946E+03  8.407E+03
       3.90  5.951E+03  4.407E+03
       3.90  5.955E+03   2.08E+03
       3.90  5.959E+03     896.66
       3.90  5.963E+03     610.96
       3.90  5.971E+03  1.142E+03
       3.90  5.973E+03  1.672E+03
       3.90  5.981E+03  6.489E+03
       3.90  5.987E+03  1.029E+04
       3.90  5.991E+03  6.162E+03
       3.90  5.997E+03  4.121E+03
       3.90  5.999E+03  2.325E+03
       3.90  6.006E+03  2.162E+03
       3.90   6.01E+03     692.79
       3.90  6.012E+03     366.27
       3.90  6.018E+03     407.11
       3.90  6.024E+03     366.32
       3.90   6.03E+03     447.98
       3.90  6.034E+03     488.81
       3.90   6.04E+03     488.84
       3.90  6.046E+03     488.86
       3.90  6.052E+03     488.89
       3.90  6.056E+03  1.918E+03
ENDDATA            361
ENDSUBENT          373
SUBENT        F1012003   20090827   20090901   20090828       F036
BIB                  2          2
REACTION   (20-CA-40(P,EL)20-CA-40,,DA)
STATUS     (CURVE) Fig.2 from Ref. J,NP/A,231,316,1974
ENDBIB               2
COMMON               3          3
ANG        EN-ERR-DIG ERR-DIG
ADEG       MEV        MB/SR
 90.        0.001      0.09
ENDCOMMON            3
DATA                 2        426
EN         DATA
MEV        MB/SR
     4.8089     65.624
     4.8246     64.061
     4.8456     60.936
     4.8587     57.811
     4.8691     54.686
      4.877     59.373
     4.8822     65.623
     4.8901     78.123
     4.9032     96.873
      4.911     99.998
     4.9215     99.998
     4.9293     87.497
     4.9398     71.872
     4.9529     62.497
     4.9634     60.934
     4.9817     56.247
         5.     53.121
     5.0131     56.246
      5.021     64.059
     5.0288     57.809
     5.0367     54.683
     5.0498     28.121
     5.0602     14.058
     5.0681     18.745
     5.0733     23.433
     5.0786      46.87
      5.089     68.745
     5.0995     76.558
       5.11     70.307
     5.1204      65.62
     5.1283     60.932
      5.144     59.369
     5.1545     62.494
     5.1623     59.369
     5.1702     57.806
     5.1807     54.681
     5.1911     51.556
      5.199     56.244
     5.2095     60.931
     5.2199     60.931
     5.2304     56.243
     5.2409     57.805
     5.2513     64.055
     5.2592      67.18
     5.2697     68.743
     5.2801     87.492
     5.2906     95.305
     5.2985     101.55
     5.3115     84.367
     5.3194     67.179
     5.3299     46.867
     5.3403     39.054
     5.3508     34.366
     5.3613     26.554
     5.3718     21.866
     5.3796     10.928
     5.3901     4.6783
     5.4006     4.6782
      5.411     12.491
     5.4189      31.24
      5.432      49.99
     5.4424      62.49
     5.4503     67.177
     5.4608     71.865
     5.4712      68.74
     5.4765     76.552
     5.4843     73.427
     5.4948     95.302
     5.5026     79.677
     5.5079     62.489
     5.5131     51.552
      5.521     49.989
     5.5262     62.489
     5.5288     76.551
     5.5341     81.239
     5.5393     74.989
     5.5445     56.239
     5.5498     48.426
     5.5524     35.926
     5.5602     23.426
     5.5629     17.176
     5.5733     39.051
     5.5864     70.301
     5.5995     79.675
     5.6074       70.3
     5.6152     67.175
     5.6204      64.05
     5.6283     68.737
     5.6362     67.175
     5.6388     49.987
     5.6492       45.3
     5.6623     48.424
     5.6728     59.362
     5.6833     59.362
     5.6911     59.361
      5.699     53.111
     5.7095     51.549
     5.7173     43.736
     5.7304     43.736
     5.7409     40.611
     5.7513     39.048
     5.7644     31.235
     5.7749     35.923
     5.7828      34.36
      5.788      28.11
     5.7985     31.235
     5.8037     62.485
     5.8115      78.11
     5.8194     68.735
     5.8246     62.485
     5.8325     59.359
     5.8377     65.609
      5.843     85.922
     5.8561     78.109
     5.8613     65.609
     5.8639     54.672
     5.8718     46.859
      5.877     42.171
     5.8875     32.796
     5.8927     40.609
     5.9006     49.983
     5.9058     56.233
     5.9241     43.733
      5.932     46.858
     5.9346     40.608
     5.9372     49.983
     5.9424     46.858
     5.9477     34.358
     5.9581     34.358
      5.966     37.483
     5.9739     59.357
     5.9791     64.045
     5.9843     51.545
     5.9896      35.92
         6.      35.92
     6.0053     31.232
     6.0105     26.544
     6.0131     20.294
      6.021     14.044
     6.0314     7.7941
     6.0393     21.856
     6.0471     37.481
      6.055     42.169
     6.0707     43.731
     6.0733     54.668
     6.0812     59.356
     6.0838     49.981
      6.089     37.481
     6.0995     31.231
     6.1021     23.418
       6.11     45.293
     6.1152     48.418
     6.1204      43.73
     6.1283      37.48
     6.1362     32.793
      6.144     35.917
     6.1545     28.105
     6.1597     20.292
     6.1676     17.167
     6.1754     15.605
     6.1885     26.542
     6.1911     37.479
     6.1964     43.729
     6.2042     40.604
     6.2095     35.917
     6.2147     28.104
     6.2252     39.041
      6.233     40.604
     6.2435     43.729
     6.2513     42.166
     6.2592     29.666
     6.2644     20.291
     6.2697     12.478
     6.2775      9.353
     6.2828     18.728
     6.2906     40.603
     6.3011      51.54
     6.3115     49.978
      6.322      51.54
     6.3273      57.79
     6.3351     46.852
     6.3403     37.477
     6.3456      32.79
     6.3534     18.727
     6.3613     26.539
     6.3665     32.789
      6.377     35.914
     6.3901     42.164
     6.4006     51.539
     6.4058     21.851
      6.411     29.664
      6.411     17.164
     6.4189     39.039
     6.4267     29.663
     6.4293     12.476
     6.4372     7.7882
     6.4451     18.726
     6.4477     23.413
     6.4503     39.038
     6.4581       65.6
     6.4634     60.913
     6.4712     68.725
     6.4817       65.6
     6.4922       78.1
     6.4974     82.787
        6.5     70.287
     6.5053     56.225
     6.5131      46.85
     6.5236       53.1
     6.5341     56.224
     6.5393     53.099
     6.5472     65.599
     6.5498     89.037
      6.555      128.1
     6.5629     160.91
     6.5681     151.54
     6.5707     114.04
     6.5759     90.599
     6.5864     64.036
      6.589     48.411
     6.5969     35.911
     6.6021     29.661
     6.6047     24.973
       6.61     18.723
     6.6126     10.911
     6.6231     7.7856
     6.6335      10.91
     6.6414     20.285
     6.6466      60.91
     6.6519     65.598
     6.6571     59.348
     6.6597     53.098
     6.6676      42.16
     6.6728     37.472
     6.6807     34.347
     6.6885      48.41
     6.6911     39.035
     6.6964      42.16
      6.699     53.097
     6.7042     65.597
     6.7121     67.159
     6.7173     53.097
     6.7173     60.909
     6.7278     51.534
     6.7356     46.846
     6.7409     42.159
     6.7461     32.784
     6.7513     40.596
     6.7566     49.971
     6.7618     54.659
      6.767     43.721
     6.7775     40.596
     6.7906     40.596
     6.7985     42.158
     6.8115     42.158
     6.8273     32.783
      6.843     28.095
     6.8587     23.407
      6.877     18.719
     6.8979     18.719
     6.9058     24.969
     6.9136     31.219
     6.9189     37.469
     6.9267     48.406
     6.9372     57.781
     6.9529     45.281
     6.9581     39.031
     6.9634     32.781
     6.9686     37.468
     6.9739     42.156
     6.9817     46.843
     6.9922     29.655
     7.0053     35.905
     7.0131      39.03
     7.0262     37.467
     7.0341     35.905
     7.0445      26.53
      7.055     21.842
     7.0629     20.279
     7.0681     24.967
     7.0759     28.092
     7.0864     31.216
     7.0943     26.529
     7.1047     20.279
       7.11     34.341
     7.1178     39.028
     7.1204     45.278
     7.1257     56.216
     7.1283     51.528
     7.1388     57.778
     7.1466     51.528
     7.1545     42.153
     7.1623     39.028
     7.1754     18.715
     7.1859     18.715
     7.1964      21.84
     7.2095     18.715
     7.2173      15.59
     7.2225     10.902
     7.2278     17.152
     7.2356     28.089
     7.2409     32.777
     7.2487     39.027
     7.2566     46.839
     7.2697     46.839
     7.2801     40.589
     7.2958     35.901
     7.3115     39.026
     7.3246      42.15
     7.3325     40.588
     7.3403      29.65
     7.3456     26.525
     7.3534       23.4
     7.3613     14.025
     7.3718     12.462
     7.3822     21.837
     7.3901     31.212
     7.3979     42.149
     7.4058     26.524
     7.4058     35.899
     7.4136     23.399
     7.4241     32.774
      7.432     26.524
     7.4424     17.149
     7.4555     24.961
     7.4686     14.023
     7.4843     32.773
     7.4922     34.336
     7.5026     20.273
     7.5105      18.71
     7.5184     15.585
     7.5262      18.71
     7.5367     9.3349
     7.5498      12.46
     7.5576     10.897
     7.5681     18.709
     7.5759     23.397
     7.5838     26.522
     7.5917     18.709
     7.5995     12.459
       7.61     21.834
     7.6152     9.3338
     7.6231     6.2087
     7.6309     3.0836
      7.644     3.0834
     7.6545     6.2083
     7.6597     9.3332
     7.6623     23.396
     7.6702     48.396
      7.678     43.708
     7.6807     34.333
     7.6937     31.208
     7.7016     24.958
     7.7068     48.395
     7.7095     54.645
     7.7199     56.207
     7.7278     49.957
      7.733     43.707
     7.7382     48.395
     7.7435     29.644
     7.7566     23.394
     7.7592     35.894
      7.767     39.019
     7.7723     46.832
     7.7775     64.019
     7.7854     62.456
     7.7932     68.706
     7.7985     48.394
     7.8089     54.644
     7.8246     46.831
     7.8377     40.581
     7.8482     43.705
     7.8534     37.455
     7.8587     29.643
     7.8613      21.83
     7.8718     29.643
     7.8822     37.455
     7.8901     32.767
     7.8979     42.142
     7.9058      40.58
      7.911     31.205
     7.9215     34.329
     7.9293     34.329
     7.9398     28.079
     7.9477     23.392
     7.9529     15.579
     7.9608     14.016
      7.966     26.516
     7.9765     31.204
     7.9948     26.516
     7.9974     31.203
     8.0053     26.516
     8.0079     15.578
     8.0236     6.2029
     8.0393      29.64
     8.0445     20.265
      8.055      17.14
     8.0707     26.515
      8.089     32.764
     8.0995     20.264
     8.1021     10.889
     8.1126     3.0766
     8.1178     12.452
     8.1257     15.576
     8.1335     9.3263
     8.1466     18.701
     8.1571     34.326
     8.1649     31.201
     8.1702     24.951
      8.178     18.701
     8.1859     12.451
     8.1964     10.888
     8.2121     4.6377
     8.2225     7.7625
     8.2252       18.7
     8.2356     23.387
     8.2409       31.2
      8.254     39.012
     8.2592     28.075
      8.267     21.824
     8.2723     17.137
      8.288     18.699
     8.2985     17.136
     8.3063     20.261
     8.3142     14.011
     8.3194     9.3237
ENDDATA            428
ENDSUBENT          439
SUBENT        F1012004   20090827   20090901   20090828       F036
BIB                  2          2
REACTION   (20-CA-40(P,INL)20-CA-40,PAR,DA)
STATUS     (CURVE) Fig.2 from Ref. J,NP/A,231,316,1974
ENDBIB               2
COMMON               3          3
ANG        EN-ERR-DIG ERR-DIG
ADEG       MEV        MB/SR
 90.        0.002      0.06
ENDCOMMON            3
DATA                 3       1369
E-LVL      EN         DATA
MEV        MEV        MB/SR
       3.35     5.0132 8.3647E-04
       3.35      5.021 8.6393E-04
       3.35     5.0289    0.69911
       3.35     5.0367    0.69909
       3.35     5.0498    0.39904
       3.35     5.0524 9.9035E-02
       3.35     5.0681 9.8987E-02
       3.35     5.0786 9.8953E-02
       3.35     5.0891    0.99892
       3.35     5.0995     1.4989
       3.35     5.1074    0.99886
       3.35     5.1205    0.29882
       3.35      5.131 1.2149E-03
       3.35     5.1388 1.2393E-03
       3.35     5.1493 1.2729E-03
       3.35      5.165 1.3247E-03
       3.35     5.1807 1.3736E-03
       3.35     5.1912 1.4071E-03
       3.35     5.2016 1.4407E-03
       3.35     5.2095 1.4682E-03
       3.35     5.2173 1.4926E-03
       3.35     5.2278 1.5262E-03
       3.35     5.2435 9.8425E-02
       3.35     5.2488    0.39841
       3.35     5.2592    0.39837
       3.35     5.2697    0.29834
       3.35     5.2828 9.8297E-02
       3.35     5.2985    0.29825
       3.35     5.3142     0.3982
       3.35     5.3247    0.39816
       3.35     5.3351    0.39813
       3.35     5.3509    0.49808
       3.35     5.3587    0.69806
       3.35     5.3692    0.99802
       3.35      5.377      1.398
       3.35     5.3901      2.198
       3.35     5.4006     2.6979
       3.35     5.4085     2.6979
       3.35     5.4137     3.5979
       3.35     5.4189     4.4979
       3.35     5.4294     3.3978
       3.35     5.4399     1.7978
       3.35     5.4503    0.79776
       3.35     5.4582    0.79774
       3.35     5.4713     1.2977
       3.35     5.4791     1.1977
       3.35     5.4817    0.69766
       3.35      5.487    0.19764
       3.35     5.4948    0.39762
       3.35     5.5027    0.19759
       3.35     5.5132 9.7561E-02
       3.35     5.5262 9.7519E-02
       3.35     5.5341    0.69749
       3.35      5.542    0.29747
       3.35     5.5498    0.19744
       3.35     5.5655    0.49739
       3.35      5.576    0.89736
       3.35     5.5891    0.49732
       3.35     5.5943     0.1973
       3.35     5.6022 9.7274E-02
       3.35     5.6205    0.19722
       3.35     5.6283     1.3972
       3.35      5.631     1.9972
       3.35     5.6388     4.9972
       3.35     5.6414     5.3972
       3.35     5.6467     6.1971
       3.35     5.6519     5.6971
       3.35     5.6571     5.0971
       3.35     5.6624     4.0971
       3.35     5.6729      4.397
       3.35     5.6781      2.997
       3.35     5.6833      1.897
       3.35     5.6912      1.297
       3.35     5.6938    0.69698
       3.35      5.699    0.49696
       3.35     5.7069    0.39694
       3.35       5.72     0.2969
       3.35     5.7331    0.19686
       3.35     5.7461    0.39681
       3.35      5.754    0.59679
       3.35     5.7592    0.79677
       3.35     5.7619     1.2968
       3.35     5.7697    0.79674
       3.35     5.7723    0.29673
       3.35     5.7854    0.19669
       3.35     5.7933    0.29666
       3.35     5.7985    0.49665
       3.35     5.8064    0.29662
       3.35     5.8168 9.6588E-02
       3.35     5.8299 9.6545E-02
       3.35     5.8325    0.39654
       3.35     5.8378    0.79652
       3.35     5.8509    0.19648
       3.35     5.8587 9.6454E-02
       3.35     5.8849    0.19637
       3.35     5.8954    0.19633
       3.35     5.9058 9.6301E-02
       3.35     5.9189 9.6258E-02
       3.35     5.9294 9.6225E-02
       3.35     5.9399 9.6191E-02
       3.35     5.9739 9.6084E-02
       3.35     5.9975    0.29601
       3.35     6.0262 4.0835E-03
       3.35     6.0393    0.10413
       3.35     6.0629 9.5797E-02
       3.35     6.0786    0.29575
       3.35     6.0891 9.5715E-02
       3.35     6.1022 4.3277E-03
       3.35     6.1467 9.5529E-02
       3.35     6.1571 9.5495E-02
       3.35     6.1676 9.5462E-02
       3.35     6.1728    0.49545
       3.35     6.1859     0.6954
       3.35      6.199     2.9954
       3.35      6.199     1.3954
       3.35     6.2069    0.29534
       3.35     6.2173     0.1953
       3.35     6.2566 9.5178E-02
       3.35     6.2619    0.49516
       3.35     6.2671     1.5951
       3.35     6.2697     3.7951
       3.35     6.2828     10.395
       3.35     6.2854     9.6951
       3.35     6.2907     9.2951
       3.35     6.2933     5.4951
       3.35     6.2985      4.495
       3.35     6.3011      2.995
       3.35      6.309      2.695
       3.35     6.3116      1.595
       3.35     6.3194      1.395
       3.35     6.3221    0.89497
       3.35     6.3299    0.89494
       3.35     6.3378     1.9949
       3.35     6.3378    0.99492
       3.35     6.3456     2.0949
       3.35     6.3561     1.6949
       3.35     6.3666     1.6948
       3.35      6.377     2.1948
       3.35     6.3823     2.7948
       3.35     6.3875     3.8948
       3.35     6.3954     4.5947
       3.35     6.4006     4.8947
       3.35     6.4085     3.9947
       3.35     6.4111     4.9947
       3.35     6.4163     4.6947
       3.35     6.4215     3.4946
       3.35     6.4268     2.0946
       3.35      6.432     1.4946
       3.35     6.4451     1.5946
       3.35     6.4503     2.2946
       3.35     6.4556     2.8945
       3.35     6.4634     2.5945
       3.35      6.466     2.1945
       3.35     6.4739    0.89448
       3.35      6.487     1.0944
       3.35     6.5027    0.69439
       3.35     6.5132    0.89435
       3.35      6.521     1.0943
       3.35     6.5315     1.2943
       3.35      6.542     1.0943
       3.35     6.5498     1.0942
       3.35     6.5577    0.59421
       3.35     6.5681    0.39418
       3.35     6.5786    0.39415
       3.35     6.5865    0.39412
       3.35     6.5943    0.49409
       3.35       6.61    0.49405
       3.35     6.6126    0.89404
       3.35     6.6153      1.094
       3.35     6.6231      1.894
       3.35     6.6283    0.99398
       3.35     6.6336    0.39397
       3.35     6.6388    0.10605
       3.35     6.6545 9.3902E-02
       3.35     6.6571     1.2939
       3.35      6.665     1.0939
       3.35     6.6728    0.89384
       3.35     6.6807    0.69382
       3.35     6.6886    0.79379
       3.35     6.6964    0.89377
       3.35     6.7016     1.4938
       3.35     6.7095     1.6937
       3.35     6.7121     2.0937
       3.35     6.7174     2.6937
       3.35     6.7252     3.4937
       3.35     6.7252     2.6937
       3.35     6.7331     3.7937
       3.35     6.7357     4.7936
       3.35     6.7462     6.1936
       3.35     6.7514     4.7936
       3.35      6.754     5.1936
       3.35     6.7592     3.8936
       3.35     6.7592     4.6936
       3.35     6.7645     2.9936
       3.35     6.7697     1.9935
       3.35     6.7749     1.3935
       3.35     6.7828    0.99349
       3.35     6.7933    0.59346
       3.35      6.809    0.59341
       3.35     6.8194     1.1934
       3.35     6.8247     1.8934
       3.35     6.8247     1.3934
       3.35     6.8299     2.5933
       3.35     6.8378     2.3933
       3.35     6.8404     1.9933
       3.35     6.8509     1.5933
       3.35     6.8587     1.7932
       3.35     6.8613     2.3932
       3.35      6.864     2.8932
       3.35     6.8692     3.1932
       3.35     6.8718     3.7932
       3.35      6.877     4.1932
       3.35     6.8823     4.8932
       3.35     6.8954     6.2931
       3.35     6.9058     7.0931
       3.35     6.9137     6.8931
       3.35     6.9189     5.8931
       3.35     6.9242      5.293
       3.35      6.932      2.893
       3.35      6.932      1.893
       3.35     6.9346      2.193
       3.35     6.9372      1.493
       3.35     6.9451      1.493
       3.35     6.9503      1.893
       3.35     6.9582     2.4929
       3.35     6.9582     3.2929
       3.35     6.9687     3.0929
       3.35     6.9739     3.8929
       3.35     6.9765     3.2929
       3.35     6.9844     2.4928
       3.35      6.987     1.9928
       3.35     6.9948     2.5928
       3.35     6.9975     3.2928
       3.35     7.0053     3.4928
       3.35     7.0105     3.1928
       3.35     7.0184     3.2927
       3.35     7.0341     2.8927
       3.35      7.042     3.2927
       3.35     7.0472     2.6926
       3.35     7.0524     5.3926
       3.35     7.0603     3.9926
       3.35     7.0603     4.7926
       3.35     7.0681     3.8926
       3.35      7.076     1.4926
       3.35     7.0812     1.1925
       3.35     7.0891     1.0925
       3.35     7.0943    0.69249
       3.35     7.1048    0.49246
       3.35     7.1153    0.39243
       3.35     7.1257    0.39239
       3.35     7.1362    0.79236
       3.35     7.1519    0.79231
       3.35     7.1624     1.1923
       3.35     7.1676     1.5923
       3.35     7.1702     2.7922
       3.35     7.1755     3.4922
       3.35     7.1833     3.3922
       3.35     7.1938     2.9922
       3.35      7.199     2.3922
       3.35     7.2069     2.0921
       3.35     7.2174     1.9921
       3.35     7.2304     1.4921
       3.35     7.2331      1.792
       3.35     7.2383      2.692
       3.35     7.2435      3.392
       3.35     7.2566      2.992
       3.35     7.2592      1.792
       3.35     7.2592      2.292
       3.35     7.2645     1.4919
       3.35     7.2697     1.0919
       3.35     7.2828    0.69189
       3.35     7.2906    0.59186
       3.35     7.2959     1.1918
       3.35     7.3037     1.4918
       3.35     7.3142     1.0918
       3.35     7.3247    0.89175
       3.35     7.3352     1.0917
       3.35     7.3456    0.59169
       3.35     7.3561    0.89165
       3.35     7.3692    0.39161
       3.35     7.3901    0.49155
       3.35     7.4006    0.89151
       3.35     7.4111     1.7915
       3.35     7.4189     1.2915
       3.35     7.4215    0.69145
       3.35     7.4268    0.29143
       3.35     7.4372 8.6062E-03
       3.35     7.4425    0.19138
       3.35     7.4503     1.2914
       3.35     7.4582     1.7913
       3.35     7.4608     1.9913
       3.35     7.4687     1.8913
       3.35     7.4739     1.1913
       3.35     7.4765    0.79127
       3.35     7.4791    0.49126
       3.35     7.4844    0.19124
       3.35     7.4922 8.7832E-03
       3.35     7.5079    0.39117
       3.35     7.5158    0.89114
       3.35     7.5236     1.2911
       3.35     7.5315    0.59109
       3.35      7.542    0.79106
       3.35     7.5524    0.59102
       3.35     7.5603      0.691
       3.35     7.5681    0.39098
       3.35     7.5786    0.69094
       3.35     7.5865    0.39091
       3.35     7.5943    0.39089
       3.35     7.5969    0.69088
       3.35     7.6022    0.89087
       3.35       7.61    0.29084
       3.35     7.6205    0.69081
       3.35     7.6257     2.4908
       3.35      7.631     2.6908
       3.35     7.6336     3.5908
       3.35     7.6388     4.1907
       3.35     7.6441     4.5907
       3.35     7.6493     5.1907
       3.35     7.6519     6.2907
       3.35     7.6598     4.7907
       3.35     7.6624     3.6907
       3.35     7.6676     2.3907
       3.35     7.6728     1.1906
       3.35     7.6781    0.79062
       3.35     7.6886    0.79059
       3.35     7.6964     1.2906
       3.35     7.7069    0.49053
       3.35       7.72    0.49049
       3.35     7.7278     1.7905
       3.35     7.7331     5.2904
       3.35     7.7357     3.9904
       3.35     7.7435     2.2904
       3.35     7.7488     0.9904
       3.35      7.754     1.1904
       3.35     7.7592     3.2904
       3.35     7.7697     5.7903
       3.35     7.7776     7.0903
       3.35     7.7828     5.9903
       3.35     7.7828     5.4903
       3.35     7.7907     5.4903
       3.35     7.7985     3.2902
       3.35     7.8037     2.8902
       3.35     7.8116     3.6902
       3.35     7.8116     4.1902
       3.35     7.8221     4.0902
       3.35     7.8247     2.8902
       3.35     7.8299     1.6901
       3.35     7.8378     1.4901
       3.35      7.843     1.1901
       3.35     7.8535     1.2901
       3.35     7.8613    0.89004
       3.35     7.8639    0.49003
       3.35     7.8823    0.18997
       3.35     7.8954    0.48993
       3.35     7.9084    0.28988
       3.35     7.9215    0.78984
       3.35      7.932    0.58981
       3.35     7.9399     1.1898
       3.35     7.9503     1.4897
       3.35     7.9556     2.1897
       3.35     7.9608     3.1897
       3.35     7.9687     2.8897
       3.35     7.9687     3.6897
       3.35     7.9739     1.7897
       3.35     7.9765    0.98967
       3.35     7.9817    0.58965
       3.35     7.9922    0.28961
       3.35     8.0001    0.58959
       3.35     8.0053     1.9896
       3.35     8.0053    0.98957
       3.35     8.0105     2.4896
       3.35     8.0184     2.3895
       3.35      8.021     1.9895
       3.35     8.0289     1.7895
       3.35     8.0367     1.2895
       3.35     8.0393    0.98947
       3.35     8.0472     1.0894
       3.35     8.0577    0.38941
       3.35     8.0577    0.78941
       3.35     8.0629 1.0611E-02
       3.35     8.0734 8.9355E-02
       3.35     8.0838    0.28932
       3.35     8.0943    0.18929
       3.35     8.1048 1.0746E-02
       3.35       8.11     2.2892
       3.35     8.1179     4.1892
       3.35     8.1231     2.0892
       3.35     8.1231     1.6892
       3.35     8.1257     1.0892
       3.35     8.1336     1.6892
       3.35     8.1362     2.3892
       3.35     8.1414     2.8891
       3.35     8.1467     2.2891
       3.35     8.1519     0.7891
       3.35     8.1598    0.58908
       3.35     8.1676 8.9053E-02
       3.35     8.1781 8.9019E-02
       3.35     8.1833      0.289
       3.35     8.1833      0.689
       3.35     8.1859      2.289
       3.35     8.1938      2.289
       3.35      8.199      4.089
       3.35     8.2016     3.5889
       3.35     8.2069     3.0889
       3.35     8.2121     3.5889
       3.35       8.22     3.7889
       3.35     8.2226     3.0889
       3.35     8.2226     4.2889
       3.35     8.2278     2.3889
       3.35     8.2331    0.98884
       3.35     8.2357     1.2888
       3.35     8.2461     1.0888
       3.35     8.2514     1.2888
       3.35     8.2566     2.0888
       3.35     8.2619     2.2888
       3.35     8.2697     2.2887
       3.35     8.2723     1.7887
       3.35     8.2802     1.5887
       3.35     8.2828    0.88868
       3.35     8.2959    0.88864
       3.35     8.3037     1.4886
       3.35     8.3142     1.4886
       3.35     8.3168    0.98857
       3.74     5.1911    0.53891
       3.74      5.199     1.3497
       3.74     5.2068    0.80913
       3.74     5.2173    0.53881
       3.74     5.4189    0.53806
       3.74      5.432    0.80828
       3.74      5.445    0.53796
       3.74     5.4608    0.80817
       3.74     5.4712    0.80814
       3.74     5.4895     0.5378
       3.74     5.4922     2.1594
       3.74        5.5     1.3486
       3.74     5.5079    0.53773
       3.74      5.521    0.80795
       3.74     5.5367    0.53762
       3.74     5.5498    0.53757
       3.74     5.5602    0.53753
       3.74     5.5733    0.53748
       3.74     5.5838    0.53744
       3.74      5.589     1.6185
       3.74     5.5969     1.3482
       3.74     5.6021    0.53738
       3.74     5.7068    0.53698
       3.74     5.7121     1.0775
       3.74     5.7199    0.53693
       3.74     5.7592    0.53679
       3.74     5.7618     1.3476
       3.74     5.7697     1.6178
       3.74     5.7749      0.807
       3.74     5.7854    0.80696
       3.74     5.7932     1.3475
       3.74     5.7984     2.1583
       3.74     5.8037     2.6988
       3.74     5.8115     2.1582
       3.74     5.8168     1.0771
       3.74     5.8272     0.8068
       3.74     5.8351     0.5365
       3.74     5.8482    0.53645
       3.74     5.8665    0.53639
       3.74     5.8901     1.3471
       3.74     5.9058    0.80651
       3.74     5.9267    0.80643
       3.74     5.9398    0.53611
       3.74      5.945      2.428
       3.74     5.9529     1.8874
       3.74     5.9555     1.0766
       3.74     5.9686    0.80627
       3.74     5.9791     1.0765
       3.74     5.9869     2.1576
       3.74     5.9948      1.617
       3.74     6.0053     1.3467
       3.74     6.0131     1.8872
       3.74     6.0262     2.9682
       3.74     6.0314     4.3195
       3.74     6.0367     9.1844
       3.74     6.0445     7.2925
       3.74     6.0498     3.7789
       3.74     6.0524     1.3465
       3.74      6.055    0.26541
       3.74     6.0628     1.3465
       3.74     6.0786     1.6167
       3.74     6.0786    0.53559
       3.74     6.0916    0.53554
       3.74     6.0969     1.3463
       3.74     6.1021     3.2382
       3.74     6.1074     6.2112
       3.74     6.1152     3.5084
       3.74     6.1204     2.1571
       3.74     6.1335     2.4273
       3.74     6.1414     3.5083
       3.74     6.1492     4.5894
       3.74     6.1545     5.4002
       3.74     6.1597      6.211
       3.74     6.1623     8.1028
       3.74     6.1676     9.7244
       3.74     6.1728     17.292
       3.74     6.1754     21.616
       3.74     6.1833     24.589
       3.74     6.1937     19.454
       3.74      6.199     7.0216
       3.74     6.2016     4.3189
       3.74     6.2068     3.2378
       3.74     6.2121     5.1297
       3.74     6.2199     14.049
       3.74     6.2225     12.697
       3.74     6.2304     9.4539
       3.74     6.2304     6.7512
       3.74     6.2382     6.2107
       3.74     6.2487     7.2917
       3.74     6.2487     6.2106
       3.74      6.254     9.1836
       3.74     6.2566     11.886
       3.74     6.2618     16.211
       3.74     6.2697     22.967
       3.74     6.2723     27.562
       3.74     6.2801     28.373
       3.74      6.288      25.94
       3.74     6.2932     20.264
       3.74     6.2985     17.292
       3.74     6.3037     14.589
       3.74     6.3063     10.535
       3.74     6.3115     8.9131
       3.74     6.3168     7.0212
       3.74      6.322     5.9401
       3.74     6.3246     4.5887
       3.74     6.3325     3.7779
       3.74     6.3351     2.4265
       3.74     6.3456      2.967
       3.74     6.3534     11.616
       3.74     6.3587     12.967
       3.74     6.3613     10.535
       3.74     6.3691     7.8318
       3.74     6.3744      7.021
       3.74      6.377     5.9399
       3.74     6.3822     4.5885
       3.74     6.3927     3.7776
       3.74     6.3979     4.5884
       3.74     6.4058     3.7776
       3.74     6.4136     4.0478
       3.74     6.4241     4.0478
       3.74     6.4267     6.7505
       3.74      6.432     4.8586
       3.74     6.4372     2.9667
       3.74     6.4424     1.8856
       3.74     6.4477     1.0747
       3.74     6.4529     4.5882
       3.74     6.4581     17.291
       3.74     6.4634     14.048
       3.74      6.466      9.453
       3.74     6.4738     5.1287
       3.74     6.4765     4.3179
       3.74     6.4843     3.7773
       3.74     6.4896     4.5881
       3.74     6.4922     6.2097
       3.74     6.5026     5.9394
       3.74     6.5079     5.1286
       3.74     6.5131     4.3177
       3.74      6.521     3.5069
       3.74     6.5288     2.6961
       3.74     6.5393     1.8852
       3.74     6.5498     2.9663
       3.74     6.5628     2.6959
       3.74     6.5681     3.5067
       3.74     6.5733     5.6689
       3.74     6.5759     6.4797
       3.74     6.5812     8.3715
       3.74     6.5864     5.6688
       3.74     6.5916     3.2364
       3.74     6.6021     2.4255
       3.74     6.6152     2.6957
       3.74     6.6231     1.8849
       3.74     6.6361     2.1551
       3.74     6.6466     1.6145
       3.74     6.6571     1.6145
       3.74     6.6702     1.0739
       3.74     6.6806     1.6144
       3.74     6.6937     1.6144
       3.74     6.7068      1.344
       3.74     6.7121     2.1548
       3.74     6.7199     5.6683
       3.74     6.7356      5.398
       3.74     6.7513     7.0195
       3.74     6.7618     3.2357
       3.74     6.7723     2.9654
       3.74     6.7775     3.7762
       3.74     6.7854     3.5059
       3.74     6.8011     3.5058
       3.74     6.8063      2.695
       3.74     6.8168     2.4247
       3.74     6.8246     1.6139
       3.74     6.8351     1.0733
       3.74      6.843    0.53272
       3.74     6.8534     1.0732
       3.74     6.8639      1.884
       3.74     6.8639     1.3435
       3.74      6.877     1.6137
       3.74     6.8848     1.0731
       3.74     6.8953    0.53253
       3.74     6.9058      1.073
       3.74     6.9084     2.1541
       3.74     6.9136      4.046
       3.74     6.9189     7.0189
       3.74     6.9241     7.8297
       3.74      6.932     7.5594
       3.74     6.9346     6.4783
       3.74     6.9398     4.5864
       3.74     6.9477     4.0458
       3.74     6.9581     3.7755
       3.74     6.9634     5.9377
       3.74     6.9686     6.4782
       3.74     6.9738     5.6674
       3.74     6.9765     3.2349
       3.74     6.9843     2.9646
       3.74     6.9896     5.6673
       3.74     6.9948     5.1267
       3.74     7.0026     4.3159
       3.74     7.0105     4.3159
       3.74      7.021     3.7753
       3.74     7.0288     5.1266
       3.74     7.0341     6.2077
       3.74     7.0445     7.0184
       3.74      7.055      4.586
       3.74     7.0576     2.4238
       3.74     7.0707     1.6129
       3.74     7.0864     1.3426
       3.74     7.1021     1.3426
       3.74     7.1126     2.1533
       3.74     7.1231     2.9641
       3.74     7.1335     2.9641
       3.74     7.1414     3.5046
       3.74     7.1492     3.2343
       3.74     7.1597     3.7748
       3.74     7.1702     5.6666
       3.74      7.178     7.0179
       3.74     7.1859     7.5585
       3.74     7.1911     10.802
       3.74     7.1911     8.9098
       3.74     7.1937     11.883
       3.74     7.2016     12.964
       3.74     7.2121     11.342
       3.74     7.2173     12.423
       3.74     7.2225     13.775
       3.74     7.2304     14.045
       3.74      7.233     17.558
       3.74     7.2409      18.91
       3.74     7.2409      19.72
       3.74     7.2461     20.801
       3.74      7.254     20.801
       3.74     7.2566     17.558
       3.74     7.2644     16.747
       3.74      7.267     14.855
       3.74     7.2749     14.045
       3.74     7.2775     11.612
       3.74     7.2827     9.9905
       3.74      7.288     8.6392
       3.74     7.2906     6.7473
       3.74     7.3011     6.4769
       3.74     7.3089     5.3958
       3.74     7.3194     4.0444
       3.74     7.3272     5.3958
       3.74     7.3325     6.4768
       3.74     7.3325     7.8282
       3.74     7.3377     11.882
       3.74      7.343     13.504
       3.74     7.3534     12.693
       3.74     7.3613     11.342
       3.74     7.3639     9.9902
       3.74     7.3691     9.7199
       3.74      7.377     11.342
       3.74     7.3848     12.423
       3.74     7.3927     11.612
       3.74     7.3979     5.6658
       3.74     7.4032     2.9631
       3.74     7.4136      2.963
       3.74     7.4189     1.8819
       3.74     7.4267     1.0711
       3.74      7.432    0.53052
       3.74     7.4398     1.8818
       3.74     7.4477     5.6656
       3.74     7.4503     3.7737
       3.74     7.4608     4.3142
       3.74     7.4634      8.098
       3.74     7.4686      10.26
       3.74     7.4738     12.693
       3.74     7.4765     11.882
       3.74     7.4817     9.9898
       3.74     7.4896     8.6384
       3.74     7.4974      7.287
       3.74     7.5026     6.7465
       3.74     7.5105     5.6654
       3.74      7.521     5.6653
       3.74     7.5262     6.7464
       3.74     7.5262     7.8275
       3.74     7.5341       10.8
       3.74     7.5393     11.881
       3.74     7.5471     9.1787
       3.74     7.5471      10.53
       3.74     7.5524     7.8274
       3.74     7.5576     5.6652
       3.74     7.5602     4.3138
       3.74     7.5681     3.7732
       3.74     7.5759     4.8543
       3.74     7.5838     6.4759
       3.74      7.589     7.8272
       3.74     7.5943     8.9083
       3.74     7.5969      10.53
       3.74     7.6021     7.0164
       3.74     7.6021     9.4488
       3.74       7.61     6.2055
       3.74     7.6126     3.2325
       3.74     7.6231     3.2325
       3.74     7.6361     3.5027
       3.74     7.6388     5.3946
       3.74     7.6466     5.9351
       3.74     7.6492     5.1243
       3.74     7.6545     8.9081
       3.74     7.6597     11.611
       3.74     7.6702     10.259
       3.74     7.6728     8.6377
       3.74     7.6807     6.2053
       3.74     7.6885     5.1241
       3.74     7.6964     9.7187
       3.74     7.7016      11.07
       3.74     7.7042     12.962
       3.74     7.7094      11.34
       3.74     7.7173     9.7186
       3.74     7.7252     10.529
       3.74     7.7304     12.421
       3.74      7.733      11.34
       3.74     7.7409     10.529
       3.74     7.7435     13.232
       3.74     7.7513      11.07
       3.74     7.7592     8.9077
       3.74     7.7697     12.691
       3.74     7.7749      11.61
       3.74     7.7775     9.9887
       3.74     7.7801     9.1779
       3.74     7.7985     8.9075
       3.74     7.8011     7.2859
       3.74     7.8142      6.475
       3.74     7.8246      11.34
       3.74     7.8325     9.7182
       3.74     7.8377     7.8263
       3.74      7.843     6.2046
       3.74     7.8482      4.583
       3.74      7.856     7.5559
       3.74      7.856     9.4478
       3.74     7.8639     10.259
       3.74     7.8691     9.4478
       3.74     7.8744     4.3126
       3.74     7.8744     6.2045
       3.74     7.8822     5.9342
       3.74     7.8848     7.2856
       3.74     7.8901     8.0964
       3.74     7.8927     1.8801
       3.74     7.8927     6.4747
       3.74     7.8979     5.3936
       3.74     7.8979     2.9612
       3.74     7.9032     3.5017
       3.74      7.911     4.0422
       3.74     7.9189     5.1233
       3.74     7.9293     5.3935
       3.74      7.932     7.5557
       3.74     7.9372     9.1773
       3.74     7.9424     9.9881
       3.74     7.9529      11.88
       3.74     7.9529     14.042
       3.74     7.9581     7.8258
       3.74     7.9581     6.2042
       3.74      7.966     5.3934
       3.74     7.9765     4.5825
       3.74     7.9791     3.5014
       3.74     7.9896     3.2311
       3.74     7.9974     4.3122
       3.74         8.     6.4743
       3.74     8.0079     11.069
       3.74     8.0105     8.9067
       3.74     8.0157     7.2851
       3.74     8.0236     9.9878
       3.74     8.0236      11.88
       3.74     8.0314      12.69
       3.74     8.0367     9.4472
       3.74     8.0393     7.8255
       3.74     8.0419     6.2039
       3.74     8.0498     6.2039
       3.74     8.0602     7.0146
       3.74     8.0707     7.5551
       3.74     8.0812      6.474
       3.74     8.0916     7.0145
       3.74     8.0969     5.3929
       3.74     8.1074     7.8253
       3.74     8.1152     6.7442
       3.74     8.1257     8.9063
       3.74     8.1309     11.339
       3.74     8.1335      12.69
       3.74     8.1362     14.312
       3.74     8.1414     8.9062
       3.74     8.1492       2.69
       3.74     8.1492     4.5819
       3.74     8.1571     1.8791
       3.74     8.1676     2.6899
       3.74     8.1754     2.1494
       3.74     8.1833     3.2304
       3.74     8.1885     5.9331
       3.74     8.1964     5.3925
       3.74     8.2016     4.0411
       3.74     8.2094     4.3114
       3.74     8.2199     3.7708
       3.74     8.2356      4.041
       3.74     8.2435     4.5815
       3.74     8.2487     5.3923
       3.74     8.2566     4.5815
       3.74     8.2644     4.0409
       3.74     8.2697      5.122
       3.74     8.2775     7.8246
       3.74     8.2827     7.0138
       3.74     8.2854     5.3922
       3.74      8.288     4.0408
       3.74     8.2958     3.5002
       3.74     8.3115     4.8515
       3.74     8.3168     9.7164
        3.9     5.4112     0.9491
        3.9     5.4164      2.242
        3.9     5.4243      1.923
        3.9     5.4349     1.6052
        3.9     5.4481    0.96605
        3.9     5.4639     1.9412
        3.9     5.4719     1.6222
        3.9     5.4772    0.97936
        3.9     5.4903     2.5985
        3.9     5.5036     1.3141
        3.9     5.5141    0.99631
        3.9     5.5247     1.0012
        3.9     5.5353      1.006
        3.9     5.5485      1.012
        3.9     5.5537     1.0145
        3.9     5.5643     1.9872
        3.9     5.5722     1.9908
        3.9     5.5801     1.6718
        3.9     5.5933     1.3552
        3.9     5.6066     1.0387
        3.9     5.6171     1.6888
        3.9     5.6276     2.9841
        3.9     5.6329      1.696
        3.9     5.6593     1.3855
        3.9     5.6778     3.0071
        3.9     5.6858     1.3976
        3.9     5.7016     1.4049
        3.9     5.7148     1.0883
        3.9     5.7385     2.0671
        3.9      5.749     4.3303
        3.9      5.757     4.0113
        3.9     5.7623     2.7232
        3.9     5.7676     1.7578
        3.9     5.7808     1.4412
        3.9     5.7913     2.0913
        3.9     5.8045       2.42
        3.9     5.8151     1.7796
        3.9     5.8257     1.7844
        3.9     5.8309     4.0452
        3.9     5.8362     4.0476
        3.9     5.8441     3.0834
        3.9     5.8494     1.4727
        3.9     5.8627     1.1561
        3.9     5.8785     1.1634
        3.9     5.8969     5.3659
        3.9       5.91     6.9851
        3.9     5.9127     5.0505
        3.9     5.9205     7.6351
        3.9     5.9233     2.7971
        3.9     5.9313     1.5102
        3.9     5.9391       4.74
        3.9     5.9444     4.4198
        3.9     5.9524     2.1651
        3.9      5.963     1.5247
        3.9     5.9761     3.1439
        3.9      5.984     4.1154
        3.9     5.9893     2.8273
        3.9     5.9973     2.1857
        3.9     6.0052     1.5441
        3.9     6.0211     1.5514
        3.9     6.0369     1.5586
        3.9      6.058     1.8909
        3.9     6.0685     2.8636
        3.9     6.0791     1.9006
        3.9     6.0897     2.2281
        3.9     6.1055     1.9127
        3.9     6.1161     1.9176
        3.9      6.124     2.8891
        3.9     6.1265     7.0843
        3.9     6.1366     21.607
        3.9     6.1421     14.189
        3.9     6.1423     9.6726
        3.9     6.1477     4.5131
        3.9      6.161     2.5834
        3.9     6.1663     1.9406
        3.9     6.1768     3.2359
        3.9     6.1874     3.2407
        3.9     6.1927     2.5979
        3.9     6.2006     2.2789
        3.9     6.2111     3.2516
        3.9     6.2164      1.641
        3.9     6.2244      1.322
        3.9     6.2349     1.6494
        3.9     6.2455     2.2995
        3.9      6.256     2.9496
        3.9     6.2639     3.9211
        3.9     6.2718     5.8604
        3.9     6.2744     7.4747
        3.9     6.2796     7.4772
        3.9     6.2848     10.383
        3.9     6.2902     7.8046
        3.9     6.2956     4.5808
        3.9     6.2982     3.2916
        3.9     6.3035     3.6166
        3.9     6.3087     6.5226
        3.9     6.3163     16.205
        3.9      6.319     13.625
        3.9     6.3218     10.077
        3.9     6.3272      4.918
        3.9     6.3352     3.3085
        3.9     6.3431     3.3122
        3.9     6.3537     2.3491
        3.9     6.3616     2.6754
        3.9     6.3722     3.6481
        3.9     6.3774     5.5862
        3.9     6.3826     7.2018
        3.9     6.3904      12.69
        3.9     6.3932      6.884
        3.9     6.4011     5.5971
        3.9     6.4091     5.9234
        3.9      6.417     5.2818
        3.9     6.4276     4.3188
        3.9     6.4381     4.6462
        3.9     6.4487     5.2963
        3.9     6.4539     7.8797
        3.9     6.4619     5.9476
        3.9     6.4646     4.0131
        3.9     6.4698     5.9512
        3.9     6.4776     7.8906
        3.9     6.4855      11.12
        3.9     6.4882     9.5085
        3.9     6.4962     4.9955
        3.9     6.5016     3.0622
        3.9     6.5121     2.4218
        3.9     6.5227     2.4266
        3.9     6.5306     3.3981
        3.9     6.5332     4.3672
        3.9      6.541      7.597
        3.9      6.549     5.9875
        3.9      6.557     4.0555
        3.9     6.5596     3.4114
        3.9     6.5702     3.0937
        3.9     6.5781      2.452
        3.9     6.5808     2.1306
        3.9     6.5861     1.4878
        3.9      6.594     1.8141
        3.9     6.6019     2.7856
        3.9     6.6071     5.6916
        3.9     6.6124     5.0487
        3.9     6.6203     4.7298
        3.9     6.6282     6.9917
        3.9     6.6308     8.2834
        3.9     6.6388     4.7382
        3.9     6.6467     5.0645
        3.9      6.652     4.7443
        3.9     6.6599     4.7479
        3.9     6.6678     5.0742
        3.9     6.6704     7.0111
        3.9     6.6783     9.2731
        3.9     6.6809     9.2743
        3.9     6.6862     7.9862
        3.9     6.6968      6.378
        3.9     6.7048     4.7685
        3.9     6.7127     4.4495
        3.9     6.7233     3.8091
        3.9     6.7311     6.7163
        3.9     6.7364     8.6545
        3.9     6.7496       7.37
        3.9     6.7576     5.1153
        3.9     6.7761     3.8333
        3.9     6.7813     6.4167
        3.9     6.7865     10.291
        3.9     6.7916     14.164
        3.9     6.7996     13.845
        3.9     6.8156     8.0455
        3.9     6.8209     6.1122
        3.9     6.8263     4.8242
        3.9     6.8368     4.1838
        3.9     6.8421     5.7993
        3.9     6.8499      7.416
        3.9     6.8578     9.0328
        3.9     6.8684     7.4245
        3.9      6.879     6.4615
        3.9      6.887     5.4973
        3.9     6.8949     6.1461
        3.9     6.9027     8.4081
        3.9     6.9053     10.345
        3.9     6.9132     11.317
        3.9     6.9185     9.7058
        3.9     6.9212     8.7392
        3.9     6.9318     6.1631
        3.9     6.9371     5.1976
        3.9      6.945     5.5239
        3.9     6.9555     7.7871
        3.9     6.9608     9.4026
        3.9     6.9661     8.4372
        3.9     6.9662     5.5336
        3.9     6.9767     7.1515
        3.9     6.9872     8.1242
        3.9     6.9952     5.8695
        3.9     7.0058     4.5839
        3.9     7.0163      5.234
        3.9     7.0269     5.2388
        3.9     7.0374     6.5341
        3.9     7.0454     5.2473
        3.9     7.0559     6.5426
        3.9     7.0691     8.1618
        3.9      7.077     9.1332
        3.9     7.0796     9.4571
        3.9     7.0901     12.043
        3.9     7.0927     12.689
        3.9     7.1006     14.306
        3.9     7.1033     11.081
        3.9      7.106     8.5013
        3.9      7.114     7.5371
        3.9     7.1219     7.5407
        3.9     7.1378     5.9349
        3.9     7.1457     5.6159
        3.9     7.1562     6.5886
        3.9     7.1719     13.694
        3.9     7.1823     17.247
        3.9     7.1929     16.929
        3.9      7.193      12.09
        3.9      7.201     10.481
        3.9     7.2115     12.099
        3.9     7.2141     14.035
        3.9     7.2245      18.88
        3.9     7.2299     16.301
        3.9     7.2326     13.076
        3.9     7.2406     9.5309
        3.9      7.246     7.9202
        3.9     7.2513     6.3096
        3.9     7.2618     7.2823
        3.9     7.2724     6.3193
        3.9     7.2804      5.355
        3.9     7.2857      4.067
        3.9     7.2962     6.3302
        3.9     7.3041     6.3338
        3.9     7.3173      5.372
        3.9     7.3252     8.6018
        3.9     7.3357      8.284
        3.9     7.3437     7.3198
        3.9     7.3543     6.6794
        3.9     7.3621     8.9414
        3.9     7.3726     11.205
        3.9     7.3805     10.563
        3.9     7.3859     9.2749
        3.9     7.3886      5.082
        3.9     7.3939     4.7618
        3.9     7.3992     6.0547
        3.9     7.4044     6.7024
        3.9     7.4071     6.7036
        3.9     7.4151     4.4489
        3.9     7.4203     4.4513
        3.9     7.4307     9.2955
        3.9     7.4308     6.0693
        3.9     7.4384     19.623
        3.9     7.4437     17.044
        3.9     7.4466     10.593
        3.9     7.4546      7.048
        3.9     7.4652     5.4398
        3.9     7.4758     3.8315
        3.9     7.4837     5.7709
        3.9     7.4969     4.8091
        3.9     7.5049     3.5222
        3.9     7.5127     4.4937
        3.9     7.5259     6.4355
        3.9     7.5339      4.826
        3.9     7.5418     3.5392
        3.9     7.5524     4.1892
        3.9     7.5629     4.8393
        3.9      7.568      9.681
        3.9     7.5733     10.651
        3.9      7.584     5.1716
        3.9     7.5841     3.5585
        3.9     7.5919     5.4979
        3.9     7.5945     8.4027
        3.9     7.5997     10.663
        3.9     7.5998     6.4694
        3.9     7.6077      6.473
        3.9      7.613     7.7659
        3.9     7.6181     11.317
        3.9     7.6233     14.223
        3.9     7.6259     17.451
        3.9     7.6284     20.033
        3.9     7.6339     14.228
        3.9     7.6366     11.003
        3.9     7.6471     13.266
        3.9     7.6551     12.625
        3.9     7.6657     11.984
        3.9     7.6682     13.598
        3.9     7.6734     19.085
        3.9     7.6785     23.927
        3.9     7.6836     30.382
        3.9     7.6887     34.901
        3.9     7.6969     27.162
        3.9      7.697        22.
        3.9     7.7026     13.292
        3.9     7.7079     11.036
        3.9     7.7159      8.781
        3.9     7.7213     6.2024
        3.9     7.7292      4.593
        3.9     7.7398     5.2431
        3.9     7.7477     4.6014
        3.9     7.7582     6.2194
        3.9     7.7635     7.5123
        3.9     7.7715     5.9028
        3.9     7.7768     3.6469
        3.9     7.7847     5.9089
        3.9     7.8006     3.0126
        3.9     7.8164     3.9877
        3.9     7.8217     3.6675
        3.9     7.8322     4.9628
        3.9     7.8401     6.9022
        3.9     7.8506     9.1653
        3.9     7.8612     7.5571
        3.9     7.8797     5.9525
        3.9     7.8929     6.6037
        3.9      7.906     7.9003
        3.9     7.9114     5.6444
        3.9     7.9194     4.3575
        3.9     7.9299     5.0076
        3.9     7.9351     6.6231
        3.9     7.9404     6.3029
        3.9     7.9457     5.6601
        3.9     7.9563     6.6328
        3.9     7.9642     6.6364
        3.9     7.9773     9.5461
        3.9     7.9853     6.3235
        3.9     7.9958     7.9414
        3.9     8.0038     6.6546
        3.9     8.0065     5.0427
        3.9     8.0143     6.9821
        3.9     8.0195     10.856
        3.9     8.0221      12.47
        3.9     8.0327     10.862
        3.9      8.038     8.9287
        3.9     8.0407     6.6715
        3.9     8.0461     4.4156
        3.9     8.0593     4.0991
        3.9     8.0672     6.0384
        3.9     8.0804     5.7218
        3.9      8.083     7.0135
        3.9     8.0856     8.6278
        3.9     8.0935     9.5993
        3.9     8.1014     10.248
        3.9     8.1145     11.545
        3.9      8.125     14.131
        3.9     8.1277     12.196
        3.9     8.1384     6.3937
        3.9     8.1569     6.4022
        3.9     8.1649     4.1475
        3.9     8.1781     6.0893
        3.9     8.1806     7.7036
        3.9      8.186     6.7381
        3.9     8.1939     5.1287
        3.9     8.2018     6.4228
        3.9     8.2096     9.9752
        3.9     8.2097     8.6847
        3.9     8.2228     9.9813
        3.9     8.2254     11.596
        3.9     8.2359     15.149
        3.9     8.2464     14.831
        3.9     8.2519     10.317
        3.9     8.2572     9.3518
        3.9     8.2651     10.323
        3.9     8.2729     11.617
        3.9     8.2783     7.7484
        3.9     8.2916     6.7865
        3.9     8.3074      5.826
       4.49     6.0557    0.63206
       4.49     6.0611    0.36867
       4.49     6.0662    0.81639
       4.49      6.071     1.7086
       4.49     6.0739     1.2658
       4.49     6.1691    0.88033
       4.49     6.1796     1.1536
       4.49     6.2537    0.75501
       4.49     6.2604     2.9821
       4.49      6.264     1.2949
       4.49     6.2695    0.85373
       4.49     6.3699    0.73825
       4.49     6.4148    0.85501
       4.49     6.4196     1.7472
       4.49      6.426     4.4188
       4.49     6.4324     2.3776
       4.49     6.4385    0.86976
       4.49      6.444     0.4286
       4.49     6.4652    0.44171
       4.49     6.4695     2.1339
       4.49     6.4781    0.89435
       4.49     6.5575    0.67687
       4.49     6.5596     1.5674
       4.49     6.5669     2.8168
       4.49     6.5699     2.0184
       4.49      6.576    0.59945
       4.49     6.6049    0.97304
       4.49     6.6078    0.35246
       4.49     6.7068     2.8148
       4.49     6.7146     3.1752
       4.49     6.7199     3.0007
       4.49     6.7363     2.0328
       4.49     6.7419     1.4138
       4.49     6.7474     1.0616
       4.49     6.7529     0.6204
       4.49     6.7557    0.35537
       4.49     6.8032    0.38488
       4.49     6.9194    0.45701
       4.49     6.9326     0.5541
       4.49     6.9375     1.1796
       4.49      6.945     1.9845
       4.49     6.9504     1.7211
       4.49     6.9562    0.83552
       4.49     6.9748    0.58033
       4.49     6.9771     1.2042
       4.49     6.9874     1.7441
       4.49     6.9959    0.68233
       4.49     7.0066    0.42222
       4.49     7.0224    0.43206
       4.49     7.0542    0.36284
       4.49     7.0618    0.90109
       4.49     7.0749     1.0871
       4.49     7.0857    0.56029
       4.49      7.099    0.39071
       4.49      7.107    0.39563
       4.49     7.1175    0.49107
       4.49     7.1437    0.77413
       4.49     7.1569    0.78233
       4.49     7.1649    0.60947
       4.49     7.1703    0.43497
       4.49     7.1887    0.71311
       4.49      7.202    0.45464
       4.49     7.2097    0.90401
       4.49     7.2226     1.3566
       4.49     7.2336    0.65209
       4.49     7.2443     0.3031
       4.49      7.321    0.26175
       4.49     7.3288    0.44444
       4.49     7.3342    0.26994
       4.49     7.3685    0.29126
       4.49     7.4163     4.5891
       4.49     7.4253     2.5495
       4.49     7.4314     1.1306
       4.49     7.4422    0.69271
       4.49     7.4789     1.1601
       4.49     7.4811     1.9617
       4.49     7.4861     2.5872
       4.49     7.4948     1.1699
       4.49     7.4977    0.63825
       4.49     7.5162    0.64973
       4.49     7.5211     1.2752
       4.49      7.537     1.1962
       4.49     7.5399    0.66448
       4.49      7.569    0.68251
       4.49      7.574     1.1302
       4.49     7.5822    0.69071
       4.49     7.5954    0.61002
       4.49      7.603      1.326
       4.49     7.6105     1.9532
       4.49     7.6188     1.3359
       4.49     7.6271    0.62969
       4.49     7.6325     0.3663
       4.49     7.6403    0.63789
       4.49     7.6431    0.37286
       4.49     7.6535    0.64608
       4.49     7.6615    0.47322
       4.49     7.6693    0.65592
       4.49     7.6747    0.48142
       4.49       7.69      1.469
       4.49     7.7008       1.12
       4.49     7.7089    0.68051
       4.49     7.7188     2.0204
       4.49     7.7284     3.8047
       4.49     7.7311     8.4302
       4.49     7.7407     5.4129
       4.49      7.741     4.7907
       4.49     7.7467     4.0829
       4.49     7.7528      2.575
       4.49     7.7557     2.1322
       4.49     7.7664     1.8721
       4.49     7.7667     1.2499
       4.49     7.7801    0.99144
       4.49     7.7882    0.55191
       4.49     7.7963    0.37905
       4.49     7.8094    0.56503
       4.49       7.82    0.39381
       4.49     7.8303     0.9337
       4.49     7.8401     2.3625
       4.49      7.845      2.988
       4.49     7.8526     3.6151
       4.49     7.8556     2.9945
       4.49     7.8612     2.3756
       4.49     7.8643     1.5772
       4.49     7.8698     1.1361
       4.49     7.8779    0.87432
       4.49     7.8857    0.96812
       4.49     7.8911    0.79362
       4.49      7.907    0.80346
       4.49     7.9171       1.61
       4.49     7.9246      2.326
       4.49     7.9289      4.196
       4.49     7.9365     9.6248
       4.49     7.9449     8.6519
       4.49     7.9484     2.3408
       4.49     7.9501     3.9424
       4.49     7.9572    0.65683
       4.49     7.9652    0.48397
       4.49     7.9783    0.66994
       4.49     7.9861    0.94153
       4.49     7.9963     1.6592
       4.49     8.0013     2.1069
       4.49     8.0041     1.9308
       4.49     8.0097     1.2229
       4.49     8.0153    0.69289
       4.49     8.0206    0.60728
       4.49      8.031    0.88051
       4.49     8.0374     3.8188
       4.49     8.0395     4.7982
       4.49     8.0454     3.6459
       4.49     8.0488     2.1364
       4.49     8.0519      1.427
       4.49     8.0625     1.3446
       4.49     8.0731     1.2623
       4.49     8.0785    0.99891
       4.49     8.0864     1.0927
       4.49     8.0944    0.83096
       4.49     8.1021     1.2803
       4.49     8.1046     1.6375
       4.49      8.115     1.9107
       4.49     8.1204     1.7362
       4.49     8.1233     1.2046
       4.49     8.1288    0.76339
       4.49     8.1342        0.5
       4.49     8.1422    0.50492
       4.49     8.1474    0.59708
       4.49     8.1525    0.95592
       4.49      8.155     1.2242
       4.49      8.163     1.0514
       4.49     8.1711    0.78962
       4.49     8.1765    0.52623
       4.49      8.187    0.62167
       4.49     8.1921    0.89162
       4.49     8.2054    0.81093
       4.49     8.2186    0.73024
       4.49      8.224    0.55574
       4.49     8.2344    0.91785
       4.49     8.2394     1.3656
       4.49      8.249     3.2388
       4.49     8.2576     1.9993
       4.49     8.2631     1.4692
       4.49     8.2714    0.76302
       4.49     8.2793    0.85683
       4.49     8.2874    0.50619
       4.49     8.3005    0.78105
       4.49     8.3108     1.2321
ENDDATA           1371
ENDSUBENT         1382
SUBENT        F1012005   20090827   20090901   20090828       F036
BIB                  2          2
REACTION   (20-CA-40(P,INL)20-CA-40,PAR,DA)
STATUS     (CURVE) Fig.3  from Ref. J,NP/A,231,316,1974
ENDBIB               2
COMMON               4          3
ANG        E-LVL      EN-ERR-DIG ERR-DIG
ADEG       MEV        MEV        MB/SR
 125.       3.35       0.001      0.02
ENDCOMMON            3
DATA                 2        409
EN         DATA
MEV        MB/SR
     5.0038     2.2308
     5.0086     2.3703
     5.0109     2.6493
     5.0133     3.0214
     5.0205     3.0678
     5.0276     3.0212
     5.0347     2.6956
     5.0395     2.5094
     5.0418     2.2769
      5.068     2.4161
      5.068       2.23
     5.0704     2.6486
     5.0728     2.9277
     5.0775     3.0671
     5.0799     3.3927
     5.0847     3.7182
     5.0918     3.4391
     5.0966      3.253
     5.1013     2.9738
     5.1013     2.7413
      5.106     2.4622
     5.1155     2.2295
     5.1274     2.1828
     5.1797     2.1822
     5.1988      2.182
     5.2249     2.2282
     5.2297     2.5537
     5.2392     2.6466
     5.2463     2.6001
     5.2534     2.4139
     5.2653     2.2742
     5.2867      2.274
     5.3081     2.2737
     5.3271     2.2735
     5.3414     2.4594
     5.3581     2.6918
     5.3676     3.0172
     5.3747     3.2962
     5.3819     3.4822
     5.3937     3.4821
     5.4009     3.7145
     5.4056     3.4354
     5.4128     3.2958
     5.4151     3.0167
     5.4246      2.691
     5.4318     2.5049
     5.4436     2.5977
     5.4484     2.9233
     5.4579     2.6441
     5.4603     2.4115
     5.4674     2.3649
     5.4722     2.4579
     5.4793     2.2717
     5.4936     2.3181
     5.5031      2.318
     5.5126     2.6434
     5.5268     2.3177
     5.5435     2.5501
      5.553      2.736
     5.5649     2.5033
      5.572     2.3637
     5.5887     2.3635
     5.5982     2.5959
     5.6029      2.968
     5.6053       3.34
     5.6101     3.8981
     5.6149     4.4562
     5.6268     4.6421
     5.6363     4.2234
      5.641     3.8047
     5.6481     3.8977
     5.6576     3.3394
     5.6648     2.7812
     5.6719      2.502
      5.679     2.5485
     5.6933     2.3623
     5.7147      2.362
     5.7242     2.5945
     5.7361     2.8734
     5.7456     2.5477
     5.7551     2.3615
     5.7717     2.5009
     5.7884     2.2681
     5.8003      2.454
      5.805     3.0121
     5.8098     3.7563
     5.8098     3.4307
     5.8146     3.6167
     5.8169     3.3376
     5.8217     2.9654
      5.824     2.5933
     5.8359     2.3141
     5.8549     2.2673
     5.8644     2.4068
      5.874     2.2671
     5.9072     2.2667
     5.9191     2.3596
     5.9286       2.22
     5.9524     2.2662
     5.9667     2.3125
     5.9833     2.2658
     5.9976     2.2657
     6.0237     2.2654
     6.0475     2.4977
     6.0594      2.358
     6.0784     2.2647
     6.0998     2.2645
     6.1117     2.3109
     6.1236     2.2642
      6.145      2.357
     6.1593     2.4963
     6.1616     2.8684
      6.164     3.4265
     6.1688     3.1009
     6.1735     2.7287
     6.1783     2.4031
     6.1878     2.4495
     6.2044     2.4028
     6.2187     2.4491
     6.2282     2.7281
     6.2306     3.0071
     6.2354     3.3327
     6.2354     3.7978
     6.2378     4.3094
     6.2402     5.0536
     6.2426     5.9373
      6.245     6.7279
     6.2473     6.1232
     6.2521     5.7976
     6.2544     5.1929
     6.2568     4.6813
     6.2615      3.751
     6.2615     4.2161
     6.2639     3.2393
     6.2687     3.5183
     6.2734     3.3322
     6.2734     3.0532
     6.2829       2.96
       6.29     3.0064
     6.2948     2.9599
     6.2996      3.518
     6.3043     4.0295
     6.3091     4.6341
     6.3115     3.7969
     6.3162     3.3782
     6.3186     2.9131
     6.3209      2.727
     6.3328     2.7734
     6.3495     3.0057
     6.3637     3.3312
     6.3709     3.2381
     6.3804     4.4007
     6.3875       3.61
     6.3946     3.0052
     6.4018     2.8656
     6.4137     3.3306
     6.4184     3.8887
     6.4256     4.0746
     6.4303      3.656
     6.4327     3.2838
     6.4374     2.7257
     6.4422     2.9116
     6.4541     2.6324
     6.4683     2.5858
      6.485     3.0042
     6.4945     3.2831
     6.4969     3.7947
     6.4969     4.3529
     6.4993     4.7715
     6.5017     5.3296
     6.5041     5.9807
     6.5088     5.1434
     6.5112     4.5853
     6.5136     4.2131
     6.5159     3.8875
     6.5254     3.1432
     6.5325     2.9106
     6.5468     2.8174
     6.5706     2.8171
     6.5777     3.1426
     6.5825     3.7007
     6.5896     3.2355
     6.5943     2.7238
      6.611     2.9562
     6.6158     3.5608
     6.6182     4.3515
     6.6229     3.8863
       6.63     3.6071
     6.6372     3.4675
     6.6443     3.0023
     6.6657     3.0951
     6.6728     3.5136
     6.6776     3.8856
     6.6847     4.0716
     6.6895     4.7692
     6.6943     5.4668
     6.6967     6.1645
     6.6991     6.7226
     6.7015     7.3738
     6.7062     8.1179
     6.7086     7.5132
      6.711     7.0016
     6.7181     6.3968
     6.7204     5.8851
     6.7228      5.234
     6.7252     4.7223
     6.7323      4.071
     6.7418     3.5128
     6.7513     3.0476
     6.7584     3.4196
     6.7632     3.8846
     6.7727     4.2566
     6.7846     4.9076
     6.7965     4.6749
     6.8107     4.5352
     6.8179     4.7212
     6.8298     5.1862
     6.8369     5.7443
     6.8417     6.1163
     6.8655     6.3486
     6.8726     6.0694
     6.8797     5.6972
     6.8821      5.046
     6.8844     4.5809
     6.8868     4.1623
     6.8963     3.3714
     6.9082      3.976
     6.9154     4.7666
     6.9178     5.2317
     6.9225     5.4177
     6.9344     4.9524
     6.9344     4.6268
     6.9415     4.0221
     6.9439     3.6035
     6.9534      4.208
     6.9605      4.394
     6.9724     4.2078
     6.9771     3.8356
     6.9819      3.603
     7.0009     3.7423
     7.0104     4.3003
     7.0223     3.9746
     7.0271      3.556
     7.0342     3.1838
     7.0461     2.8581
     7.0651     2.5788
      7.077     2.9042
     7.0912     3.0901
      7.096     3.0435
     7.1079     3.2759
      7.115      3.648
     7.1174     4.2991
     7.1198     5.2758
     7.1222      6.113
     7.1246     6.9037
      7.127     7.6013
     7.1318     8.1594
     7.1342     7.7408
     7.1413     7.1826
      7.146     6.6709
     7.1508     6.4848
     7.1579     5.8335
     7.1603     5.3219
     7.1626     5.0428
     7.1698     5.0427
     7.1769     5.0891
     7.1864     4.9495
     7.1935     4.5773
     7.1983     4.2051
     7.2054     3.9725
     7.2101     3.3213
      7.222     3.0421
     7.2339     2.9954
     7.2458     3.4604
     7.2482     4.0185
     7.2506     4.4371
     7.2577     4.7161
     7.2672     4.4369
     7.2743     4.2508
     7.2839     4.6692
      7.291     5.0878
     7.3005       4.39
     7.3077     5.0411
     7.3148     5.5526
     7.3219     5.0874
      7.329     4.3896
     7.3338     4.0175
     7.3409     4.0174
     7.3433     3.8313
     7.3456     2.9941
     7.3552     3.3661
     7.3623     3.8776
     7.3694     3.1799
     7.3765     2.7612
     7.3932       3.04
     7.3979     2.9005
     7.4027     3.0399
     7.4051     3.6446
     7.4099     4.3422
      7.417     4.6212
     7.4241      4.156
     7.4265     3.6443
      7.436        2.9
     7.4431     2.7604
      7.455     3.1323
     7.4693     3.5043
     7.4764     3.1321
     7.4883      3.132
     7.5097     2.7596
     7.5192     3.1316
     7.5263     3.6431
     7.5287      3.364
     7.5311     3.0384
     7.5358     2.8523
     7.5501     3.1777
     7.5572     3.6428
      7.562     4.2939
     7.5691     4.2008
     7.5811     4.9914
     7.5858     4.3866
     7.5882      3.968
     7.5882     3.5959
     7.5977     3.2702
     7.6048     3.4097
     7.6119     3.0375
     7.6167     2.7584
     7.6238     2.9908
     7.6286     3.3164
      7.631     4.1536
     7.6357     4.7116
     7.6358     5.3628
     7.6382     6.5256
     7.6406     9.3163
     7.6501     7.7813
     7.6524     6.6649
     7.6572     5.6881
     7.6619     5.0834
      7.669      5.502
     7.6738     4.7577
     7.6785     3.8739
      7.688     3.0366
     7.6975     3.8737
     7.7023     4.6644
     7.7166     4.9898
     7.7214     6.3851
     7.7262     7.3153
     7.7309     6.8036
     7.7332     5.9198
     7.7356     5.2686
     7.7379     4.0128
     7.7451     4.4778
     7.7475     4.1987
     7.7546     4.0126
     7.7641     3.4543
     7.7736     3.2682
     7.7831      2.989
     7.7997     2.9423
      7.814     3.0816
     7.8283     3.0815
     7.8354     2.8023
     7.8425     2.8487
     7.8592      2.616
     7.8758     3.0809
     7.8949     3.9179
      7.902     3.2667
     7.9115     2.9875
      7.921     3.2199
     7.9281     3.4059
     7.9353       4.15
     7.9424     5.3592
     7.9472     4.7545
     7.9495     3.9638
     7.9566     3.1265
     7.9733     3.0333
     7.9876     3.8238
     7.9947     3.5446
      7.997     2.4748
     8.0042     2.7073
     8.0113     2.5212
     8.0303     2.8465
     8.0375     3.4976
     8.0399     4.0557
     8.0423     5.7301
      8.047     4.7999
     8.0494      3.544
     8.0541     3.1253
     8.0636     3.5903
     8.0731     3.0321
      8.085      3.032
     8.0922     2.9388
     8.1017     3.1713
     8.1136     3.8223
     8.1255     4.7524
     8.1302     4.3338
     8.1373     3.6825
     8.1397     3.9616
     8.1492     3.1707
     8.1635      2.752
     8.1777     2.7518
      8.192     3.5423
     8.2015     3.5422
     8.2111     3.7282
     8.2158     3.5421
     8.2253     4.0071
     8.2324     3.4488
     8.2396     2.9836
     8.2443     3.1696
     8.2467      2.844
     8.2491     2.4719
ENDDATA            411
ENDSUBENT          422
ENDENTRY             5
