ENTRY            F1041   20100129   20100518   20100518       F038
SUBENT        F1041001   20100129   20100518   20100518       F038
BIB                 12         40
TITLE      Energy levels of O-16 in the vicinity of 13 MeV.
AUTHOR     (J.M.Morris,G.W.Kerr,T.R.Ophel)
INSTITUTE  (3AULCBR)
REFERENCE  (J,NP/A,112,97,1968)
           #doi:10.1016/0375-9474(68)90222-4
FACILITY   (VDG,VDGT) The 2 MeV Van de Graaff injector and
           the 12 MeV Van de Graaff tandem accelerator were used.
DETECTOR   (SIBAR) Two surface barrier detectors of 500 omega*cm
           resistivity coupled to Ortec model 103-203 amplifiers.
           One detector was fixed at a suitable angle as a
           monitor.
MONITOR    (6-C-12(A,EL)6-C-12,,DA) Three methods were used to
           determine absolute cross sections. 1.The present data
           were related to be absolute cross section measurements
           by comparison of yield at alpha particle energies of
           4.0 and 6.6 MeV at angle of 71.55, 106.60 and 136.06
           degr. which were common to both sets of data. 2.Gas
           target measurements using natural CO2 were carried out
           at alpha particle energies of 6.6, 7.4 and 8.4 MeV and
           angles of 60, 71.55 and 90 degr. employing a gas cell
           with thin nickel beam entrance and exit windows and a
           mylar window for the reaction products. The gas
           pressure (22 mm of mercury) and temperature were
           monitored continuously. Beam integration was achieved
           using a calibrated integrator, tested before and after
           the measurements and accurate to better than 1%. 3. The
           proton energy equivalents of several of the carbon
           foils used in the 12C(a,a0) measurements were
           determined for incident energies between 300 keV and
           1.8 MeV, using the method of target modulation.)
MONIT-REF  (C1029002,C.M.Jones+,J,NP,37,1,1962) Reference related
           to the first method of monitoring.
METHOD     (BCINT)
SAMPLE     The targets consisted of thin, self-supporting foils
           of natural carbon of 20 mu-g/cm2 thickness. A very thin
           gold layer was evaporated onto the foils to enable
           checking of beam integration and detector angle
           settings by means of Rutherford scattering.
ERR-ANALYS (ERR-DIG)    Data digitizing error
HISTORY    (20100129C)
ENDBIB              40
NOCOMMON             0          0
ENDSUBENT           43
SUBENT        F1041002   20100129   20100518   20100518       F038
BIB                  3          3
REACTION   (6-C-12(A,EL)6-C-12,,DA)
ERR-ANALYS (ANG-ERR-D)  Angle digitizing error
STATUS     (CURVE) Fig.5
ENDBIB               3
COMMON               2          3
ANG-ERR-D  ERR-DIG
ADEG       PER-CENT
 0.155      0.005
ENDCOMMON            3
DATA                 3        639
EN         ANG        DATA
MEV        ADEG       B/SR
        6.6     23.921     35.591
        6.6     30.038     9.9992
        6.6     35.079     5.2999
        6.6     40.485     5.9279
        6.6     45.893     8.0913
        6.6     50.578     9.2782
        6.6     55.983      8.718
        6.6     61.027     6.9679
        6.6     66.068     4.4513
        6.6     71.109      2.217
        6.6     76.505    0.57805
        6.6     81.538 9.5097E-02
        6.6     86.589    0.21893
        6.6     91.643    0.87155
        6.6     96.692     1.6038
        6.6     101.74     2.1352
        6.6     107.51     2.3882
        6.6     111.83     2.2722
        6.6     116.87     1.8851
        6.6     122.28     1.4158
        6.6     126.96     1.2042
        6.6     132.01     1.4157
        6.6     137.05     2.1346
        6.6     142.46      3.259
        6.6     147.51     4.7341
        6.6     152.92     6.7916
        6.6      157.6       8.82
        6.6     163.01     10.763
        6.6      169.5     13.134
      6.885     30.032     3.9808
      6.885     35.433     1.9826
      6.885     40.117      1.958
      6.885     45.885     2.4803
      6.885      50.93     2.6725
      6.885     55.614     2.5426
      6.885     60.658     1.9335
      6.885     65.699     1.1899
      6.885     72.178    0.40292
      6.885     76.496    0.15842
      6.885     86.577 3.9297E-02
      6.885     91.633    0.19817
      6.885     96.682    0.38808
      6.885     101.73    0.50399
      6.885     107.13    0.52314
      6.885     111.82    0.46768
      6.885     116.86    0.38322
      6.885     121.91    0.31013
      6.885     126.95    0.32594
      6.885       132.    0.45047
      6.885     138.49     0.7789
      6.885     142.09     1.1314
      6.885      147.5     1.6849
      6.885     152.19     2.3287
      6.885      157.6     3.0242
      6.885     161.92     3.5112
      6.885     166.97     4.1277
      6.885     169.13     4.5034
      6.965     35.068    0.93955
      6.965     40.832    0.82956
      6.965     45.879     1.0123
      6.965     50.924     1.1044
      6.965     55.969    0.99971
      6.965     61.012    0.76022
      6.965     66.053    0.47371
      6.965     72.893    0.16445
      6.965     76.851 6.7957E-02
      6.965     82.239 4.8559E-03
      6.965     86.931 1.5071E-02
      6.965     91.625  6.228E-02
      6.965     97.034    0.11178
      6.965     101.36    0.14517
      6.965     107.13    0.13472
      6.965     111.81    0.11895
      6.965     117.21    0.10372
      6.965      121.9  8.933E-02
      6.965     127.67    0.12193
      6.965     132.35    0.23877
      6.965     138.48     0.4618
      6.965     142.45    0.64623
      6.965     147.86     1.0242
      6.965     152.55     1.2813
      6.965     157.23     1.6434
      6.965     162.28     1.9561
      6.965     167.32     2.1608
      6.965     169.13     2.2996
       6.99     30.406    0.49989
       6.99     35.441     0.1661
       6.99     40.843    0.11176
       6.99     46.252    0.16202
       6.99     50.937    0.18111
       6.99     56.342    0.17449
       6.99     61.025    0.14137
       6.99     66.067  9.631E-02
       6.99     72.906 3.7587E-02
       6.99     76.503 1.7019E-02
       6.99      81.53 2.2071E-03
       6.99     96.681 1.4486E-02
       6.99     101.73 1.8786E-02
       6.99     106.77 1.6598E-02
       6.99     111.81 1.1591E-02
       6.99     117.22 7.8964E-03
       6.99      121.9 9.3903E-03
       6.99     126.95 2.2061E-02
       6.99     132.01 4.6942E-02
       6.99     137.78 9.3888E-02
       6.99      142.1    0.13443
       6.99     147.15    0.19977
       6.99     151.84    0.26887
       6.99     156.89    0.34438
       6.99     161.93    0.40953
       6.99     169.14    0.47509
      7.064      31.11  4.223E-02
      7.064      36.14 7.6257E-03
      7.064     41.184 6.7419E-03
      7.064     46.236 1.4288E-02
      7.064     51.283 1.9678E-02
      7.064     56.329  2.067E-02
      7.064     61.371 1.6157E-02
      7.064     66.413  1.103E-02
      7.064     72.891 4.1185E-03
      7.064     76.488 1.9432E-03
      7.064     81.519 4.0179E-04
      7.064     86.929 7.2554E-04
      7.064     91.982 1.7178E-03
      7.064     97.032  3.064E-03
      7.064     102.08 2.7764E-03
      7.064     107.12 2.6756E-03
      7.064     112.16 2.0658E-03
      7.064      117.2 1.0756E-03
      7.064     120.08 5.8831E-04
      7.064      122.6 6.0296E-04
      7.064     126.93 9.5089E-04
      7.064     131.98 2.5463E-03
      7.064     138.12 6.3331E-03
      7.064     142.09 1.0492E-02
      7.064     147.13 1.4098E-02
      7.064     152.18  2.065E-02
      7.064     157.23 2.7074E-02
      7.064     161.92 3.2166E-02
      7.064     166.96 3.8689E-02
      7.064     169.13 3.9652E-02
      7.093     30.733 6.4186E-03
      7.093     36.123 1.0375E-03
      7.093     40.812 1.8734E-03
      7.093     45.862  3.383E-03
      7.093     51.271 4.7754E-03
      7.093     56.676 4.6589E-03
      7.093     61.719 3.6418E-03
      7.093       66.4 2.3666E-03
      7.093     72.877 8.2073E-04
      7.093     76.833 3.3405E-04
      7.093     81.141 5.8134E-05
      7.093     86.555 1.5567E-04
      7.093      91.61 4.7149E-04
      7.093      96.66 8.1049E-04
      7.093     101.71 1.0368E-03
      7.093     107.11 1.0495E-03
      7.093     112.16 9.8683E-04
      7.093     116.84 6.8201E-04
      7.093     121.88 4.8908E-04
      7.093     126.56 2.2515E-04
      7.093      131.6 1.2467E-04
      7.093     137.73 3.0627E-04
      7.093     142.06 6.4112E-04
      7.093     147.11 1.2465E-03
      7.093     152.16 2.1427E-03
      7.093     157.21 3.0621E-03
      7.093      161.9 4.0146E-03
      7.093     167.31 4.8886E-03
      7.093     169.11 5.4614E-03
      7.167     31.071 4.7179E-04
      7.167     35.747 1.8279E-04
      7.167     40.799 4.0694E-04
      7.167     45.487 6.4176E-04
      7.167     51.254  7.348E-04
      7.167      60.98 4.9545E-04
      7.167     66.021  3.065E-04
      7.167     72.497  9.057E-05
      7.167      75.37 2.9535E-05
      7.167     80.035 3.2591E-06
      7.167     85.463 4.0675E-05
      7.167     90.877 1.1164E-04
      7.167     96.286 1.7177E-04
      7.167     101.33 2.1438E-04
      7.167     106.38 2.1971E-04
      7.167     111.42 2.1436E-04
      7.167     116.83 1.5951E-04
      7.167     121.15 1.0365E-04
      7.167     125.82 5.2656E-05
      7.167      130.5 1.6753E-05
      7.167     136.26 8.4064E-06
      7.167     140.59 3.0626E-05
      7.167     146.01 8.0016E-05
      7.167     151.06 1.4809E-04
      7.167     156.47 2.4234E-04
      7.167     161.52 3.3376E-04
      7.167     166.56 4.2171E-04
      7.167     168.36 4.3222E-04
        7.4      25.66  2.711E-04
        7.4     30.694 7.6261E-05
        7.4     35.374  4.436E-05
        7.4      40.78 4.9555E-05
        7.4     45.832 9.9973E-05
        7.4     51.237 1.0632E-04
        7.4     56.282 9.7531E-05
        7.4     60.603  6.824E-05
        7.4     65.642 3.6867E-05
        7.4      70.68 1.6156E-05
        7.4     76.072 3.5526E-06
        7.4     80.379  5.077E-07
        7.4     85.447 6.5749E-06
        7.4       90.5 1.7391E-05
        7.4     95.549 2.6108E-05
        7.4     100.24 3.1792E-05
        7.4       106. 3.3395E-05
        7.4     110.68  2.989E-05
        7.4     115.73 2.2241E-05
        7.4     120.77 1.5755E-05
        7.4     125.45 8.7237E-06
        7.4     130.49 6.4914E-06
        7.4     135.54 6.7353E-06
        7.4     140.95  1.463E-05
        7.4     145.64 2.6095E-05
        7.4     150.69 4.0151E-05
        7.4     155.74 5.9538E-05
        7.4     160.78 7.8058E-05
        7.5     30.316 1.0375E-05
        7.5     40.048 1.3271E-05
        7.5     50.501 1.8732E-05
        7.5     55.905 1.5572E-05
        7.5     60.227 1.1446E-05
        7.5     65.627 6.3377E-06
        7.5     71.024 2.5167E-06
        7.5     75.331 3.5091E-07
        7.5     80.729 1.5568E-07
        7.5     85.433 1.3595E-06
        7.5     91.206 3.2991E-06
        7.5     95.534 4.7147E-06
        7.5     100.22 5.7411E-06
        7.5     105.99 6.0306E-06
        7.5     110.67 5.1383E-06
        7.5     115.35 3.6848E-06
        7.5     120.75 2.3363E-06
        7.5     125.43 1.2015E-06
        7.5     131.19 7.3419E-07
        7.5     135.52 1.1867E-06
        7.5     140.57 2.7753E-06
        7.5     145.26 5.3298E-06
        7.5     150.67 8.6147E-06
        7.5     155.36 1.2012E-05
        7.5     160.77 1.5943E-05
        7.5     165.45 1.8942E-05
        7.7     26.801     11.314
        7.7     31.527     3.6225
        7.7     36.628     3.8562
        7.7     41.366     5.5431
        7.7     46.467     6.2817
        7.7     51.566     5.6123
        7.7     57.028     4.1561
        7.7     61.758     2.3079
        7.7     66.487     1.0104
        7.7     70.477    0.14344
        7.7     75.568 5.1403E-02
        7.7     81.416    0.49506
        7.7      86.16     1.2497
        7.7     91.628     1.8886
        7.7     97.094     2.2501
        7.7     101.83       2.25
        7.7     106.93     1.9852
        7.7     116.76    0.88003
        7.7     121.12    0.26803
        7.7     126.57 4.8868E-02
        7.7     131.68    0.23063
        7.7     137.52     0.7202
        7.7     142.63     1.9354
        7.7      148.1     3.4849
        7.7      153.2     5.1362
        7.7     158.67     7.2004
        7.7      163.4     8.5787
        7.7     168.51      10.48
      7.767     32.716    0.21651
      7.767     38.182    0.23928
      7.767     42.558    0.31906
      7.767     48.023     0.3354
      7.767     52.756    0.27452
      7.767      57.85    0.19579
      7.767     62.937 8.8993E-02
      7.767     67.651 2.3915E-02
      7.767     71.988   3.11E-03
      7.767     77.847  1.885E-02
      7.767     82.965 5.6693E-02
      7.767     88.074 9.8314E-02
      7.767     93.179    0.13109
      7.767      98.28    0.14308
      7.767     103.01    0.12944
      7.767     108.47 9.7053E-02
      7.767     113.57 6.5021E-02
      7.767     118.29 2.8465E-02
      7.767     123.36 5.3882E-03
      7.767     133.95 2.0298E-02
      7.767      139.8 7.7431E-02
      7.767     144.18    0.13768
      7.767     149.29     0.2271
      7.767     154.76     0.3144
      7.767      159.5     0.4245
      7.767     164.24    0.51855
      7.767      169.7    0.63344
      7.767      174.8    0.64943
        7.8     22.779    0.14619
        7.8     27.868 4.7673E-02
        7.8     32.597  2.544E-02
        7.8     37.697 2.6073E-02
        7.8     42.798 2.9488E-02
        7.8     47.533 2.8069E-02
        7.8      52.63 2.1672E-02
        7.8     57.725 1.3242E-02
        7.8     62.817 5.9477E-03
        7.8      67.54 1.7361E-03
        7.8     72.637 1.4255E-03
        7.8     74.102 3.0212E-03
        7.8     82.491 7.7964E-03
        7.8     87.595 1.1561E-02
        7.8     92.697 1.3735E-02
        7.8     98.161   1.34E-02
        7.8     102.89 1.1559E-02
        7.8     108.36 8.4956E-03
        7.8     112.72 5.0029E-03
        7.8     117.45 2.3605E-03
        7.8     122.53 5.7279E-04
        7.8       128. 7.8887E-04
        7.8     133.48 4.3681E-03
        7.8     138.59 7.4167E-03
        7.8      143.7 1.3559E-02
        7.8     148.44 2.1121E-02
        7.8     153.54 3.0183E-02
        7.8     159.01 3.8136E-02
        7.8     163.74 4.7013E-02
        7.8     169.21 5.6546E-02
      7.845     32.586 6.1892E-03
      7.845     42.782 4.3918E-03
      7.845     52.976 2.6577E-03
      7.845     57.707 1.6686E-03
      7.845     62.436 8.8253E-04
      7.845     67.532 6.5772E-04
      7.845     82.479 1.8398E-03
      7.845     86.853 2.3217E-03
      7.845     92.317 2.3216E-03
      7.845      97.78 2.0538E-03
      7.845     102.88 1.5306E-03
      7.845     107.97 1.0092E-03
      7.845     112.34 5.8158E-04
      7.845     117.43 2.8233E-04
      7.845     122.53 3.0758E-04
      7.845     127.64 5.6049E-04
      7.845     133.47 1.0859E-03
      7.845     138.21 1.8162E-03
      7.845     143.32 2.7541E-03
      7.845     148.06 3.7866E-03
      7.845     153.52 4.8373E-03
      7.845     158.26 5.8842E-03
      7.845     163.36 6.4895E-03
      7.845     168.47 8.1894E-03
        7.9      22.38 3.5672E-03
        7.9     27.109   1.91E-03
        7.9     32.566 1.0226E-03
        7.9     37.299 8.1026E-04
        7.9     42.394 4.7849E-04
        7.9     47.125 3.3542E-04
        7.9     51.857 2.3513E-04
        7.9     57.318 1.7524E-04
        7.9     62.418 1.7309E-04
        7.9     67.155 1.9563E-04
        7.9     71.894  2.657E-04
        7.9     76.995 3.0031E-04
        7.9     82.096  3.312E-04
        7.9     87.195   2.93E-04
        7.9     91.928 2.3791E-04
        7.9     97.023 1.4576E-04
        7.9     102.12 8.3992E-05
        7.9     107.21  3.311E-05
        7.9     111.94 2.5288E-05
        7.9     117.41 5.4034E-05
        7.9     122.52 1.0728E-04
        7.9     127.62 1.7724E-04
        7.9     133.09 2.5908E-04
        7.9     137.83 3.2296E-04
        7.9     142.93 4.2802E-04
        7.9     148.03 4.5503E-04
        7.9     153.14 5.2062E-04
        7.9     157.87 5.4673E-04
        7.9     162.97 5.6715E-04
        7.9     169.16 5.2052E-04
       7.96     32.186 2.4399E-04
       7.96     41.642   5.68E-05
       7.96     47.102  3.838E-05
       7.96     51.844 7.0801E-05
       7.96     56.946 8.7184E-05
       7.96     62.048 9.9751E-05
       7.96     67.148 1.0604E-04
       7.96     71.515  6.823E-05
       7.96     76.611 4.6104E-05
       7.96     81.343 3.2319E-05
       7.96     86.436 1.8624E-05
       7.96     91.161 6.9054E-06
       7.96     96.249 2.2653E-06
       7.96     101.36 4.8404E-06
       7.96     106.83 1.2429E-05
       7.96     111.57 2.0788E-05
       7.96     116.68 2.9289E-05
       7.96     121.78 3.5628E-05
       7.96     126.88 3.6959E-05
       7.96     131.98 3.6957E-05
       7.96     137.08 3.0008E-05
       7.96     141.81 2.6548E-05
       7.96     147.27 2.3775E-05
       7.96     152.01 2.1292E-05
       7.96     157.11 2.1291E-05
       7.96     161.84 2.1818E-05
       7.96     167.31 2.2912E-05
      8.015     26.338 3.4805E-05
      8.015     31.063 1.2905E-05
      8.015     35.783 3.2734E-06
      8.015      40.88 2.3805E-06
      8.015     45.988 5.1493E-06
      8.015     51.093 8.1009E-06
      8.015     56.195 9.4985E-06
      8.015      60.93 9.1553E-06
      8.015     65.665 8.5061E-06
      8.015      70.76 5.8185E-06
      8.015     75.854 3.1926E-06
      8.015     80.944 1.2585E-06
      8.015     85.295 1.9799E-07
      8.015     90.397 2.5605E-07
      8.015     95.515 1.2895E-06
      8.015     100.99  3.039E-06
      8.015     106.09 4.4969E-06
      8.015     111.19 5.4035E-06
      8.015     115.93 5.4032E-06
      8.015     120.67  5.208E-06
      8.015      125.4 4.2288E-06
      8.015     130.86 2.5907E-06
      8.015     135.59 1.4215E-06
      8.015     140.68  5.885E-07
      8.015      145.4 2.7203E-07
      8.015     150.51   6.57E-07
      8.015     155.62 1.4212E-06
      8.015     160.73 2.4659E-06
      8.015     165.83 3.5173E-06
       8.05     32.312     21.422
       8.05     36.659      6.902
       8.05     41.731     1.8916
       8.05     46.792     2.6472
       8.05     51.851     4.9326
       8.05     57.274     6.8177
       8.05     62.698     7.3466
       8.05     67.039     6.4871
       8.05     72.104     4.5784
       8.05      77.17     2.9988
       8.05     81.877     1.4036
       8.05     86.948     0.3993
       8.05     90.576 7.0789E-02
       8.05     96.352    0.34824
       8.05     101.77     1.1081
       8.05     107.19     2.0648
       8.05     112.25     2.7493
       8.05     118.04     3.6608
       8.05     122.74     3.5267
       8.05     127.44     3.1531
       8.05      132.5     2.4584
       8.05     137.21     1.5512
       8.05     141.92    0.74432
       8.05     146.63    0.21981
       8.05     150.62 3.4407E-02
       8.05     156.39    0.20401
       8.05     161.81    0.69952
       8.05     167.23     1.4579
       8.05     172.29     2.1445
      8.113     36.668     1.8681
      8.113     46.077    0.69889
      8.113     56.558     2.0899
      8.113     61.621     2.3377
      8.113     66.685     1.9885
      8.113      71.75     1.3861
      8.113     76.455    0.84255
      8.113     81.523    0.39929
      8.113      85.87     0.1439
      8.113     95.635    0.13692
      8.113     101.42    0.33134
      8.113     106.11    0.53839
      8.113     111.54    0.79193
      8.113      116.6    0.90816
      8.113     121.66    0.83242
      8.113     131.43    0.63307
      8.113     136.49    0.39452
      8.113      141.2    0.23391
      8.113     145.55 8.6424E-02
      8.113     154.96 2.8906E-02
      8.113      161.1 8.8613E-02
      8.113     166.15    0.24898
      8.113     171.58    0.31937
      8.147     35.184  8.556E-02
      8.147     44.598 2.9315E-02
      8.147      55.44 6.2136E-02
      8.147     60.141 6.5277E-02
      8.147     65.568 5.3608E-02
      8.147     69.912 3.8447E-02
      8.147      74.98 2.3496E-02
      8.147     79.688 1.2695E-02
      8.147     84.763 4.4578E-03
      8.147      84.78 9.1049E-04
      8.147     89.116 1.2388E-03
      8.147     94.893  3.277E-03
      8.147     99.944 9.4493E-03
      8.147       105. 1.7707E-02
      8.147     110.42 2.5308E-02
      8.147     115.12 3.0072E-02
      8.147     119.82 3.0446E-02
      8.147     124.89 2.8985E-02
      8.147     129.95 2.7256E-02
      8.147     135.02 2.1571E-02
      8.147     139.72  1.931E-02
      8.147     144.42 1.6865E-02
      8.147     150.21 1.7937E-02
      8.147     154.55 1.9313E-02
      8.147     160.33 2.5014E-02
      8.147     165.03 2.6604E-02
      8.196      29.41  5.227E-02
      8.196     33.763 1.4525E-02
      8.196       39.2  4.346E-03
      8.196     44.618 8.2451E-03
      8.196     49.314 1.5451E-02
      8.196     54.736 2.0259E-02
      8.196     59.799  2.026E-02
      8.196     64.863 1.8136E-02
      8.196     69.568 1.3168E-02
      8.196     74.636 7.7555E-03
      8.196     79.346 3.5269E-03
      8.196     94.187 9.3309E-04
      8.196     99.239 2.9327E-03
      8.196      104.3 5.1676E-03
      8.196     109.36 7.0308E-03
      8.196     114.42 8.3541E-03
      8.196     119.12 8.7763E-03
      8.196     124.18 7.2074E-03
      8.196     129.25 5.4974E-03
      8.196     133.59 3.5728E-03
      8.196     139.03 1.8604E-03
      8.196     143.74 7.7618E-04
      8.196     149.16 7.5735E-04
      8.196     153.85 1.5855E-03
      8.196     159.27 3.7084E-03
      8.196     164.33 5.5678E-03
      8.196     169.75 7.6692E-03
      8.247      29.06 1.6227E-02
      8.247     34.136 4.5652E-03
      8.247     39.213 1.2226E-03
      8.247      44.27 2.1543E-03
      8.247     49.327  4.087E-03
      8.247     54.026 5.2933E-03
      8.247      59.45 5.5609E-03
      8.247     64.153 4.7973E-03
      8.247     69.581 3.5264E-03
      8.247     74.649 2.1818E-03
      8.247     79.359 9.9217E-04
      8.247     83.712 2.6246E-04
      8.247     87.712 3.1185E-05
      8.247     93.835  3.845E-04
      8.247      99.25  9.447E-04
      8.247     103.95   1.49E-03
      8.247     110.45 1.8829E-03
      8.247     114.43 1.9538E-03
      8.247     119.13 1.7926E-03
      8.247     124.56 1.4541E-03
      8.247     129.27 1.0301E-03
      8.247     133.97  6.452E-04
      8.247     138.32 3.4434E-04
      8.247     143.03 2.0032E-04
      8.247     148.09 2.1836E-04
      8.247     153.51 3.8006E-04
      8.247     158.93 6.4539E-04
      8.247     163.99   9.69E-04
      8.247     169.41 1.2863E-03
        8.3     28.729 8.6597E-04
        8.3     33.445  1.928E-04
        8.3     37.799 5.1635E-05
        8.3     42.852 1.3327E-04
        8.3     48.271 2.4669E-04
        8.3     53.331 3.1559E-04
        8.3     58.394 3.2749E-04
        8.3     63.819 3.1177E-04
        8.3     68.525 2.0014E-04
        8.3     73.232 1.1643E-04
        8.3     77.943 4.7981E-05
        8.3     81.936 1.0815E-05
        8.3     92.418 1.9294E-05
        8.3     97.833 5.1039E-05
        8.3     102.89 8.5611E-05
        8.3     107.95 1.1648E-04
        8.3     113.01 1.3175E-04
        8.3     118.08 1.2855E-04
        8.3     122.78 1.1227E-04
        8.3     128.21 8.5637E-05
        8.3     132.55  5.106E-05
        8.3     137.26 2.3799E-05
        8.3     141.61 7.2981E-06
        8.3     146.32  5.776E-06
        8.3     152.45 2.0533E-05
        8.3     157.87 4.9833E-05
        8.3     162.56 8.5672E-05
        8.3     167.99 1.1373E-04
        8.5     27.311 4.8546E-05
        8.5     32.749 1.3827E-05
        8.5     36.741 3.3556E-06
        8.5     41.797 6.9392E-06
        8.5     47.216 1.3004E-05
        8.5     52.638 1.6636E-05
        8.5     57.339 1.7263E-05
        8.5     62.404  1.453E-05
        8.5      67.47 1.0681E-05
        8.5     71.815 6.5271E-06
        8.5     76.525 2.8606E-06
        8.5     81.241 7.2036E-07
        8.5       85.6 1.0296E-07
        8.5     91.365  8.992E-07
        8.5     96.417 2.5611E-06
        8.5     101.84 4.2434E-06
        8.5      106.9 5.9173E-06
        8.5     111.96 6.8599E-06
        8.5     117.02 6.8603E-06
        8.5     121.36 5.7036E-06
        8.5     126.43 4.4043E-06
        8.5     131.14 2.6915E-06
        8.5     135.84 1.2545E-06
        8.5     140.56 4.4596E-07
        8.5     145.26 4.2455E-07
        8.5     150.67 1.1094E-06
        8.5     155.73 2.5006E-06
        8.5     161.51 4.4061E-06
        8.5     166.57 6.0691E-06
ENDDATA            641
ENDSUBENT          653
SUBENT        F1041003   20100129   20100518   20100518       F038
BIB                  3          3
REACTION   (6-C-12(A,EL)6-C-12,,DA)
ERR-ANALYS (EN-ERR-DIG) Energy digitizing error
STATUS     (CURVE) Fig.6
ENDBIB               3
COMMON               2          3
EN-ERR-DIG ERR-DIG
MEV        MB/SR
 0.0016     0.023
ENDCOMMON            3
DATA                 3        327
ANG-CM     EN         DATA-CM
ADEG       MEV        MB/SR
      71.55      6.605     49.604
      71.55     6.7038     46.108
      71.55     6.8025     42.611
      71.55     6.9012     39.433
      71.55     7.0031     39.116
      71.55     7.0254     38.481
      71.55     7.0382     37.209
      71.55     7.0636     38.163
      71.55     7.0828     36.256
      71.55     7.1146     34.667
      71.55     7.1242     34.031
      71.55     7.1465     34.031
      71.55     7.1528     36.893
      71.55     7.1624     35.303
      71.55     7.1783     34.032
      71.55     7.1974     33.396
      71.55     7.2229      32.76
      71.55     7.2675     31.807
      71.55     7.3057     31.172
      71.55     7.4044     25.132
      71.55     7.5063     19.092
      71.55     7.6051     9.5544
      71.55      7.621     9.2366
      71.55     7.6465     6.6933
      71.55     7.6688     4.4679
      71.55     7.6847     2.8783
      71.55     7.6943     1.9245
      71.55     7.7134     1.2889
      71.55      7.758    0.65356
      71.55     7.7739     1.6077
      71.55     7.7898     4.4695
      71.55     7.8057     10.193
      71.55      7.828     16.552
      71.55     7.8471     24.502
      71.55     7.8598     28.953
      71.55     7.8853     45.806
      71.55      7.898     55.662
      71.55     7.9458     67.746
      71.55     7.9553     69.335
      71.55      7.984     74.741
      71.55     8.0031     77.603
      71.55     8.0254     79.511
      71.55     8.0572     80.783
      71.55     8.1018     78.876
      71.55     8.1114     75.697
      71.55     8.1273     76.651
      71.55       8.14     75.379
      71.55     8.1528     74.425
      71.55     8.1559     76.015
      71.55     8.1655     74.744
      71.55     8.1782     74.108
      71.55     8.1878     72.518
      71.55     8.1942     71.246
      71.55     8.2101     72.518
      71.55     8.3088     66.479
      71.55     8.4044     63.936
      71.55     8.4999     62.348
      104.5     6.6903     64.766
      104.5     6.7316     66.671
      104.5     6.7665     62.545
      104.5      6.811     62.229
      104.5     6.8491      55.88
      104.5     6.8904     49.532
      104.5     6.9094     45.088
      104.5     6.9317     41.914
      104.5     6.9475     37.152
      104.5     6.9666     30.803
      104.5     6.9857     23.502
      104.5     7.0079     13.344
      104.5      7.027     10.487
      104.5     7.0492     19.376
      104.5     7.0745      35.25
      104.5     7.0935     54.933
      104.5     7.1094     66.044
      104.5     7.1506     76.204
      104.5     7.1919     79.379
      104.5       7.23     78.745
      104.5     7.2681     78.111
      104.5     7.3125     74.937
      104.5     7.3506     76.843
      104.5     7.3887     73.351
      104.5       7.43     72.717
      104.5     7.4681     71.131
      104.5     7.5062     70.814
      104.5     7.5475     71.132
      104.5     7.5951     67.324
      104.5       7.63     67.324
      104.5     7.6618     66.055
      104.5     7.7062      58.12
      104.5     7.7507     58.121
      104.5      7.792     51.455
      104.5     7.8364     43.519
      104.5     7.8714      24.79
      104.5     7.9063     2.8857
      104.5     7.9444     5.4261
      104.5     7.9825     25.109
      104.5      8.011      67.65
      104.5     8.0237     73.999
      104.5      8.049     78.761
      104.5     8.0681     79.714
      104.5     8.0871     80.032
      104.5     8.1094     72.413
      104.5     8.1253     45.112
      104.5     8.1475     36.224
      104.5     8.1665     65.431
      104.5     8.2046      78.13
      104.5     8.2427     79.083
      104.5     8.2871     81.306
      104.5     8.3189     81.307
      104.5     8.3602     78.768
      104.5     8.4046     80.039
      104.5     8.4363     80.992
      104.5     8.4776      78.77
      106.6     6.5987      64.06
      106.6     6.7005     63.746
      106.6     6.8022     57.806
      106.6     6.9007     46.554
      106.6     6.9992     15.927
      106.6     7.0183     9.6769
      106.6     7.0406     8.7389
      106.6     7.0565     16.239
      106.6      7.082     34.676
      106.6     7.1042     52.175
      106.6     7.1202     63.737
      106.6     7.1393     70.299
      106.6     7.1647     76.549
      106.6      7.187     69.361
      106.6     7.2029     74.048
      106.6     7.3078     69.671
      106.6     7.4222     70.606
      106.6     7.5208     68.104
      106.6     7.6225      56.54
      106.6     7.7147     48.413
      106.6     7.7624     42.787
      106.6     7.8037     38.098
      106.6     7.8228     33.723
      106.6     7.8419      27.16
      106.6     7.8609      20.91
      106.6     7.8768     10.909
      106.6       7.88     13.097
      106.6     7.8959     7.4715
      106.6     7.9118     4.0337
      106.6      7.934     4.0332
      106.6     7.9627     15.595
      106.6     7.9754     30.595
      106.6     7.9818     42.157
      106.6     7.9977     59.032
      106.6     8.0169     75.281
      106.6     8.0391     81.843
      106.6     8.0582     88.718
      106.6     8.0868     89.342
      106.6     8.1059     88.405
      106.6     8.1123     86.217
      106.6     8.1186     81.842
      106.6     8.1218     78.717
      106.6     8.1281     71.529
      106.6     8.1345     58.404
      106.6     8.1408     37.779
      106.6     8.1567     43.091
      106.6     8.1599     54.341
      106.6     8.1631     62.153
      106.6     8.1726     67.778
      106.6     8.1822     79.028
      106.6     8.2013      88.09
      106.6     8.2236     91.527
      106.6     8.3158     93.088
      106.6     8.4207     93.711
      106.6     8.5193     97.146
     124.89     6.6086     33.653
     124.89     6.7076      33.02
     124.89     6.8067     32.069
     124.89     6.9025     29.214
     124.89      6.944     29.532
     124.89     6.9856     25.088
     124.89     7.0111     20.009
     124.89     7.0239     16.517
     124.89     7.0431     12.391
     124.89     7.0623     8.8989
     124.89     7.0847     8.2644
     124.89      7.107     11.122
     124.89     7.1262     13.979
     124.89     7.1421     15.884
     124.89     7.1645      17.79
     124.89     7.1869      19.06
     124.89     7.2092     19.695
     124.89     7.3019     19.697
     124.89     7.4009     17.476
     124.89        7.5     13.986
     124.89     7.6054     8.5911
     124.89     7.6533     5.0999
     124.89     7.6821     3.1957
     124.89     7.7045     1.6088
     124.89     7.7204    0.97412
     124.89     7.7907     1.2928
     124.89      7.861     20.659
     124.89     7.8865     40.342
     124.89      7.928     50.819
     124.89     7.9536     52.089
     124.89     7.9632     56.851
     124.89     8.0079     58.439
     124.89     8.0494     58.758
     124.89     8.0846     57.171
     124.89     8.1229     56.219
     124.89     8.1325     55.902
     124.89     8.1421     55.267
     124.89     8.1485     57.172
     124.89     8.1549      56.22
     124.89     8.1676      54.95
     124.89     8.1772     54.316
     124.89     8.2028     54.633
     136.06     6.5996     62.559
     136.06     6.6991     61.599
     136.06     6.7986     62.878
     136.06     6.8949     71.837
     136.06     6.9399     82.077
     136.06     6.9752     90.397
     136.06     6.9977     92.637
     136.06     7.0073     101.28
     136.06     7.0233     90.396
     136.06     7.0394     77.276
     136.06     7.0554     51.676
     136.06     7.0779     27.036
     136.06     7.0971     10.076
     136.06     7.1067     4.9557
     136.06     7.1164     1.7557
     136.06     7.1645    0.79533
     136.06      7.187     2.3952
     136.06     7.2095      3.675
     136.06     7.2544     6.5547
     136.06     7.2929     8.4744
     136.06     7.3957     13.274
     136.06     7.5016     16.473
     136.06     7.5979     18.712
     136.06      7.614     19.992
     136.06     7.6332     21.272
     136.06     7.6525     21.912
     136.06     7.6782     24.152
     136.06     7.6975     26.072
     136.06     7.7167     28.631
     136.06     7.7263     30.231
     136.06     7.7392     31.831
     136.06     7.7488     33.431
     136.06     7.7585     35.351
     136.06     7.7841     38.871
     136.06      7.797     42.711
     136.06     7.8259     49.111
     136.06     7.8484     54.871
     136.06     7.8548     56.791
     136.06     7.8773      63.19
     136.06     7.9029      70.87
     136.06      7.919      66.71
     136.06     7.9286      63.51
     136.06     7.9415      60.31
     136.06     7.9479      53.91
     136.06     7.9607      44.63
     136.06     7.9735      37.59
     136.06     7.9832      32.15
     136.06     8.0056     21.269
     136.06     8.0185     17.429
     136.06     8.0377     14.229
     136.06     8.0506     14.869
     136.06     8.0891     14.229
     136.06     8.1051     17.429
     136.06     8.1116     20.629
     136.06     8.1212     25.429
     136.06     8.1308     35.669
     136.06     8.1437     39.188
     136.06     8.1437     43.028
     136.06     8.1533     41.428
     136.06     8.1565     38.868
     136.06     8.1629     29.588
     136.06     8.1694     23.188
     136.06     8.1822     18.708
     136.06      8.195     16.468
     136.06     8.2047     14.868
     136.06      8.301     12.947
     136.06     8.4101     12.307
     136.06     8.5032     11.986
       167.     6.5989     368.25
       167.      6.701    357.135
       167.     6.7935    355.545
       167.     6.8924     392.05
       167.     6.9817     479.35
       167.     6.9945    492.045
       167.     7.0136     488.87
       167.      7.036     458.71
       167.     7.0487     377.76
       167.      7.071     271.41
       167.     7.0933     192.04
       167.     7.1093    155.535
       167.     7.1252    142.835
       167.     7.1507    136.485
       167.     7.1731     139.66
       167.      7.189    141.245
       167.     7.2879    169.815
       167.       7.39    188.855
       167.     7.4314     203.14
       167.     7.4921     219.01
       167.     7.5941    249.165
       167.     7.6898    301.545
       167.     7.7122    312.655
       167.     7.7473     314.24
       167.     7.7823     301.54
       167.     7.8429     225.35
       167.     7.8716     160.27
       167.     7.9099     84.075
       167.     7.9195     60.265
       167.      7.929     45.981
       167.     7.9386     31.695
       167.     7.9514    20.5835
       167.     7.9641      22.17
       167.     7.9737     33.281
       167.     7.9928    44.3915
       167.     8.0152    49.1525
       167.     8.0311      50.74
       167.     8.0502    49.1515
       167.      8.079     47.563
       167.     8.0949    33.2765
       167.     8.1077    23.7525
       167.      8.114     12.641
       167.     8.1364     22.164
       167.     8.1427     39.624
       167.     8.1523      53.91
       167.      8.197      76.13
       167.     8.2991     71.365
       167.     8.3947     76.125
       167.     8.4936      74.53
ENDDATA            329
ENDSUBENT          341
ENDENTRY             3
