ENTRY            F1066   20100427   20110216   20110112       F039
SUBENT        F1066001   20100427   20110216   20110112       F039
BIB                 10         24
TITLE      The O-16(He3,a)O-15 and the O-16(He3,He3)O-16 reactions
AUTHOR     (W.P.Alford,L.M.Blau,D.Cline)
INSTITUTE  (1USAROC)
REFERENCE  (J,NP,61,368,1965)
           #doi:10.1016/0029-5582(65)90098-2
FACILITY   (CYCLO,1USAROC) The 68.5 cm variable energy cyclotron.
INC-SOURCE The accelerator produces an external 3He beam of up to
           0.03 mu-A with energy between 6.00 and 11.00 MeV.
DETECTOR   (MAGSP) For scattering angles between 0 and 30 degr. a
           Buechner-Bainbridge type magnetic spectrometer was
           used.
           (SIBAR) For the range of angles 20-174 degr. an array
           of three surface barrier counters, mounted about 15
           degrees apart in a common rotating support, was used.
MONITOR    On each angular range the individual data points were
           normalized by comparison with a fixed monitor detector.
           The relative normalization of the two ranges was
           obtained by comparison of points in the range 20-30
           degr.
ERR-ANALYS (ERR-SYS)    The absolute cross sections have an
           uncertainty due mainly to uncertainties in target
           composition and integrator calibration.
           (ERR-DIG)    Data digitizing error
HISTORY    (20100427C)
ENDBIB              24
COMMON               2          3
EN-RSL     ERR-SYS
KEV        PER-CENT
  50.        20.
ENDCOMMON            3
ENDSUBENT           31
SUBENT        F1066002   20100427   20110216   20110112       F039
BIB                  6         15
REACTION   (8-O-16(HE3,A)8-O-15,PAR,DA)
METHOD     (BCINT)
DETECTOR   (SIBAR) The alpha particles were detected by a 16 mm
           long * 6 mm wide three surface barrier detectors,
           indicating both position and energy, which was placed
           at a fixed position in the focal plane of the
           spectrometer.
SAMPLE     A target of 0.60 mg/cm2 Mylar (C10H8O4) was used. The
           thickness of the targets was measured by observing the
           energy loss in the foils of a particles from a Po210
           radioactive source. The target thickness was measured
           with an uncertainty of about 5 %.
ERR-ANALYS (ANG-ERR-D)  Angle digitizing error
           (DATA-ERR)   Error from the graphic bars
STATUS     (CURVE) Fig.1
ENDBIB              15
COMMON               3          3
E-LVL      ANG-ERR-D  ERR-DIG
MEV        ADEG       PER-CENT
 0.         0.289      0.01
ENDCOMMON            3
DATA                 4        204
EN         ANG-CM     DATA-CM    DATA-ERR
MEV        ADEG       MB/SR      MB/SR
       8.00     4.5183     12.919     0.7064
       8.00     8.7315     13.456    0.55568
       8.00     11.557     14.422    0.78856
       8.00     14.816     14.204    0.96411
       8.00     17.104     12.683    0.69349
       8.00     23.563     10.541    0.71545
       8.00     29.415     6.0795    0.49174
       8.00     35.706     3.2678     0.2218
       8.00      40.82     3.1272    0.17099
       8.00     46.909     3.3479    0.18305
       8.00     50.211     3.6899    0.15237
       8.00     53.411     3.1135    0.17024
       8.00     58.422     2.2812    0.15518
       8.00     62.093     1.9519   8.06E-02
       8.00     65.331     1.8173    0.12335
       8.00     71.388     1.7882    0.12137
       8.00     77.537     2.2344   9.23E-02
       8.00     83.284     3.3057    0.18075
       8.00     88.918     3.6404    0.19905
       8.00     94.959     3.4341    0.23308
       8.00     100.95     2.8146    0.11623
       8.00     106.92     2.2117   9.13E-02
       8.00     113.39     1.9173   7.92E-02
       8.00     116.18     1.8623     0.1264
       8.00     118.92     1.6165    6.7E-02
       8.00     123.04     1.3073    5.4E-02
       8.00     126.31      1.343   9.12E-02
       8.00     131.54     1.7266    0.11719
       8.00     137.16     1.8229   7.53E-02
       8.00      140.9     1.8724    0.10238
       8.00     143.32     2.3428     0.1281
       8.00     155.59     3.4098    0.23144
       8.00     160.89     5.3372    0.29183
       8.00     167.57     7.7833    0.42557
       8.00      174.2     10.143    0.68845
       8.50     4.8405     6.7838    0.63719
       8.50     9.5134     8.7318    0.59402
       8.50      14.65     11.397    0.92399
       8.50     19.261     11.709    0.94926
       8.50     24.725     9.4647    0.76731
       8.50     30.186     7.5435    0.41342
       8.50     35.182     5.9288    0.40333
       8.50     40.245      5.921     0.3245
       8.50      44.38     5.7503    0.31514
       8.50      49.86     4.9176    0.13665
       8.50     54.423     4.2661    0.23332
       8.50     59.903     3.6483    0.19953
       8.50     64.915     3.0337   8.43E-02
       8.50     69.982     3.0727    0.20903
       8.50     75.065     3.2926    0.18045
       8.50     79.663     3.2427    0.13422
       8.50     84.714     3.1044    0.17013
       8.50     89.758     2.8894    0.11926
       8.50     94.345     2.7278    0.14949
       8.50     99.833     2.3994   9.93E-02
       8.50     104.41     2.2023   9.12E-02
       8.50     109.44     1.9649    0.13367
       8.50     115.36     1.5439   6.39E-02
       8.50     119.89     1.1966   6.56E-02
       8.50      124.9    0.99503   4.12E-02
       8.50      130.9     1.0219   6.95E-02
       8.50     140.67     1.5338   8.41E-02
       8.50     145.77     1.7389    7.2E-02
       8.50     155.09     2.6104    0.14306
       8.50     160.32     4.7115    0.32052
       8.50     165.55     8.6244    0.58672
       8.50     169.75     10.643    0.72522
       8.50      175.3     11.896    0.49102
       9.00     3.9559     10.666    0.86035
       9.00     6.3176     11.921       0.65
       9.00     8.6908     13.703    0.92749
       9.00     10.572     14.687    0.80083
       9.00     13.842     15.734    0.64793
       9.00     17.031     13.852    0.75761
       9.00     20.243     12.899    0.87094
       9.00     24.177     7.3512    0.49757
       9.00     28.186      5.027    0.46982
       9.00     30.062     5.3131    0.42857
       9.00      34.13       4.18    0.28292
       9.00     40.067     3.4273    0.18687
       9.00     42.417     3.7247    0.20309
       9.00     45.612     3.3255    0.13694
       9.00     48.823     3.0966    0.12699
       9.00      54.24     2.2073    0.17805
       9.00     60.425     1.0773   7.29E-02
       9.00      64.14     1.1063   7.49E-02
       9.00     69.361     1.5031    0.14047
       9.00     75.491     1.9572    0.15788
       9.00     79.213     2.0384    0.11114
       9.00     84.317     2.0923    0.11408
       9.00     89.769     1.6223    0.10981
       9.00     96.574     1.1558    6.3E-02
       9.00     102.84    0.68639   6.41E-02
       9.00     107.02    0.71473   4.84E-02
       9.00     110.89     1.0568   8.52E-02
       9.00     116.05     1.2306   8.29E-02
       9.00     120.75     1.4534   5.99E-02
       9.00      123.5     1.3727   5.65E-02
       9.00     131.33     1.2407   8.38E-02
       9.00     133.08    0.94993   7.66E-02
       9.00     137.45    0.51177   2.79E-02
       9.00     143.81     0.3857   5.04E-02
       9.00     147.15    0.48208   3.89E-02
       9.00     150.61    0.82017   6.62E-02
       9.00     157.04     2.2137    0.17856
       9.00     159.82     2.2114    0.12058
       9.00     164.17     3.4095    0.23077
       9.00      170.9     6.1276    0.33411
       9.00     173.67     6.0359    0.24855
       9.42     4.1931     22.777     1.5531
       9.42     6.5002     20.334     1.6524
       9.42     10.252     23.076     1.8734
       9.42      12.57     21.799     1.4865
       9.42     15.359     21.181     1.1636
       9.42     18.116     17.372     1.1846
       9.42     24.485     7.9787    0.54407
       9.42     25.337     5.2961    0.36114
       9.42     28.046     3.4164    0.27735
       9.42     30.772     2.3988    0.13197
       9.42     33.576     2.5013    0.13741
       9.42     35.921     2.7214     0.1495
       9.42     43.876     3.2654    0.22267
       9.42     47.132     3.1725    0.13163
       9.42      54.51     2.1637    0.11886
       9.42     58.565     1.0669    0.10045
       9.42     64.477    0.51129   2.81E-02
       9.42     70.497    0.42505    2.9E-02
       9.42      75.26    0.72643   3.99E-02
       9.42     80.914     1.0043   2.81E-02
       9.42     82.785     1.0474   7.14E-02
       9.42     86.512     1.0467   4.33E-02
       9.42     91.181     1.1066   8.99E-02
       9.42     97.218     1.0013   5.49E-02
       9.42     101.83    0.78692   4.32E-02
       9.42     106.01     0.7327     5.E-02
       9.42     111.21     1.1026   7.52E-02
       9.42     115.89     1.1992   6.59E-02
       9.42     119.63     1.3043   7.16E-02
       9.42     124.76     1.3405   7.36E-02
       9.42     131.71     1.1142   3.09E-02
       9.42     135.87    0.95314   3.95E-02
       9.42     140.48    0.71797   2.98E-02
       9.42     145.05    0.45649   2.51E-02
       9.42     150.24    0.64012   4.37E-02
       9.42     152.68     1.1581   6.36E-02
       9.42     157.39     1.4921   6.19E-02
       9.42     158.84     1.9236   7.98E-02
       9.42     160.36     3.5803    0.14826
       9.42     164.59     4.4848    0.18608
       9.42     170.21     5.0876    0.21109
       9.42     175.36      5.772    0.23948
      10.00     2.9837     8.4747    0.46555
      10.00     6.2097     8.3507    0.34648
      10.00     7.1749      10.32    0.28746
      10.00     8.5814     11.551    0.47927
      10.00     12.277     11.874    0.49266
      10.00     15.953     11.057    0.75395
      10.00     17.741     8.3326    0.34573
      10.00     24.012     3.2762    0.22367
      10.00     27.076     1.4431   5.99E-02
      10.00     32.175     1.6372   8.99E-02
      10.00     33.627     2.2973    0.18668
      10.00     38.297     3.0446    0.12632
      10.00     40.611      3.175    0.13173
      10.00     42.448     3.0422    0.12622
      10.00     47.451      2.135   8.86E-02
      10.00     50.196     1.9059    0.12981
      10.00      53.28    0.92678   3.85E-02
      10.00      59.96    0.28256    2.3E-02
      10.00     61.825    0.31182   1.29E-02
      10.00     65.122    0.43738   2.98E-02
      10.00     68.829    0.47574   2.61E-02
      10.00     71.753      1.034   4.28E-02
      10.00     73.561    0.86028   3.57E-02
      10.00     75.415    0.89721   3.72E-02
      10.00     76.824     1.0186   8.28E-02
      10.00     88.862      1.274   5.29E-02
      10.00     95.255    0.91947   3.81E-02
      10.00      101.2    0.72237   3.97E-02
      10.00      105.8    0.68209   2.83E-02
      10.00     108.63     0.9302   3.86E-02
      10.00     113.82     1.6351   6.78E-02
      10.00     119.31     1.3215   5.48E-02
      10.00      123.5     1.5424   8.47E-02
      10.00     127.53    0.86368   3.58E-02
      10.00     137.25     0.9929   4.12E-02
      10.00     138.68       1.28   7.03E-02
      10.00     142.35     1.1587   4.81E-02
      10.00     142.83     1.2434   5.16E-02
      10.00     144.26     1.5804   8.68E-02
      10.00     146.55      1.493   4.16E-02
      10.00     147.45     1.2779   3.56E-02
      10.00      149.3     1.3141   5.45E-02
      10.00     150.23       1.41   3.93E-02
      10.00     154.81      1.156    4.8E-02
      10.00      156.2     1.2229   5.07E-02
      10.00     158.83    0.60314   4.11E-02
      10.00      161.6    0.62892   2.61E-02
      10.00     163.63     1.5747   6.52E-02
      10.00     165.49     1.6893   7.02E-02
      10.00     166.93     2.2088    0.12152
      10.00     168.36     2.7294    0.11324
      10.00     170.71     3.4686    0.14334
      10.00     173.04     3.9371    0.10967
ENDDATA            206
ENDSUBENT          230
SUBENT        F1066003   20100427   20110216   20110112       F039
BIB                  6         14
REACTION   (8-O-16(HE3,A)8-O-15,PAR,DA)
METHOD     (BCINT)
DETECTOR   (SIBAR) The alpha particles were detected by a 16 mm
           long * 6 mm wide three surface barrier detectors,
           indicating both position and energy, which was placed
           at a fixed position in the focal plane of the
           spectrometer.
SAMPLE     A target of 0.60 mg/cm2 Mylar (C10H8O4) was used. The
           thickness of the targets was measured by observing the
           energy loss in the foils of a particles from a Po210
           radioactive source. The target thickness to be measured
           with an uncertainty of about 5 %.
ERR-ANALYS (EN-ERR-DIG) Energy digitizing error
STATUS     (CURVE) Fig.2
ENDBIB              14
COMMON               3          3
E-LVL      EN-ERR-DIG ERR-DIG
MEV        MEV        MB/SR
 0.         0.0009     0.0084
ENDCOMMON            3
DATA                 3        253
ANG        EN         DATA
ADEG       MEV        MB/SR
        45.     8.0081     3.5053
        45.     8.0394     3.5837
        45.     8.0706     3.7003
        45.     8.0939     3.8294
        45.     8.1146     3.9455
        45.     8.1353     4.0488
        45.      8.156     4.1649
        45.      8.182     4.2558
        45.        8.2     4.4101
        45.      8.226     4.5137
        45.      8.244      4.668
        45.     8.2699     4.7844
        45.     8.2854     4.9002
        45.     8.3009     5.0033
        45.     8.3216     5.1321
        45.      8.337      5.248
        45.     8.3552     5.3384
        45.     8.3707     5.4159
        45.      8.389     5.4552
        45.       8.41     5.4564
        45.     8.4285     5.3935
        45.     8.4366     5.3046
        45.     8.4552     5.1906
        45.     8.4686     5.0636
        45.     8.4819     4.9622
        45.     8.4927     4.8606
        45.     8.5034     4.7462
        45.     8.5222     4.5812
        45.     8.5331      4.403
        45.      8.549     4.3017
        45.     8.5625     4.1491
        45.     8.5786      3.984
        45.     8.5999     3.8446
        45.     8.6187     3.6669
        45.     8.6374     3.5274
        45.     8.6535     3.3878
        45.     8.6694     3.2865
        45.     8.6828     3.1595
        45.     8.6936     3.0323
        45.      8.707     2.9181
        45.     8.7178     2.8037
        45.     8.7364      2.677
        45.     8.7603     2.5378
        45.     8.7842     2.4242
        45.      8.808     2.3489
        45.     8.8396     2.2995
        45.     8.8738     2.2376
        45.     8.9053     2.2265
        45.     8.9473     2.2289
        45.     8.9813     2.2308
        45.     9.0179     2.2839
        45.     9.0492     2.3495
        45.     9.0779     2.4149
        45.     9.1093     2.4805
        45.     9.1484     2.5594
        45.     9.1771     2.6248
        45.     9.2059     2.6647
        45.     9.2477     2.6926
        45.     9.2766     2.6942
        45.     9.3133     2.6962
        45.     9.3396     2.6721
        45.     9.3712     2.5973
        45.     9.4082     2.4716
        45.     9.4425     2.3841
        45.     9.4689     2.3344
        45.       9.49     2.2589
        45.     9.5243      2.197
        45.     9.5479     2.1727
        45.     9.5822     2.0725
        45.     9.6165     2.0105
        45.     9.6376     1.9478
        45.     9.6613      1.898
        45.     9.6982     1.8362
        45.     9.7325     1.7359
        45.     9.7614     1.6992
        45.     9.7878      1.624
        45.     9.8221     1.5493
        45.     9.8617     1.4365
        45.     9.8907     1.3742
        45.     9.9144     1.3372
        45.     9.9461     1.2368
        45.     9.9671     1.2124
        45.     9.9857     1.1368
        45.     10.007     1.1124
        75.     8.0199     3.9482
        75.     8.0407     3.9224
        75.     8.0616     3.9096
        75.     8.0773     3.8968
        75.     8.1086     3.8711
        75.     8.1268     3.8582
        75.     8.1477     3.8454
        75.     8.1686     3.8196
        75.     8.1973     3.7809
        75.     8.2182     3.7551
        75.     8.2495     3.7164
        75.      8.273     3.6777
        75.     8.2965     3.6519
        75.       8.32     3.6002
        75.     8.3461     3.5614
        75.      8.367     3.5226
        75.     8.3879     3.4969
        75.     8.4061     3.4581
        75.      8.427     3.4063
        75.     8.4453     3.3415
        75.     8.4662     3.2767
        75.     8.4767     3.1989
        75.     8.4897     3.0951
        75.     8.5054     3.0044
        75.     8.5159     2.8746
        75.     8.5238     2.7837
        75.     8.5368       2.68
        75.     8.5499     2.5762
        75.     8.5682     2.4465
        75.     8.5813     2.3686
        75.     8.6022     2.2649
        75.     8.6205     2.2002
        75.      8.644     2.1224
        75.     8.6649     2.0837
        75.     8.6884     2.0449
        75.     8.7119     2.0191
        75.     8.7406     1.9934
        75.      8.764     1.9806
        75.     8.7875     1.9678
        75.      8.811      1.968
        75.     8.8423     1.9553
        75.     8.8684     1.9555
        75.     8.8997     1.9428
        75.     8.9206      1.943
        75.     8.9441     1.9302
        75.     8.9675     1.9304
        75.     8.9936     1.9176
        75.     9.0145     1.9048
        75.     9.0406     1.8791
        75.     9.0589     1.8663
        75.     9.0824     1.8405
        75.     9.1032     1.8017
        75.      9.132      1.763
        75.     9.1502     1.7112
        75.      9.179     1.6595
        75.     9.1972     1.5947
        75.     9.2233       1.53
        75.     9.2416     1.4652
        75.     9.2651     1.4135
        75.     9.2886     1.3358
        75.     9.3121      1.271
        75.      9.333     1.1933
        75.     9.3539     1.1285
        75.     9.3696     1.0637
        75.     9.3905    0.99899
        75.     9.4088    0.92122
        75.     9.4323     0.8435
        75.      9.448     0.7787
        75.     9.4715      0.688
        75.     9.4898    0.61023
        75.     9.5107    0.53249
        75.     9.5342    0.44178
        75.     9.5603    0.36408
        75.     9.5786    0.31229
        75.     9.6099    0.26061
        75.     9.6386     0.2219
        75.     9.6699    0.20918
        75.     9.6934    0.22237
        75.     9.7247     0.2616
        75.     9.7455    0.28776
        75.     9.7716    0.33993
        75.     9.7951    0.39208
        75.     9.8211    0.45724
        75.     9.8472    0.54837
        75.     9.8733    0.62652
        75.     9.9019    0.70469
        75.     9.9254    0.80879
        75.     9.9488    0.87392
        75.     9.9775    0.97807
        75.     10.006     1.0822
       150.       8.02     3.5197
       150.     8.0409     3.4549
       150.     8.0905     3.4294
       150.     8.1166     3.4556
       150.     8.1426     3.5207
       150.     8.1843     3.7029
       150.     8.2181      3.898
       150.      8.252     4.1061
       150.     8.2702     4.2231
       150.     8.2858     4.3142
       150.     8.3223     4.5612
       150.     8.3379     4.6782
       150.     8.3587     4.7693
       150.     8.3874     4.8215
       150.     8.4083     4.7698
       150.     8.4161     4.6789
       150.      8.424     4.5491
       150.     8.4397     4.3025
       150.      8.445     4.1727
       150.     8.4503     4.0558
       150.     8.4608     3.7572
       150.     8.4635     3.6144
       150.     8.4687     3.4976
       150.     8.4766     3.2379
       150.     8.4845     3.0691
       150.     8.4872     2.9652
       150.     8.5003     2.6796
       150.     8.5108     2.5499
       150.     8.5187      2.433
       150.     8.5422     2.1735
       150.     8.5501     2.0827
       150.     8.5606     2.0048
       150.     8.5867     1.8362
       150.     8.6024     1.7714
       150.     8.6233     1.6807
       150.     8.6677     1.5772
       150.     8.6911     1.5514
       150.     8.7172     1.5386
       150.     8.7798     1.6431
       150.     8.8007     1.7212
       150.     8.8189     1.8382
       150.     8.8527     2.0983
       150.     8.8657     2.2153
       150.     8.8918     2.3194
       150.     8.9178     2.3845
       150.     8.9361     2.3068
       150.     8.9518      2.229
       150.     8.9649     2.1382
       150.     8.9962     1.9566
       150.     9.0302     1.8271
       150.     9.0537     1.7753
       150.     9.0954     1.7367
       150.     9.1215      1.711
       150.     9.1633     1.6853
       150.      9.205     1.6857
       150.     9.2285     1.6729
       150.     9.2546     1.6602
       150.     9.3016     1.6216
       150.     9.3277     1.5958
       150.     9.3512     1.5701
       150.     9.4086     1.4797
       150.     9.4295     1.4149
       150.      9.453     1.3761
       150.      9.513     1.2208
       150.     9.5339      1.182
       150.     9.5548     1.1303
       150.     9.6122    0.98791
       150.     9.6357    0.93616
       150.     9.6592    0.88442
       150.     9.7193    0.76805
       150.     9.7402    0.71628
       150.     9.7637     0.7035
       150.      9.821    0.74295
       150.     9.8471    0.76915
       150.     9.8706    0.80831
       150.     9.9384    0.95175
       150.     9.9592     1.0039
       150.     9.9801       1.03
       150.     10.006     1.0822
ENDDATA            255
ENDSUBENT          278
SUBENT        F1066004   20100427   20110216   20110112       F039
BIB                  6         15
REACTION   (8-O-16(HE3,A)8-O-15,PAR,SIG)
METHOD     (BCINT)
DETECTOR   (SIBAR) The alpha particles were detected by a 16 mm
           long * 6 mm wide three surface barrier detectors,
           indicating both position and energy, which was placed
           at a fixed position in the focal plane of the
           spectrometer.
SAMPLE     A target of 0.60 mg/cm2 Mylar (C10H8O4) was used. The
           thickness of the targets was measured by observing the
           energy loss in the foils of a particles from a Po210
           radioactive source. The target thickness to be measured
           with an uncertainty of about 5 %.
ERR-ANALYS (EN-ERR-DIG) Energy digitizing error
           (DATA-ERR)   Error from the graphic bars
STATUS     (CURVE) Fig.3
ENDBIB              15
COMMON               3          3
E-LVL      EN-ERR-DIG ERR-DIG
MEV        MEV        MB
 0.         0.0043     0.1721
ENDCOMMON            3
DATA                 3          5
EN         DATA       DATA-ERR
MEV        MB         MB
     7.9809     43.457      1.268
      8.494      45.79     1.5207
     8.9946     30.245     1.5209
     9.4442     27.515     1.0153
     9.9845     19.446     1.5207
ENDDATA              7
ENDSUBENT           31
SUBENT        F1066005   20100427   20110216   20110112       F039
BIB                  5         12
REACTION   (8-O-16(HE3,EL)8-O-16,,DA,,REL)
COMMENT    No explanation of relative units is given.
SAMPLE     A target of NiO of 0.35 mg/cm2 thickness was used.
           The thickness of  the targets was measured by
           observing the energy loss  in the foils of a
           particles from a Po210 radioactive  source. The
           target thickness to be measured with an  uncertainty
           of about 5 %. The NiO target was prepared  by heating
           a thin nickel foil in oxygen at a pressure  of about
           0.5 atm.
ERR-ANALYS (EN-ERR-DIG) Energy digitizing error
STATUS     (CURVE) Fig.4
ENDBIB              12
COMMON               2          3
EN-ERR-DIG ERR-DIG
MEV        ARB-UNITS
 0.0024     0.0016
ENDCOMMON            3
DATA                 3         42
ANG-CM     EN         DATA-CM
ADEG       MEV        ARB-UNITS
        53.     8.0985    0.81177
        53.      8.195     0.8081
        53.     8.2829    0.75626
        53.     8.3282     0.7397
        53.      8.377    0.78746
        53.     8.4917    0.74338
        53.     8.5955    0.67529
        53.     8.6969    0.62868
        53.     8.7966    0.68663
        53.     8.9006    0.63194
        53.      8.997    0.63095
        53.     9.0985    0.59237
        53.     9.1981    0.63692
        53.     9.2966    0.58229
        53.     9.3933    0.60274
        53.     9.4982    0.63383
        53.      9.597    0.60333
        53.     9.6983    0.55671
        53.     9.8028    0.55563
        53.     9.8964    0.53859
        53.     9.9958    0.55901
        71.     8.0958    0.28635
        71.     8.1947     0.2612
        71.     8.2828    0.23081
        71.       8.32    0.19557
        71.     8.3734    0.17894
        71.     8.4992    0.16156
        71.     8.5954    0.14448
        71.     8.6972    0.13539
        71.     8.7989    0.12898
        71.     8.9008    0.13598
        71.     9.0026    0.12957
        71.     9.0965    0.13664
        71.     9.1981    0.12219
        71.     9.2998    0.11042
        71.     9.4017    0.10938
        71.     9.5009    0.11908
        71.     9.6001    0.12878
        71.     9.6993    0.12776
        71.     9.7985    0.13478
        71.     9.8951    0.14719
        71.     9.9974    0.19171
ENDDATA             44
ENDSUBENT           65
SUBENT        F1066006   20100427   20110216   20110112       F039
BIB                  4         12
REACTION   (8-O-16(HE3,EL)8-O-16,,DA,,RTH)
SAMPLE     A target of NiO of 0.35 mg/cm2 thickness was used.
           The thickness of  the targets was measured by
           observing the energy loss  in the foils of a
           particles from a Po210 radioactive  source. The
           target thickness to be measured with an  uncertainty
           of about 5 %. The NiO target was prepared  by heating
           a thin nickel foil in oxygen at a pressure  of about
           0.5 atm.
ERR-ANALYS (ANG-ERR-D)  Angle digitizing error
           (DATA-ERR)   Error from the graphic bars
STATUS     (CURVE) Fig.5
ENDBIB              12
COMMON               2          3
ANG-ERR-D  ERR-DIG
ADEG       PER-CENT
 0.127      0.01
ENDCOMMON            3
DATA                 4         81
EN         ANG-CM     DATA       DATA-ERR
MEV        ADEG       NO-DIM     NO-DIM
       8.50     5.4919     1.0354   2.21E-02
       8.50     8.9613     1.1522   3.26E-02
       8.50      11.45     1.1515   4.07E-02
       8.50     14.773    0.91447   3.85E-02
       8.50     17.875    0.89435   3.77E-02
       8.50     20.289     0.7524   2.65E-02
       8.50     23.412    0.77375   2.18E-02
       8.50     29.591    0.69878   2.46E-02
       8.50     35.321    0.46021    1.3E-02
       8.50     41.997    0.31185    8.8E-03
       8.50     47.249    0.28577   1.01E-02
       8.50     53.179    0.29793   8.41E-03
       8.50     59.147    0.33856   7.21E-03
       8.50     64.697    0.30144   1.06E-02
       8.50     72.043    0.22745   8.02E-03
       8.50     76.921    0.18057   6.35E-03
       8.50     82.751    0.14962   9.35E-03
       8.50     86.201    0.15948   9.95E-03
       8.50     92.138    0.16867   3.59E-03
       8.50     95.614    0.19041   8.03E-03
       8.50     101.14    0.16007   4.53E-03
       8.50     103.85    0.13085   8.18E-03
       8.50     112.15    0.10454   5.83E-03
       8.50     116.33    0.14018   6.87E-03
       8.50     121.65    0.15042    2.2E-02
       8.50     122.48    0.11867   6.62E-03
       8.50     126.09   4.44E-02   2.77E-03
       8.50     128.38    5.7E-02   3.18E-03
       8.50     130.92    0.13003   8.13E-03
       8.50      133.1    0.12996   7.25E-03
       8.50     134.54   9.96E-02   6.23E-03
       8.50     139.95    0.13069    6.4E-03
       8.50     144.54    0.45519   1.92E-02
       8.50     147.26    0.38017   1.86E-02
       8.50     151.24    0.67447   2.38E-02
       8.50     155.76    0.97161    4.1E-02
       8.50     159.69     1.5478   5.46E-02
       8.50     161.63     1.8248   6.42E-02
       8.50     165.44     2.1816   6.17E-02
       8.50     169.56     2.5707   7.28E-02
       8.50     173.41     3.3497   9.48E-02
       8.50     175.95     3.7552    0.10627
       9.42     5.9285    0.84236   3.52E-02
       9.42     6.0947       1.21   4.22E-02
       9.42     12.472    0.85915     3.E-02
       9.42     15.396     1.1245   2.36E-02
       9.42     18.429    0.94761     2.E-02
       9.42     21.037    0.62286   2.17E-02
       9.42     21.135    0.77074   3.21E-02
       9.42     24.165     0.6449   2.25E-02
       9.42     29.975    0.51675   1.44E-02
       9.42     36.015    0.34669   9.71E-03
       9.42     42.468    0.28985   1.01E-02
       9.42     48.402    0.30419   8.52E-03
       9.42      53.15    0.36287   1.52E-02
       9.42     59.366    0.35722   1.25E-02
       9.42     65.223    0.31615    1.1E-02
       9.42     70.064    0.23435   8.17E-03
       9.42     72.229    0.22767    4.8E-03
       9.42      78.34    0.17857     5.E-03
       9.42     83.296    0.16971   5.94E-03
       9.42     88.008    0.18724   7.81E-03
       9.42     93.327    0.19934   5.58E-03
       9.42     98.751    0.13567   4.73E-03
       9.42     102.73    0.11843   6.53E-03
       9.42     118.49   9.27E-02   5.12E-03
       9.42     123.68    0.14582   7.07E-03
       9.42     128.12    0.17771    6.2E-03
       9.42     136.32     0.2258   9.42E-03
       9.42     138.34    0.15824   1.29E-02
       9.42     140.83    0.15703   4.85E-02
       9.42     143.63    0.15692   1.38E-02
       9.42     148.37    0.18719   7.81E-03
       9.42     151.55     0.2156   8.99E-03
       9.42     156.28    0.49081   1.37E-02
       9.42     160.31    0.92911   3.88E-02
       9.42     162.32     1.2783   7.06E-02
       9.42     166.25     1.9556   9.48E-02
       9.42     169.71     2.1128   4.47E-02
       9.42     174.14       2.45    0.10236
       9.42     176.27     4.3836    0.18284
ENDDATA             83
ENDSUBENT          104
ENDENTRY             6
