ENTRY            12432     830809
SUBENT        12432001     830809
BIB                  7          9
INSTITUTE  (1USALAS)
REFERENCE  (C,66WASH,2,971(FF11),6603)
           (W,BERGEN,66) DATA REC'D ON TAPE
AUTHOR     (W.K.BROWN,D.W.BERGEN,J.D.CRAMER)
TITLE      FISSION CROSS SECTION OF U235,20EV-5MEV.
N-SOURCE   (EXPLO) NUCLEAR EXPLOSION.
STATUS     (SCSRS)
HISTORY    (760804T) TRANSLATED FROM SCISRS
           (830809A) CONVERTED TO REACTION FORMALISM
ENDBIB               9
NOCOMMON             0          0
ENDSUBENT           12
SUBENT        12432002     830809
BIB                  2          2
REACTION   (92-U-235(N,F),,SIG)
METHOD     (TOF)      TIME-OF-FLIGHT
ENDBIB               2
NOCOMMON             0          0
DATA                 3       3087
EN         DATA       DATA-ERR
MEV        B          PER-CENT
 2.005  -05 1.324  +01   13.
 2.007  -05 1.696  +01   14.
 2.010  -05 1.811  +01   15.
 2.013  -05 1.731  +01   13.
 2.015  -05 1.666  +01   13.
 2.018  -05 1.760  +01   13.
 2.021  -05 1.737  +01   21.
 2.023  -05 1.420  +01   21.
 2.026  -05 1.186  +01   16.
 2.029  -05 9.948  +00   15.
 2.032  -05 9.048  +00   14.
 2.034  -05 8.265  +00   16.
 2.037  -05 7.415  +00   14.
 2.040  -05 9.256  +00   14.
 2.043  -05 1.094  +01   13.
 2.045  -05 1.352  +01   13.
 2.048  -05 1.617  +01   13.
 2.051  -05 2.109  +01   17.
 2.054  -05 3.138  +01   12.
 2.057  -05 3.750  +01   11.
 2.059  -05 4.003  +01   11.
 2.062  -05 3.929  +01   11.
 2.065  -05 4.059  +01   11.
 2.068  -05 3.671  +01   12.
 2.071  -05 2.861  +01   12.
 2.073  -05 2.476  +01   13.
 2.076  -05 1.869  +01   15.
 2.079  -05 1.798  +01   13.
 2.082  -05 2.365  +01   13.
 2.085  -05 2.808  +01   15.
 2.088  -05 3.903  +01   18.
 2.090  -05 5.895  +01   16.
 2.093  -05 8.542  +01   14.
 2.096  -05 1.139  +02   15.
 2.099  -05 1.521  +02   12.
 2.102  -05 1.896  +02   12.
 2.105  -05 2.191  +02   10.
 2.108  -05 2.131  +02   12.
 2.111  -05 1.936  +02   12.
 2.114  -05 1.660  +02   13.
 2.116  -05 1.302  +02   14.
 2.119  -05 8.115  +01   22.
 2.122  -05 4.880  +01   16.
 2.125  -05 3.353  +01   15.
 2.128  -05 2.293  +01   14.
 2.131  -05 1.627  +01   15.
 2.134  -05 1.187  +01   19.
 2.137  -05 9.144  +00   21.
 2.140  -05 7.915  +00   15.
 2.143  -05 7.279  +00   16.
 2.146  -05 6.615  +00   17.
 2.149  -05 5.496  +00   14.
 2.152  -05 4.979  +00   11.
 2.155  -05 5.509  +00   14.
 2.158  -05 5.183  +00   15.
 2.161  -05 4.348  +00   15.
 2.164  -05 3.712  +00   15.
 2.167  -05 4.427  +00   13.
 2.170  -05 4.551  +00   14.
 2.173  -05 4.428  +00   13.
 2.176  -05 4.389  +00   14.
 2.179  -05 5.203  +00   13.
 2.182  -05 4.709  +00   15.
 2.185  -05 3.718  +00   14.
 2.188  -05 4.111  +00   14.
 2.191  -05 4.457  +00   14.
 2.194  -05 3.765  +00   12.
 2.197  -05 3.697  +00   14.
 2.200  -05 3.808  +00   16.
 2.204  -05 3.791  +00   16.
 2.207  -05 4.193  +00   14.
 2.210  -05 4.168  +00   12.
 2.213  -05 4.095  +00   15.
 2.216  -05 4.136  +00   14.
 2.219  -05 3.539  +00   15.
 2.222  -05 3.211  +00   12.
 2.225  -05 3.551  +00   15.
 2.228  -05 3.830  +00   15.
 2.232  -05 3.988  +00   13.
 2.235  -05 4.728  +00   13.
 2.238  -05 4.024  +00   14.
 2.241  -05 4.104  +00   13.
 2.244  -05 4.180  +00   13.
 2.247  -05 3.472  +00   14.
 2.251  -05 2.824  +00   15.
 2.254  -05 1.863  +00   20.
 2.257  -05 1.590  +00   25.
 2.260  -05 2.080  +00   29.
 2.264  -05 2.763  +00   23.
 2.267  -05 3.730  +00   20.
 2.270  -05 5.140  +00   20.
 2.273  -05 1.446  +01   41.
 2.276  -05 2.316  +01   27.
 2.280  -05 3.026  +01   23.
 2.283  -05 5.596  +01   25.
 2.286  -05 6.979  +01   14.
 2.290  -05 7.713  +01   14.
 2.293  -05 8.354  +01   11.
 2.296  -05 8.284  +01    9.7
 2.299  -05 6.912  +01   11.
 2.303  -05 5.551  +01   14.
 2.306  -05 4.626  +01   13.
 2.309  -05 2.909  +01   20.
 2.313  -05 2.161  +01   10.
 2.316  -05 1.927  +01    9.7
 2.319  -05 2.084  +01   16.
 2.323  -05 2.954  +01   21.
 2.326  -05 3.404  +01   18.
 2.329  -05 5.198  +01   23.
 2.333  -05 7.347  +01   17.
 2.336  -05 8.328  +01   15.
 2.339  -05 9.417  +01   13.
 2.343  -05 1.064  +02   12.
 2.346  -05 1.082  +02   11.
 2.350  -05 1.138  +02   11.
 2.353  -05 1.231  +02   12.
 2.356  -05 1.314  +02   11.
 2.360  -05 1.351  +02   10.
 2.363  -05 1.302  +02    9.0
 2.367  -05 1.249  +02    9.3
 2.370  -05 1.117  +02    9.6
 2.374  -05 9.177  +01   13.
 2.377  -05 7.317  +01   10.
 2.381  -05 6.230  +01   10.
 2.384  -05 4.815  +01   13.
 2.388  -05 3.630  +01    9.7
 2.391  -05 3.202  +01    9.6
 2.395  -05 2.717  +01   12.
 2.398  -05 2.129  +01    9.8
 2.402  -05 1.838  +01    9.7
 2.405  -05 1.814  +01   14.
 2.409  -05 2.218  +01   18.
 2.412  -05 2.780  +01   21.
 2.416  -05 4.217  +01   22.
 2.419  -05 5.663  +01   13.
 2.423  -05 6.352  +01   12.
 2.426  -05 6.741  +01   11.
 2.430  -05 6.599  +01    9.4
 2.434  -05 6.226  +01    9.4
 2.437  -05 5.452  +01   11.
 2.441  -05 4.614  +01    9.5
 2.444  -05 4.216  +01    9.4
 2.448  -05 3.774  +01    9.1
 2.452  -05 3.493  +01    9.5
 2.455  -05 3.339  +01    9.1
 2.459  -05 3.068  +01   11.
 2.463  -05 3.117  +01    9.7
 2.466  -05 3.130  +01    9.9
 2.470  -05 3.051  +01   11.
 2.474  -05 3.190  +01    9.5
 2.477  -05 3.326  +01    9.8
 2.481  -05 3.272  +01   10.
 2.485  -05 3.499  +01   10.
 2.488  -05 3.546  +01   11.
 2.492  -05 3.664  +01   11.
 2.496  -05 3.736  +01   10.
 2.500  -05 4.033  +01     .0
 2.503  -05 4.177  +01    9.7
 2.507  -05 4.435  +01   11.
 2.511  -05 4.686  +01    9.5
 2.515  -05 4.802  +01   12.
 2.518  -05 5.241  +01   13.
 2.522  -05 5.467  +01   11.
 2.526  -05 5.927  +01   11.
 2.530  -05 6.223  +01   10.
 2.534  -05 6.732  +01   11.
 2.537  -05 7.272  +01    9.2
 2.541  -05 7.492  +01   10.
 2.545  -05 7.880  +01    9.5
 2.549  -05 8.071  +01    9.3
 2.553  -05 8.030  +01    9.5
 2.557  -05 8.022  +01    9.2
 2.561  -05 7.635  +01    9.2
 2.564  -05 7.139  +01    9.2
 2.568  -05 6.510  +01    9.2
 2.572  -05 6.064  +01    9.2
 2.576  -05 5.555  +01    9.5
 2.580  -05 4.761  +01   11.
 2.584  -05 3.811  +01    9.5
 2.588  -05 2.936  +01   12.
 2.592  -05 2.306  +01    9.4
 2.596  -05 1.940  +01   13.
 2.600  -05 1.288  +01   10.
 2.604  -05 1.044  +01   10.
 2.608  -05 9.096  +00    9.7
 2.612  -05 8.502  +00    9.7
 2.616  -05 9.273  +00   19.
 2.620  -05 1.105  +01   20.
 2.624  -05 1.704  +01   27.
 2.628  -05 2.480  +01   18.
 2.632  -05 3.603  +01   19.
 2.636  -05 4.958  +01   16.
 2.640  -05 6.290  +01   15.
 2.644  -05 7.065  +01   10.
 2.648  -05 7.254  +01    8.8
 2.652  -05 6.988  +01    9.2
 2.656  -05 6.486  +01    9.4
 2.660  -05 5.479  +01    9.9
 2.664  -05 4.646  +01   12.
 2.668  -05 3.783  +01   10.
 2.673  -05 3.147  +01   11.
 2.677  -05 2.642  +01    9.4
 2.681  -05 2.342  +01   10.
 2.685  -05 2.098  +01    9.5
 2.689  -05 1.908  +01    9.1
 2.693  -05 1.752  +01    9.6
 2.698  -05 1.676  +01    9.1
 2.702  -05 1.701  +01   12.
 2.706  -05 1.776  +01   12.
 2.710  -05 1.798  +01   11.
 2.714  -05 1.723  +01    9.2
 2.719  -05 1.610  +01    9.6
 2.723  -05 1.382  +01   13.
 2.727  -05 1.157  +01   12.
 2.731  -05 9.396  +00   11.
 2.736  -05 8.593  +00    9.8
 2.740  -05 8.682  +00   17.
 2.744  -05 1.043  +01   22.
 2.749  -05 1.349  +01   30.
 2.753  -05 1.981  +01   31.
 2.757  -05 2.791  +01   32.
 2.762  -05 3.878  +01   26.
 2.766  -05 6.119  +01   30.
 2.770  -05 7.995  +01   18.
 2.775  -05 9.106  +01   14.
 2.779  -05 9.391  +01   10.
 2.783  -05 8.398  +01    9.5
 2.788  -05 6.808  +01   13.
 2.792  -05 5.287  +01   10.
 2.797  -05 3.757  +01   18.
 2.801  -05 2.640  +01   14.
 2.806  -05 2.078  +01   12.
 2.810  -05 1.779  +01   10.
 2.814  -05 1.761  +01    9.0
 2.819  -05 1.910  +01   13.
 2.823  -05 2.040  +01   10.
 2.828  -05 2.469  +01   12.
 2.832  -05 2.625  +01    9.4
 2.837  -05 2.538  +01    8.9
 2.841  -05 2.266  +01   10.
 2.846  -05 1.891  +01    9.8
 2.851  -05 1.402  +01   13.
 2.855  -05 1.156  +01    9.7
 2.860  -05 9.476  +00   11.
 2.864  -05 8.140  +00    9.7
 2.869  -05 7.641  +00    9.5
 2.873  -05 6.493  +00   13.
 2.878  -05 5.241  +00    9.9
 2.883  -05 4.064  +00   17.
 2.887  -05 2.628  +00   21.
 2.892  -05 1.997  +00   18.
 2.897  -05 1.773  +00   14.
 2.901  -05 1.719  +00   13.
 2.906  -05 1.517  +00   19.
 2.911  -05 1.144  +00   15.
 2.915  -05 9.390  -01   14.
 2.920  -05 8.888  -01   12.
 2.925  -05 8.643  -01   15.
 2.930  -05 9.729  -01   12.
 2.934  -05 1.380  +00   16.
 2.939  -05 2.133  +00   14.
 2.944  -05 4.405  +00   33.
 2.949  -05 7.905  +00   21.
 2.953  -05 1.165  +01   14.
 2.958  -05 1.446  +01   11.
 2.963  -05 1.480  +01    9.0
 2.968  -05 1.282  +01   12.
 2.973  -05 8.894  +00   18.
 2.978  -05 5.034  +00   22.
 2.983  -05 2.154  +00   40.
 2.987  -05 1.340  +00   29.
 2.992  -05 6.876  -01   26.
 2.997  -05 4.758  -01   17.
 3.002  -05 4.998  -01   13.
 3.007  -05 6.252  -01   24.
 3.012  -05 7.620  -01   18.
 3.017  -05 1.061  +00   12.
 3.022  -05 1.562  +00   20.
 3.027  -05 2.834  +00   34.
 3.032  -05 5.459  +00   27.
 3.037  -05 9.340  +00   20.
 3.042  -05 1.246  +01   14.
 3.047  -05 1.681  +01   17.
 3.052  -05 2.382  +01   15.
 3.057  -05 2.734  +01   10.
 3.062  -05 2.862  +01    9.3
 3.067  -05 3.011  +01   10.
 3.072  -05 3.419  +01   11.
 3.077  -05 3.752  +01   11.
 3.082  -05 4.044  +01    9.1
 3.088  -05 3.713  +01   12.
 3.093  -05 2.501  +01   25.
 3.098  -05 1.495  +01   25.
 3.103  -05 9.371  +00   32.
 3.108  -05 4.114  +00   30.
 3.113  -05 1.185  +00   36.
 3.119  -05 7.649  -01   35.
 3.124  -05 4.505  -01   15.
 3.129  -05 5.705  -01   11.
 3.134  -05 6.617  -01   13.
 3.140  -05 9.640  -01   24.
 3.145  -05 2.104  +00   22.
 3.150  -05 3.153  +00   23.
 3.155  -05 4.479  +00   19.
 3.161  -05 6.026  +00   19.
 3.166  -05 9.369  +00   19.
 3.171  -05 1.503  +01   27.
 3.177  -05 2.444  +01   30.
 3.182  -05 4.384  +01   23.
 3.187  -05 7.111  +01   24.
 3.193  -05 1.281  +02   18.
 3.198  -05 1.666  +02   11.
 3.204  -05 1.780  +02    9.2
 3.209  -05 1.670  +02   11.
 3.215  -05 1.172  +02   17.
 3.220  -05 7.325  +01   20.
 3.226  -05 3.558  +01   17.
 3.231  -05 2.288  +01   16.
 3.237  -05 1.302  +01   18.
 3.242  -05 7.965  +00   18.
 3.248  -05 5.178  +00   15.
 3.253  -05 3.469  +00   19.
 3.259  -05 2.403  +00   10.
 3.264  -05 2.071  +00    9.7
 3.270  -05 1.650  +00   21.
 3.275  -05 1.176  +00   18.
 3.281  -05 1.052  +00   13.
 3.287  -05 1.245  +00   12.
 3.292  -05 1.439  +00   11.
 3.298  -05 1.648  +00   16.
 3.304  -05 2.149  +00   24.
 3.309  -05 3.506  +00   27.
 3.315  -05 5.906  +00   26.
 3.321  -05 1.313  +01   34.
 3.327  -05 2.516  +01   23.
 3.332  -05 3.646  +01   34.
 3.338  -05 8.068  +01   22.
 3.344  -05 1.213  +02   12.
 3.350  -05 1.304  +02    8.8
 3.355  -05 1.141  +02   14.
 3.361  -05 7.592  +01   18.
 3.367  -05 4.495  +01   27.
 3.373  -05 2.719  +01   15.
 3.379  -05 1.804  +01   17.
 3.385  -05 1.443  +01    9.7
 3.391  -05 1.404  +01    9.0
 3.397  -05 1.574  +01   11.
 3.402  -05 2.041  +01   16.
 3.408  -05 3.123  +01   23.
 3.414  -05 6.440  +01   23.
 3.420  -05 1.046  +02   20.
 3.426  -05 1.437  +02   12.
 3.432  -05 1.695  +02    9.2
 3.438  -05 1.655  +02   10.
 3.444  -05 1.385  +02   12.
 3.451  -05 1.094  +02   11.
 3.457  -05 9.986  +01    8.7
 3.463  -05 1.035  +02    9.5
 3.469  -05 1.181  +02   12.
 3.475  -05 1.442  +02   14.
 3.481  -05 1.699  +02   12.
 3.487  -05 1.955  +02   13.
 3.493  -05 2.232  +02   13.
 3.500  -05 2.725  +02   16.
 3.506  -05 3.682  +02   14.
 3.512  -05 3.790  +02    8.7
 3.518  -05 3.513  +02   13.
 3.524  -05 3.047  +02   18.
 3.531  -05 2.151  +02   24.
 3.537  -05 1.494  +02   21.
 3.543  -05 1.126  +02   13.
 3.550  -05 8.132  +01   15.
 3.556  -05 6.397  +01   11.
 3.562  -05 4.961  +01   12.
 3.569  -05 4.091  +01   11.
 3.575  -05 3.481  +01   10.
 3.582  -05 2.944  +01   10.
 3.588  -05 2.587  +01    9.3
 3.594  -05 2.288  +01    8.9
 3.601  -05 2.094  +01    9.3
 3.607  -05 1.865  +01    9.2
 3.614  -05 1.720  +01    9.3
 3.620  -05 1.563  +01    9.0
 3.627  -05 1.448  +01    9.6
 3.633  -05 1.322  +01    9.0
 3.640  -05 1.238  +01    9.0
 3.647  -05 1.159  +01    9.0
 3.653  -05 1.113  +01    9.0
 3.660  -05 1.032  +01    9.0
 3.666  -05 9.675  +00    8.9
 3.673  -05 8.941  +00    9.0
 3.680  -05 8.532  +00    9.1
 3.686  -05 8.173  +00    9.0
 3.693  -05 7.764  +00    9.1
 3.700  -05 7.417  +00    9.1
 3.707  -05 7.242  +00    9.0
 3.713  -05 7.017  +00    9.0
 3.720  -05 7.147  +00   10.
 3.727  -05 7.726  +00   10.
 3.734  -05 8.223  +00    9.6
 3.741  -05 8.712  +00    9.6
 3.747  -05 8.936  +00    9.1
 3.754  -05 9.139  +00    9.0
 3.761  -05 9.217  +00    8.9
 3.768  -05 9.902  +00   12.
 3.775  -05 1.069  +01   11.
 3.782  -05 1.148  +01   11.
 3.789  -05 1.278  +01   12.
 3.796  -05 1.499  +01   12.
 3.803  -05 1.811  +01   15.
 3.810  -05 2.114  +01   13.
 3.817  -05 2.519  +01   12.
 3.824  -05 2.737  +01   10.
 3.831  -05 2.671  +01    8.8
 3.838  -05 2.185  +01   14.
 3.846  -05 1.514  +01   16.
 3.853  -05 1.165  +01   13.
 3.860  -05 9.237  +00   12.
 3.867  -05 7.796  +00    9.8
 3.874  -05 7.252  +00    9.0
 3.881  -05 7.716  +00   11.
 3.889  -05 9.866  +00   17.
 3.896  -05 1.666  +01   31.
 3.903  -05 3.017  +01   26.
 3.911  -05 6.841  +01   34.
 3.918  -05 1.126  +02   24.
 3.925  -05 1.751  +02   14.
 3.933  -05 1.935  +02   11.
 3.940  -05 1.790  +02   17.
 3.947  -05 1.284  +02   23.
 3.955  -05 6.936  +01   25.
 3.962  -05 4.205  +01   17.
 3.970  -05 3.261  +01   11.
 3.977  -05 3.092  +01    9.7
 3.985  -05 2.889  +01   11.
 3.992  -05 2.520  +01   15.
 4.000  -05 1.941  +01   16.
 4.008  -05 1.544  +01   15.
 4.013  -05 1.315  +01   11.
 4.021  -05 1.348  +01   15.
 4.029  -05 1.804  +01   18.
 4.036  -05 2.612  +01   17.
 4.044  -05 3.214  +01   13.
 4.052  -05 3.325  +01   10.
 4.059  -05 3.023  +01   11.
 4.067  -05 2.580  +01   12.
 4.075  -05 2.226  +01   12.
 4.083  -05 2.014  +01   12.
 4.091  -05 2.005  +01   13.
 4.098  -05 2.182  +01   15.
 4.106  -05 2.449  +01   12.
 4.114  -05 2.940  +01   13.
 4.122  -05 3.437  +01   13.
 4.130  -05 3.842  +01   11.
 4.138  -05 4.035  +01    9.4
 4.146  -05 4.190  +01    9.5
 4.154  -05 4.440  +01   12.
 4.162  -05 4.553  +01   13.
 4.170  -05 4.885  +01   13.
 4.178  -05 5.615  +01   11.
 4.186  -05 5.612  +01   11.
 4.194  -05 4.845  +01   12.
 4.202  -05 3.971  +01   11.
 4.211  -05 3.547  +01   10.
 4.219  -05 3.489  +01   11.
 4.227  -05 3.105  +01   14.
 4.235  -05 2.458  +01   15.
 4.244  -05 1.940  +01   15.
 4.252  -05 1.669  +01   13.
 4.260  -05 1.581  +01   13.
 4.269  -05 1.383  +01   11.
 4.277  -05 1.107  +01   14.
 4.285  -05 8.835  +00   11.
 4.294  -05 8.684  +00    9.8
 4.302  -05 9.546  +00   11.
 4.311  -05 1.287  +01   22.
 4.319  -05 1.905  +01   23.
 4.328  -05 2.770  +01   20.
 4.336  -05 3.388  +01   17.
 4.345  -05 3.109  +01   12.
 4.353  -05 2.448  +01   13.
 4.362  -05 2.264  +01   11.
 4.371  -05 2.594  +01   14.
 4.379  -05 3.292  +01   15.
 4.388  -05 3.853  +01   11.
 4.397  -05 4.037  +01   13.
 4.405  -05 3.674  +01   12.
 4.414  -05 3.266  +01   12.
 4.423  -05 3.199  +01   12.
 4.432  -05 3.768  +01   19.
 4.441  -05 4.816  +01   18.
 4.449  -05 6.411  +01   18.
 4.458  -05 6.667  +01   12.
 4.467  -05 6.286  +01   12.
 4.476  -05 5.243  +01   11.
 4.485  -05 4.262  +01   13.
 4.494  -05 3.593  +01   14.
 4.503  -05 3.099  +01   17.
 4.512  -05 2.382  +01   17.
 4.521  -05 1.964  +01   16.
 4.531  -05 1.606  +01   11.
 4.540  -05 1.420  +01   12.
 4.549  -05 1.356  +01   10.
 4.558  -05 1.519  +01   13.
 4.567  -05 1.603  +01   10.
 4.577  -05 1.517  +01   16.
 4.586  -05 1.082  +01   23.
 4.595  -05 6.775  +00   14.
 4.604  -05 5.168  +00   17.
 4.614  -05 5.463  +00   25.
 4.623  -05 7.119  +00   27.
 4.633  -05 1.195  +01   31.
 4.642  -05 2.112  +01   41.
 4.652  -05 3.828  +01   29.
 4.661  -05 6.143  +01   25.
 4.671  -05 7.347  +01   18.
 4.680  -05 8.261  +01   13.
 4.690  -05 7.967  +01   14.
 4.699  -05 6.646  +01   19.
 4.709  -05 4.239  +01   26.
 4.719  -05 2.270  +01   28.
 4.729  -05 1.375  +01   18.
 4.738  -05 1.152  +01   13.
 4.748  -05 1.315  +01   20.
 4.758  -05 1.877  +01   23.
 4.768  -05 2.944  +01   25.
 4.778  -05 4.742  +01   20.
 4.788  -05 6.125  +01   14.
 4.797  -05 6.484  +01   12.
 4.807  -05 6.506  +01   13.
 4.817  -05 6.386  +01   11.
 4.827  -05 6.042  +01   12.
 4.837  -05 4.524  +01   12.
 4.848  -05 3.781  +01   11.
 4.858  -05 4.028  +01   15.
 4.868  -05 5.084  +01   18.
 4.878  -05 5.181  +01   17.
 4.888  -05 3.949  +01   19.
 4.899  -05 2.847  +01   16.
 4.909  -05 2.416  +01   11.
 4.919  -05 2.643  +01   16.
 4.929  -05 3.150  +01   15.
 4.940  -05 3.208  +01   14.
 4.950  -05 2.331  +01   21.
 4.961  -05 1.296  +01   18.
 4.971  -05 1.049  +01   12.
 4.982  -05 1.250  +01   17.
 4.992  -05 1.822  +01   21.
 5.003  -05 2.658  +01   16.
 5.013  -05 3.497  +01   15.
 5.024  -05 4.704  +01   16.
 5.035  -05 6.384  +01   15.
 5.045  -05 6.330  +01   15.
 5.056  -05 5.337  +01   13.
 5.067  -05 5.058  +01   13.
 5.078  -05 6.029  +01   17.
 5.089  -05 9.119  +01   17.
 5.100  -05 1.294  +02   20.
 5.111  -05 1.641  +02   14.
 5.121  -05 1.733  +02   12.
 5.132  -05 1.351  +02   16.
 5.144  -05 9.376  +01   16.
 5.155  -05 6.985  +01   11.
 5.166  -05 6.168  +01    9.7
 5.177  -05 6.396  +01   11.
 5.188  -05 7.659  +01   16.
 5.199  -05 9.515  +01   14.
 5.210  -05 1.092  +02   14.
 5.222  -05 1.023  +02   14.
 5.233  -05 7.872  +01   17.
 5.244  -05 5.361  +01   15.
 5.256  -05 3.538  +01   15.
 5.267  -05 2.396  +01   14.
 5.279  -05 1.794  +01   13.
 5.290  -05 1.524  +01    9.5
 5.302  -05 1.583  +01   14.
 5.313  -05 2.016  +01   18.
 5.325  -05 2.971  +01   22.
 5.337  -05 3.560  +01   16.
 5.348  -05 3.057  +01   14.
 5.360  -05 2.103  +01   13.
 5.372  -05 1.590  +01   11.
 5.384  -05 1.428  +01    9.6
 5.395  -05 1.476  +01   12.
 5.407  -05 1.522  +01   12.
 5.419  -05 1.374  +01   12.
 5.431  -05 1.287  +01   12.
 5.443  -05 1.629  +01   28.
 5.455  -05 2.784  +01   29.
 5.467  -05 5.018  +01   26.
 5.480  -05 7.857  +01   22.
 5.492  -05 1.150  +02   16.
 5.504  -05 1.210  +02   13.
 5.516  -05 8.632  +01   20.
 5.528  -05 5.260  +01   10.
 5.541  -05 5.589  +01   14.
 5.553  -05 8.522  +01   15.
 5.566  -05 1.187  +02   16.
 5.578  -05 1.453  +02   12.
 5.591  -05 1.464  +02   12.
 5.603  -05 1.409  +02    9.9
 5.616  -05 1.532  +02   12.
 5.628  -05 1.926  +02   14.
 5.641  -05 2.187  +02   14.
 5.654  -05 1.712  +02   15.
 5.666  -05 9.984  +01   28.
 5.679  -05 4.267  +01   24.
 5.692  -05 2.228  +01   18.
 5.705  -05 1.533  +01   12.
 5.718  -05 1.383  +01   10.
 5.731  -05 1.767  +01   23.
 5.744  -05 3.021  +01   27.
 5.757  -05 4.915  +01   20.
 5.770  -05 6.968  +01   16.
 5.783  -05 8.015  +01   13.
 5.796  -05 7.730  +01   11.
 5.810  -05 6.126  +01   15.
 5.823  -05 3.966  +01   14.
 5.836  -05 3.737  +01   15.
 5.850  -05 5.277  +01   18.
 5.863  -05 6.040  +01   13.
 5.877  -05 4.950  +01   19.
 5.890  -05 2.633  +01   32.
 5.904  -05 1.459  +01   22.
 5.917  -05 1.080  +01   12.
 5.931  -05 1.085  +01   14.
 5.945  -05 1.452  +01   22.
 5.958  -05 2.043  +01   20.
 5.972  -05 2.720  +01   16.
 5.986  -05 3.455  +01   18.
 6.000  -05 4.326  +01   14.
 6.014  -05 4.873  +01   13.
 6.020  -05 4.741  +01   11.
 6.034  -05 3.592  +01   15.
 6.048  -05 2.797  +01   11.
 6.062  -05 2.795  +01   12.
 6.076  -05 3.237  +01   15.
 6.091  -05 3.122  +01   11.
 6.105  -05 2.749  +01   12.
 6.119  -05 2.127  +01   13.
 6.134  -05 1.627  +01   11.
 6.148  -05 1.410  +01   10.
 6.162  -05 1.273  +01    9.0
 6.177  -05 1.203  +01    9.6
 6.191  -05 1.159  +01    9.6
 6.206  -05 1.173  +01   10.
 6.221  -05 1.189  +01   11.
 6.236  -05 1.148  +01   11.
 6.250  -05 1.063  +01   12.
 6.265  -05 9.848  +00    9.9
 6.280  -05 1.098  +01   12.
 6.295  -05 1.367  +01   15.
 6.310  -05 1.703  +01   14.
 6.325  -05 2.092  +01   13.
 6.340  -05 2.420  +01   12.
 6.355  -05 2.611  +01   11.
 6.370  -05 2.515  +01   10.
 6.386  -05 2.192  +01   11.
 6.401  -05 1.950  +01   10.
 6.416  -05 1.844  +01   10.
 6.432  -05 1.585  +01   12.
 6.447  -05 9.741  +00   34.
 6.463  -05 4.567  +00   25.
 6.478  -05 3.607  +00   12.
 6.494  -05 3.199  +00   12.
 6.510  -05 3.380  +00   15.
 6.526  -05 4.193  +00   19.
 6.541  -05 6.374  +00   23.
 6.557  -05 1.043  +01   26.
 6.573  -05 1.224  +01   13.
 6.589  -05 1.004  +01   10.
 6.605  -05 9.489  +00   14.
 6.621  -05 1.107  +01   16.
 6.638  -05 1.021  +01   16.
 6.654  -05 5.066  +00   28.
 6.670  -05 2.623  +00   24.
 6.686  -05 2.501  +00   32.
 6.703  -05 2.312  +00   31.
 6.719  -05 2.476  +00   32.
 6.736  -05 2.537  +00   33.
 6.752  -05 1.204  +00   35.
 6.769  -05 1.388  +00   30.
 6.786  -05 1.965  +00   30.
 6.803  -05 3.155  +00   23.
 6.819  -05 4.609  +00   23.
 6.836  -05 6.060  +00   16.
 6.853  -05 7.193  +00   16.
 6.870  -05 8.372  +00   17.
 6.887  -05 1.455  +01   28.
 6.905  -05 2.383  +01   23.
 6.922  -05 2.812  +01   11.
 6.939  -05 2.694  +01   10.
 6.956  -05 2.578  +01   13.
 6.974  -05 3.207  +01   19.
 6.991  -05 5.031  +01   26.
 7.009  -05 7.937  +01   25.
 7.027  -05 1.104  +02   16.
 7.044  -05 1.165  +02   11.
 7.062  -05 1.009  +02   13.
 7.080  -05 7.513  +01   19.
 7.098  -05 3.664  +01   30.
 7.116  -05 2.072  +01   18.
 7.134  -05 1.841  +01   12.
 7.152  -05 2.119  +01   14.
 7.170  -05 2.439  +01   15.
 7.188  -05 2.916  +01   22.
 7.206  -05 5.678  +01   32.
 7.225  -05 8.682  +01   19.
 7.243  -05 8.061  +01   19.
 7.262  -05 4.330  +01   27.
 7.280  -05 1.992  +01   19.
 7.299  -05 1.340  +01   15.
 7.318  -05 8.908  +00   15.
 7.336  -05 7.098  +00   11.
 7.355  -05 8.773  +00   24.
 7.374  -05 1.331  +01   30.
 7.393  -05 2.140  +01   30.
 7.412  -05 4.178  +01   40.
 7.432  -05 6.983  +01   23.
 7.451  -05 7.937  +01   15.
 7.470  -05 5.782  +01   16.
 7.490  -05 4.621  +01    9.0
 7.509  -05 4.793  +01   11.
 7.529  -05 5.033  +01   11.
 7.548  -05 4.666  +01   10.
 7.568  -05 3.403  +01   21.
 7.588  -05 1.397  +01   31.
 7.607  -05 5.368  +00   25.
 7.627  -05 4.257  +00   14.
 7.647  -05 5.157  +00   23.
 7.667  -05 7.955  +00   19.
 7.688  -05 9.822  +00   16.
 7.708  -05 1.351  +01   26.
 7.728  -05 2.430  +01   23.
 7.749  -05 3.062  +01   13.
 7.769  -05 2.911  +01   10.
 7.790  -05 3.180  +01   16.
 7.810  -05 3.260  +01   18.
 7.831  -05 2.038  +01   26.
 7.852  -05 1.168  +01   20.
 7.873  -05 9.271  +00    9.8
 7.894  -05 9.351  +00   14.
 7.915  -05 1.148  +01   20.
 7.936  -05 1.600  +01   23.
 7.957  -05 2.294  +01   16.
 7.978  -05 2.183  +01   12.
 8.000  -05 1.935  +01   13.
 8.021  -05 2.351  +01   18.
 8.037  -05 2.300  +01   15.
 8.048  -05 1.966  +01   14.
 8.059  -05 1.536  +01   12.
 8.070  -05 1.234  +01    9.7
 8.081  -05 1.201  +01    9.7
 8.091  -05 1.230  +01   11.
 8.102  -05 1.396  +01   14.
 8.113  -05 1.729  +01   17.
 8.124  -05 2.287  +01   17.
 8.135  -05 2.484  +01   16.
 8.146  -05 2.363  +01   13.
 8.157  -05 1.721  +01   15.
 8.168  -05 1.210  +01   15.
 8.179  -05 8.321  +00   17.
 8.190  -05 7.693  +00   12.
 8.202  -05 8.073  +00   15.
 8.213  -05 9.344  +00   18.
 8.224  -05 1.256  +01   20.
 8.235  -05 1.678  +01   21.
 8.246  -05 2.077  +01   22.
 8.257  -05 2.534  +01   17.
 8.269  -05 2.729  +01   14.
 8.280  -05 2.733  +01   11.
 8.291  -05 2.538  +01    9.4
 8.303  -05 2.643  +01    9.7
 8.314  -05 2.764  +01   11.
 8.325  -05 3.191  +01   13.
 8.337  -05 4.179  +01   18.
 8.348  -05 5.004  +01   15.
 8.359  -05 5.577  +01   14.
 8.371  -05 6.251  +01   15.
 8.382  -05 6.913  +01   13.
 8.394  -05 7.699  +01   13.
 8.405  -05 7.980  +01   12.
 8.417  -05 7.838  +01   10.
 8.429  -05 7.547  +01   11.
 8.440  -05 6.781  +01   14.
 8.452  -05 5.646  +01   13.
 8.463  -05 4.905  +01   11.
 8.475  -05 4.356  +01    9.9
 8.487  -05 4.243  +01   10.
 8.499  -05 4.014  +01    9.6
 8.510  -05 3.790  +01    9.6
 8.522  -05 3.284  +01   11.
 8.534  -05 2.782  +01   15.
 8.546  -05 2.317  +01   14.
 8.557  -05 2.046  +01   13.
 8.569  -05 1.716  +01   14.
 8.581  -05 1.365  +01   19.
 8.593  -05 1.042  +01   18.
 8.605  -05 8.678  +00   15.
 8.617  -05 8.038  +00    9.1
 8.629  -05 7.745  +00    9.1
 8.641  -05 7.990  +00   13.
 8.653  -05 1.007  +01   18.
 8.665  -05 1.311  +01   22.
 8.677  -05 1.521  +01   19.
 8.689  -05 1.638  +01   13.
 8.702  -05 1.598  +01   11.
 8.714  -05 1.579  +01   11.
 8.726  -05 1.661  +01   14.
 8.738  -05 1.954  +01   18.
 8.750  -05 2.045  +01   14.
 8.763  -05 2.184  +01   15.
 8.775  -05 2.226  +01   12.
 8.787  -05 2.211  +01   10.
 8.800  -05 2.442  +01   12.
 8.812  -05 2.691  +01   15.
 8.824  -05 3.310  +01   16.
 8.837  -05 3.777  +01   18.
 8.849  -05 4.903  +01   13.
 8.862  -05 5.063  +01   12.
 8.874  -05 5.163  +01   11.
 8.887  -05 4.592  +01    9.2
 8.899  -05 3.897  +01   14.
 8.912  -05 3.010  +01   14.
 8.924  -05 2.521  +01   12.
 8.937  -05 2.278  +01    9.5
 8.950  -05 2.336  +01   13.
 8.962  -05 2.699  +01   16.
 8.975  -05 2.831  +01   15.
 8.988  -05 2.903  +01   13.
 9.001  -05 2.851  +01   13.
 9.014  -05 3.320  +01   17.
 9.026  -05 3.828  +01   19.
 9.039  -05 3.929  +01   14.
 9.052  -05 3.521  +01    9.4
 9.065  -05 3.346  +01    8.9
 9.078  -05 3.659  +01   13.
 9.091  -05 4.298  +01   17.
 9.104  -05 5.247  +01   17.
 9.117  -05 5.521  +01   13.
 9.130  -05 5.376  +01   10.
 9.143  -05 4.374  +01   11.
 9.156  -05 3.408  +01   12.
 9.169  -05 2.879  +01    9.2
 9.182  -05 2.792  +01   11.
 9.196  -05 2.863  +01   13.
 9.209  -05 3.069  +01   13.
 9.222  -05 3.273  +01   14.
 9.235  -05 3.562  +01   15.
 9.249  -05 4.085  +01   16.
 9.262  -05 3.466  +01   10.
 9.275  -05 2.486  +01   23.
 9.289  -05 1.483  +01   20.
 9.302  -05 1.227  +01   12.
 9.316  -05 1.084  +01    9.9
 9.329  -05 1.002  +01    9.0
 9.343  -05 8.722  +00   12.
 9.356  -05 8.593  +00    9.7
 9.370  -05 9.824  +00   16.
 9.383  -05 1.463  +01   23.
 9.397  -05 1.792  +01   19.
 9.411  -05 1.773  +01   17.
 9.424  -05 1.524  +01   12.
 9.438  -05 1.448  +01   17.
 9.452  -05 1.429  +01   12.
 9.466  -05 1.482  +01   12.
 9.479  -05 1.548  +01   13.
 9.493  -05 1.521  +01   13.
 9.507  -05 1.529  +01   12.
 9.521  -05 1.658  +01   14.
 9.535  -05 1.783  +01   17.
 9.549  -05 1.818  +01   14.
 9.563  -05 1.745  +01   11.
 9.577  -05 1.637  +01    9.8
 9.591  -05 1.520  +01    9.6
 9.605  -05 1.636  +01   13.
 9.619  -05 1.699  +01   13.
 9.633  -05 1.687  +01   11.
 9.647  -05 1.557  +01   11.
 9.662  -05 1.325  +01   11.
 9.676  -05 1.153  +01   11.
 9.690  -05 1.084  +01   13.
 9.704  -05 1.163  +01   16.
 9.719  -05 1.340  +01   20.
 9.733  -05 1.598  +01   24.
 9.748  -05 1.922  +01   21.
 9.762  -05 2.784  +01   22.
 9.776  -05 3.929  +01   19.
 9.791  -05 4.380  +01   14.
 9.805  -05 4.487  +01   14.
 9.820  -05 3.301  +01   17.
 9.835  -05 1.968  +01   24.
 9.849  -05 1.348  +01   21.
 9.864  -05 9.137  +00   13.
 9.879  -05 7.868  +00   10.
 9.893  -05 7.548  +00   18.
 9.908  -05 8.375  +00   25.
 9.923  -05 9.616  +00   19.
 9.938  -05 1.106  +01   13.
 9.952  -05 1.096  +01    9.8
 9.967  -05 1.070  +01    9.0
 9.982  -05 1.018  +01   12.
 9.997  -05 1.113  +01   14.
 1.001  -04 1.261  +01   14.
 1.003  -04 1.365  +01   14.
 1.004  -04 1.218  +01   10.
 1.006  -04 1.197  +01   10.
 1.007  -04 1.319  +01   11.
 1.009  -04 1.407  +01   13.
 1.010  -04 1.206  +01   14.
 1.012  -04 1.014  +01   11.
 1.013  -04 9.588  +00   13.
 1.015  -04 1.006  +01   16.
 1.016  -04 1.326  +01   18.
 1.018  -04 1.428  +01   14.
 1.019  -04 1.569  +01   13.
 1.021  -04 1.799  +01   17.
 1.023  -04 2.093  +01   20.
 1.024  -04 2.519  +01   22.
 1.026  -04 3.791  +01   27.
 1.027  -04 4.088  +01   23.
 1.029  -04 4.298  +01   19.
 1.030  -04 4.075  +01   18.
 1.032  -04 3.551  +01   15.
 1.033  -04 3.403  +01   11.
 1.035  -04 3.165  +01   13.
 1.037  -04 2.571  +01   15.
 1.038  -04 2.074  +01   13.
 1.040  -04 1.980  +01    9.8
 1.041  -04 1.874  +01   10.
 1.043  -04 1.876  +01   15.
 1.045  -04 1.950  +01   20.
 1.046  -04 2.269  +01   24.
 1.048  -04 2.930  +01   30.
 1.049  -04 3.842  +01   21.
 1.051  -04 4.059  +01   12.
 1.053  -04 3.639  +01   12.
 1.054  -04 2.859  +01   15.
 1.056  -04 2.322  +01   15.
 1.058  -04 2.180  +01   11.
 1.059  -04 2.162  +01   10.
 1.061  -04 2.023  +01    9.9
 1.062  -04 1.731  +01   11.
 1.064  -04 1.497  +01   11.
 1.066  -04 1.417  +01    9.2
 1.067  -04 1.371  +01   11.
 1.069  -04 1.359  +01    9.8
 1.071  -04 1.471  +01   14.
 1.072  -04 1.813  +01   20.
 1.074  -04 2.640  +01   19.
 1.076  -04 2.687  +01   19.
 1.077  -04 2.322  +01   19.
 1.079  -04 1.675  +01   17.
 1.081  -04 1.309  +01   14.
 1.082  -04 1.046  +01   15.
 1.084  -04 1.024  +01   14.
 1.086  -04 1.101  +01   14.
 1.087  -04 1.342  +01   14.
 1.089  -04 1.328  +01   10.
 1.091  -04 1.179  +01    9.6
 1.093  -04 1.046  +01   11.
 1.094  -04 1.100  +01   12.
 1.096  -04 1.282  +01   16.
 1.098  -04 1.519  +01   16.
 1.099  -04 1.668  +01   13.
 1.101  -04 1.472  +01    9.4
 1.103  -04 1.131  +01   13.
 1.105  -04 8.239  +00   15.
 1.106  -04 7.151  +00   10.
 1.108  -04 6.535  +00   10.
 1.110  -04 6.524  +00   14.
 1.112  -04 7.668  +00   19.
 1.113  -04 9.749  +00   21.
 1.115  -04 1.263  +01   15.
 1.117  -04 1.174  +01   15.
 1.119  -04 8.668  +00   19.
 1.120  -04 7.137  +00   15.
 1.122  -04 6.290  +00   10.
 1.124  -04 6.281  +00   14.
 1.126  -04 7.673  +00   16.
 1.128  -04 9.096  +00   16.
 1.129  -04 1.123  +01   16.
 1.131  -04 1.444  +01   18.
 1.133  -04 2.026  +01   20.
 1.135  -04 2.169  +01   13.
 1.137  -04 1.816  +01   13.
 1.138  -04 1.329  +01   15.
 1.140  -04 1.099  +01   13.
 1.142  -04 1.073  +01    9.4
 1.144  -04 1.097  +01   11.
 1.146  -04 1.247  +01   18.
 1.148  -04 1.510  +01   17.
 1.149  -04 1.870  +01   16.
 1.151  -04 2.081  +01   15.
 1.153  -04 2.447  +01   16.
 1.155  -04 2.925  +01   18.
 1.157  -04 3.470  +01   20.
 1.159  -04 3.670  +01   17.
 1.161  -04 3.259  +01   18.
 1.162  -04 2.595  +01   21.
 1.164  -04 2.145  +01   17.
 1.166  -04 1.916  +01   13.
 1.168  -04 1.771  +01   11.
 1.170  -04 1.859  +01   13.
 1.172  -04 2.124  +01   14.
 1.174  -04 2.535  +01   16.
 1.176  -04 3.198  +01   17.
 1.178  -04 3.644  +01   16.
 1.180  -04 4.228  +01   14.
 1.181  -04 4.277  +01   11.
 1.183  -04 3.981  +01   12.
 1.185  -04 3.906  +01   11.
 1.187  -04 3.316  +01   12.
 1.189  -04 2.583  +01   14.
 1.191  -04 1.975  +01   15.
 1.193  -04 1.691  +01   13.
 1.195  -04 1.522  +01   11.
 1.197  -04 1.471  +01   10.
 1.199  -04 1.467  +01   11.
 1.201  -04 1.430  +01   10.
 1.203  -04 1.435  +01   12.
 1.205  -04 1.713  +01   11.
 1.205  -04 1.576  +01   16.
 1.207  -04 2.083  +01   11.
 1.209  -04 2.468  +01   12.
 1.211  -04 2.774  +01   11.
 1.213  -04 3.557  +01   17.
 1.215  -04 4.778  +01   19.
 1.217  -04 6.484  +01   15.
 1.219  -04 6.814  +01   15.
 1.221  -04 4.531  +01   27.
 1.223  -04 2.177  +01   26.
 1.225  -04 1.541  +01   20.
 1.227  -04 1.159  +01   15.
 1.229  -04 1.025  +01   10.
 1.232  -04 1.197  +01   11.
 1.234  -04 1.498  +01   15.
 1.236  -04 1.686  +01   12.
 1.238  -04 1.843  +01   10.
 1.240  -04 1.934  +01    9.6
 1.242  -04 2.123  +01   11.
 1.244  -04 2.783  +01   15.
 1.246  -04 3.534  +01   11.
 1.248  -04 3.796  +01   10.
 1.250  -04 3.696  +01   11.
 1.252  -04 4.048  +01   10.
 1.254  -04 4.652  +01   13.
 1.256  -04 5.758  +01   14.
 1.259  -04 6.312  +01   11.
 1.261  -04 6.798  +01   11.
 1.263  -04 6.541  +01   11.
 1.265  -04 4.710  +01   16.
 1.267  -04 3.125  +01   19.
 1.269  -04 2.273  +01   17.
 1.271  -04 1.839  +01   16.
 1.274  -04 1.677  +01   12.
 1.276  -04 1.794  +01   12.
 1.278  -04 1.902  +01   11.
 1.280  -04 2.016  +01   13.
 1.282  -04 1.923  +01   16.
 1.284  -04 1.517  +01   19.
 1.287  -04 1.358  +01   17.
 1.289  -04 1.166  +01   14.
 1.291  -04 1.211  +01   13.
 1.293  -04 1.459  +01   17.
 1.295  -04 1.683  +01   15.
 1.298  -04 1.712  +01   12.
 1.300  -04 1.840  +01   12.
 1.302  -04 1.863  +01   10.
 1.304  -04 2.027  +01   12.
 1.306  -04 2.252  +01   16.
 1.309  -04 3.225  +01   19.
 1.311  -04 3.734  +01   15.
 1.313  -04 3.958  +01   12.
 1.315  -04 4.032  +01   12.
 1.318  -04 3.938  +01   12.
 1.320  -04 4.017  +01   13.
 1.322  -04 4.035  +01   13.
 1.325  -04 4.014  +01   13.
 1.327  -04 4.023  +01   12.
 1.329  -04 3.790  +01   13.
 1.331  -04 3.726  +01   18.
 1.334  -04 3.906  +01   20.
 1.336  -04 3.945  +01   19.
 1.338  -04 3.363  +01   16.
 1.341  -04 3.000  +01   17.
 1.343  -04 3.174  +01   16.
 1.345  -04 3.608  +01   17.
 1.348  -04 4.335  +01   17.
 1.350  -04 5.559  +01   14.
 1.352  -04 6.039  +01   11.
 1.355  -04 5.075  +01   14.
 1.357  -04 3.349  +01   13.
 1.359  -04 2.751  +01   12.
 1.362  -04 2.435  +01   12.
 1.364  -04 1.735  +01   15.
 1.367  -04 1.330  +01   11.
 1.369  -04 1.273  +01   15.
 1.371  -04 1.426  +01   13.
 1.374  -04 1.610  +01   14.
 1.376  -04 1.265  +01   20.
 1.379  -04 8.062  +00   16.
 1.381  -04 7.265  +00   13.
 1.384  -04 6.402  +00   14.
 1.386  -04 5.708  +00   18.
 1.388  -04 7.218  +00   19.
 1.391  -04 8.931  +00   13.
 1.393  -04 9.256  +00   15.
 1.396  -04 1.079  +01   11.
 1.398  -04 1.309  +01   13.
 1.401  -04 1.543  +01   10.
 1.403  -04 1.551  +01   10.
 1.406  -04 1.593  +01   11.
 1.408  -04 1.587  +01   14.
 1.411  -04 1.813  +01   14.
 1.413  -04 2.054  +01   16.
 1.416  -04 2.511  +01   16.
 1.418  -04 3.009  +01   11.
 1.421  -04 3.084  +01   14.
 1.423  -04 2.072  +01   17.
 1.426  -04 1.588  +01   14.
 1.429  -04 1.386  +01   13.
 1.431  -04 1.163  +01   12.
 1.434  -04 1.046  +01   13.
 1.436  -04 1.117  +01   14.
 1.439  -04 1.211  +01   13.
 1.441  -04 1.416  +01   14.
 1.444  -04 1.575  +01   13.
 1.447  -04 1.882  +01   14.
 1.449  -04 2.327  +01   16.
 1.452  -04 3.086  +01   16.
 1.454  -04 3.468  +01   11.
 1.457  -04 2.932  +01   17.
 1.460  -04 2.153  +01   15.
 1.462  -04 1.919  +01   12.
 1.465  -04 1.679  +01   13.
 1.468  -04 1.662  +01   17.
 1.470  -04 1.999  +01   16.
 1.473  -04 2.104  +01   14.
 1.476  -04 1.646  +01   16.
 1.478  -04 1.588  +01   12.
 1.481  -04 1.669  +01   13.
 1.484  -04 1.838  +01   17.
 1.487  -04 2.338  +01   15.
 1.489  -04 2.836  +01   16.
 1.492  -04 2.390  +01   14.
 1.495  -04 2.019  +01   15.
 1.497  -04 1.860  +01   13.
 1.500  -04 1.442  +01   13.
 1.503  -04 1.075  +01   16.
 1.506  -04 8.995  +00   10.
 1.509  -04 7.993  +00   12.
 1.511  -04 8.177  +00   11.
 1.514  -04 9.447  +00   15.
 1.517  -04 1.019  +01   11.
 1.520  -04 1.051  +01   12.
 1.522  -04 1.168  +01   13.
 1.525  -04 1.344  +01   13.
 1.528  -04 1.630  +01   15.
 1.531  -04 2.289  +01   15.
 1.534  -04 2.733  +01   13.
 1.537  -04 2.042  +01   16.
 1.540  -04 1.892  +01   12.
 1.542  -04 1.924  +01   13.
 1.545  -04 1.748  +01   12.
 1.548  -04 1.851  +01   12.
 1.551  -04 1.896  +01   10.
 1.554  -04 2.122  +01   11.
 1.557  -04 2.191  +01   10.
 1.560  -04 2.239  +01   10.
 1.563  -04 2.361  +01    9.2
 1.566  -04 2.252  +01   12.
 1.569  -04 2.126  +01   16.
 1.572  -04 1.793  +01   14.
 1.574  -04 1.859  +01    9.2
 1.577  -04 1.712  +01   12.
 1.580  -04 1.754  +01   11.
 1.583  -04 1.949  +01   12.
 1.586  -04 1.953  +01   12.
 1.589  -04 1.942  +01   10.
 1.592  -04 1.960  +01   11.
 1.595  -04 1.818  +01   12.
 1.598  -04 1.638  +01   13.
 1.601  -04 1.547  +01   13.
 1.605  -04 1.604  +01   13.
 1.608  -04 1.927  +01   12.
 1.609  -04 1.933  +01   13.
 1.612  -04 1.773  +01   13.
 1.615  -04 1.677  +01   11.
 1.618  -04 1.889  +01   11.
 1.621  -04 1.954  +01    9.3
 1.624  -04 2.064  +01    9.9
 1.627  -04 2.227  +01   11.
 1.630  -04 2.275  +01   14.
 1.633  -04 2.889  +01   17.
 1.636  -04 2.606  +01   14.
 1.640  -04 2.156  +01   18.
 1.643  -04 2.031  +01   14.
 1.646  -04 1.998  +01   11.
 1.649  -04 1.756  +01   14.
 1.652  -04 1.824  +01   13.
 1.655  -04 2.165  +01   16.
 1.659  -04 2.372  +01   13.
 1.662  -04 2.574  +01   13.
 1.665  -04 2.466  +01   16.
 1.668  -04 2.272  +01   13.
 1.672  -04 2.239  +01   11.
 1.675  -04 2.330  +01   11.
 1.678  -04 2.520  +01   11.
 1.681  -04 2.431  +01   11.
 1.685  -04 2.348  +01   11.
 1.688  -04 2.301  +01   10.
 1.691  -04 2.216  +01   11.
 1.694  -04 1.898  +01   16.
 1.698  -04 1.631  +01   18.
 1.701  -04 1.564  +01    9.7
 1.704  -04 1.466  +01   14.
 1.708  -04 1.331  +01   15.
 1.711  -04 1.322  +01   12.
 1.714  -04 1.386  +01   15.
 1.718  -04 1.498  +01   13.
 1.721  -04 1.570  +01   13.
 1.725  -04 1.721  +01   12.
 1.728  -04 1.880  +01   13.
 1.731  -04 2.113  +01   13.
 1.735  -04 2.432  +01   15.
 1.738  -04 2.916  +01   15.
 1.742  -04 3.205  +01   15.
 1.745  -04 3.368  +01   13.
 1.749  -04 3.454  +01   13.
 1.752  -04 3.375  +01    9.1
 1.756  -04 3.550  +01   15.
 1.759  -04 3.803  +01   13.
 1.763  -04 3.704  +01   12.
 1.766  -04 3.874  +01   12.
 1.770  -04 4.021  +01   11.
 1.773  -04 4.834  +01   15.
 1.777  -04 4.217  +01   14.
 1.780  -04 3.251  +01   19.
 1.784  -04 3.660  +01   18.
 1.787  -04 2.661  +01   24.
 1.791  -04 2.028  +01   31.
 1.795  -04 1.920  +01   13.
 1.798  -04 1.789  +01   13.
 1.802  -04 2.018  +01   16.
 1.805  -04 1.888  +01   12.
 1.809  -04 1.816  +01   13.
 1.813  -04 2.084  +01   15.
 1.816  -04 1.855  +01   13.
 1.820  -04 1.791  +01   11.
 1.824  -04 1.423  +01   25.
 1.827  -04 1.376  +01   13.
 1.831  -04 1.150  +01   15.
 1.835  -04 7.984  +00   19.
 1.839  -04 6.410  +00   17.
 1.842  -04 5.763  +00   12.
 1.846  -04 5.629  +00   14.
 1.850  -04 6.381  +00   14.
 1.854  -04 6.908  +00   15.
 1.857  -04 7.680  +00   14.
 1.861  -04 8.047  +00   15.
 1.865  -04 9.445  +00   16.
 1.869  -04 1.044  +01   15.
 1.873  -04 1.125  +01   17.
 1.877  -04 1.240  +01   15.
 1.880  -04 1.199  +01   14.
 1.884  -04 1.314  +01   16.
 1.888  -04 1.403  +01   17.
 1.892  -04 1.849  +01   18.
 1.896  -04 1.934  +01   14.
 1.900  -04 2.002  +01    9.7
 1.904  -04 2.109  +01   14.
 1.908  -04 1.939  +01   13.
 1.912  -04 1.759  +01   16.
 1.916  -04 1.774  +01   18.
 1.920  -04 2.163  +01   14.
 1.924  -04 2.338  +01   17.
 1.928  -04 2.010  +01   22.
 1.932  -04 2.248  +01   15.
 1.936  -04 2.164  +01   19.
 1.940  -04 1.769  +01   15.
 1.944  -04 1.701  +01   15.
 1.948  -04 1.769  +01   17.
 1.952  -04 2.026  +01   21.
 1.956  -04 1.793  +01   16.
 1.960  -04 1.693  +01   13.
 1.964  -04 1.775  +01   16.
 1.968  -04 2.150  +01   16.
 1.973  -04 2.434  +01   15.
 1.977  -04 2.844  +01   14.
 1.981  -04 3.197  +01   10.
 1.985  -04 3.430  +01    9.1
 1.989  -04 3.579  +01    9.8
 1.994  -04 3.553  +01   11.
 1.998  -04 3.668  +01   11.
 2.002  -04 3.451  +01   14.
 2.006  -04 2.541  +01   19.
 2.011  -04 3.007  +01   19.
 2.015  -04 2.848  +01   23.
 2.020  -04 1.594  +01   28.
 2.024  -04 1.241  +01   19.
 2.028  -04 1.432  +01   15.
 2.033  -04 1.550  +01   13.
 2.037  -04 1.418  +01   14.
 2.041  -04 1.330  +01   12.
 2.046  -04 1.498  +01   15.
 2.050  -04 1.572  +01   14.
 2.055  -04 1.228  +01   15.
 2.059  -04 1.198  +01   13.
 2.064  -04 1.332  +01   12.
 2.068  -04 1.726  +01   19.
 2.072  -04 1.433  +01   17.
 2.077  -04 1.484  +01   19.
 2.081  -04 1.866  +01   18.
 2.086  -04 1.406  +01   23.
 2.090  -04 1.247  +01   15.
 2.095  -04 1.205  +01   14.
 2.100  -04 1.299  +01   13.
 2.104  -04 1.540  +01   17.
 2.109  -04 1.690  +01   15.
 2.113  -04 1.886  +01   15.
 2.118  -04 2.083  +01   16.
 2.123  -04 2.151  +01   16.
 2.127  -04 2.226  +01   15.
 2.132  -04 2.302  +01   16.
 2.137  -04 2.368  +01   15.
 2.141  -04 2.155  +01   16.
 2.146  -04 2.802  +01   21.
 2.151  -04 2.667  +01   20.
 2.155  -04 2.147  +01   17.
 2.160  -04 1.787  +01   12.
 2.165  -04 1.888  +01   11.
 2.170  -04 1.856  +01   15.
 2.175  -04 2.088  +01   12.
 2.179  -04 2.378  +01   14.
 2.184  -04 2.654  +01   15.
 2.189  -04 2.595  +01   14.
 2.194  -04 2.712  +01   14.
 2.199  -04 2.824  +01   14.
 2.204  -04 3.316  +01   15.
 2.209  -04 3.354  +01   15.
 2.214  -04 3.825  +01   19.
 2.218  -04 4.328  +01   21.
 2.223  -04 3.707  +01   17.
 2.228  -04 3.610  +01   15.
 2.233  -04 3.149  +01   18.
 2.238  -04 2.628  +01   23.
 2.243  -04 3.448  +01   20.
 2.248  -04 3.072  +01   18.
 2.254  -04 2.785  +01   19.
 2.259  -04 3.377  +01   15.
 2.264  -04 2.971  +01   16.
 2.269  -04 2.496  +01   21.
 2.274  -04 2.269  +01   20.
 2.279  -04 2.312  +01   11.
 2.284  -04 2.351  +01   13.
 2.290  -04 2.203  +01   12.
 2.295  -04 2.131  +01   14.
 2.300  -04 2.344  +01   14.
 2.305  -04 2.846  +01   15.
 2.310  -04 2.730  +01   11.
 2.316  -04 2.577  +01   14.
 2.321  -04 2.981  +01   20.
 2.326  -04 3.656  +01   22.
 2.332  -04 3.029  +01   21.
 2.337  -04 2.303  +01   25.
 2.342  -04 2.652  +01   20.
 2.348  -04 1.945  +01   15.
 2.353  -04 2.119  +01   15.
 2.359  -04 1.688  +01   17.
 2.364  -04 1.371  +01   14.
 2.370  -04 1.337  +01   11.
 2.375  -04 1.499  +01   17.
 2.381  -04 1.760  +01   19.
 2.386  -04 1.864  +01   15.
 2.392  -04 2.146  +01   17.
 2.397  -04 2.353  +01   14.
 2.403  -04 2.598  +01   14.
 2.408  -04 2.689  +01   13.
 2.414  -04 2.748  +01   12.
 2.418  -04 2.565  +01   15.
 2.424  -04 3.107  +01   19.
 2.430  -04 2.758  +01   21.
 2.435  -04 1.920  +01   24.
 2.441  -04 1.852  +01   14.
 2.447  -04 1.533  +01   15.
 2.453  -04 1.553  +01   15.
 2.458  -04 1.680  +01   13.
 2.464  -04 1.946  +01   20.
 2.470  -04 2.164  +01   17.
 2.476  -04 2.080  +01   11.
 2.482  -04 1.884  +01   13.
 2.488  -04 1.852  +01   15.
 2.494  -04 2.076  +01   15.
 2.499  -04 1.982  +01   19.
 2.505  -04 2.333  +01   15.
 2.511  -04 1.753  +01   22.
 2.517  -04 1.663  +01   19.
 2.523  -04 1.670  +01   19.
 2.529  -04 2.112  +01   17.
 2.535  -04 2.182  +01   15.
 2.542  -04 2.371  +01   21.
 2.548  -04 2.643  +01   20.
 2.554  -04 2.259  +01   17.
 2.560  -04 1.722  +01   26.
 2.566  -04 1.450  +01   23.
 2.572  -04 2.039  +01   28.
 2.578  -04 2.120  +01   25.
 2.585  -04 1.899  +01   11.
 2.591  -04 2.009  +01   11.
 2.597  -04 2.227  +01   13.
 2.603  -04 2.383  +01   12.
 2.610  -04 2.917  +01   17.
 2.616  -04 3.558  +01   16.
 2.622  -04 3.484  +01   12.
 2.629  -04 4.527  +01   23.
 2.635  -04 4.694  +01   24.
 2.642  -04 2.728  +01   34.
 2.648  -04 1.966  +01   31.
 2.655  -04 1.795  +01   21.
 2.661  -04 2.096  +01   17.
 2.668  -04 2.132  +01   16.
 2.674  -04 3.160  +01   30.
 2.681  -04 3.794  +01   21.
 2.687  -04 3.163  +01   13.
 2.694  -04 3.258  +01   14.
 2.701  -04 3.153  +01   13.
 2.707  -04 3.100  +01   11.
 2.714  -04 3.503  +01   14.
 2.721  -04 3.495  +01   14.
 2.727  -04 3.101  +01   21.
 2.734  -04 2.262  +01   28.
 2.741  -04 3.568  +01   29.
 2.748  -04 3.390  +01   24.
 2.755  -04 2.152  +01   33.
 2.762  -04 1.881  +01   23.
 2.768  -04 1.742  +01   13.
 2.775  -04 1.729  +01   15.
 2.782  -04 3.484  +01   42.
 2.789  -04 3.031  +01   40.
 2.796  -04 1.709  +01   43.
 2.803  -04 1.578  +01   26.
 2.810  -04 2.148  +01   30.
 2.818  -04 2.641  +01   34.
 2.820  -04 2.240  +01   24.
 2.828  -04 1.381  +01   36.
 2.835  -04 9.403  +00   27.
 2.842  -04 6.988  +00   23.
 2.849  -04 7.360  +00   17.
 2.856  -04 8.087  +00   15.
 2.864  -04 9.738  +00   22.
 2.871  -04 1.196  +01   23.
 2.878  -04 1.449  +01   15.
 2.886  -04 1.446  +01   20.
 2.893  -04 1.838  +01   18.
 2.900  -04 1.476  +01   20.
 2.908  -04 1.957  +01   31.
 2.915  -04 2.810  +01   22.
 2.923  -04 1.930  +01   33.
 2.930  -04 9.094  +00   39.
 2.938  -04 8.838  +00   23.
 2.945  -04 8.095  +00   21.
 2.953  -04 7.939  +00   19.
 2.961  -04 6.502  +00   24.
 2.968  -04 8.081  +00   29.
 2.976  -04 1.188  +01   28.
 2.984  -04 1.193  +01   21.
 2.991  -04 9.334  +00   27.
 2.999  -04 1.149  +01   31.
 3.007  -04 1.710  +01   34.
 3.015  -04 1.085  +01   22.
 3.023  -04 1.008  +01   16.
 3.031  -04 9.261  +00   21.
 3.039  -04 8.308  +00   20.
 3.047  -04 1.046  +01   20.
 3.055  -04 9.841  +00   19.
 3.063  -04 1.106  +01   28.
 3.071  -04 1.387  +01   21.
 3.079  -04 1.112  +01   25.
 3.087  -04 8.715  +00   33.
 3.095  -04 9.677  +00   27.
 3.103  -04 1.020  +01   19.
 3.111  -04 1.019  +01   17.
 3.120  -04 8.812  +00   17.
 3.128  -04 8.662  +00   26.
 3.136  -04 1.133  +01   21.
 3.145  -04 1.563  +01   27.
 3.153  -04 1.840  +01   18.
 3.162  -04 1.384  +01   26.
 3.170  -04 1.649  +01   20.
 3.178  -04 1.956  +01   20.
 3.187  -04 1.570  +01   34.
 3.196  -04 1.443  +01   18.
 3.204  -04 1.231  +01   16.
 3.213  -04 1.352  +01   16.
 3.221  -04 1.666  +01   24.
 3.231  -04 2.968  +01   11.
 3.235  -04 2.929  +01   14.
 3.240  -04 2.972  +01   15.
 3.244  -04 2.455  +01   15.
 3.248  -04 2.092  +01   11.
 3.253  -04 2.003  +01   16.
 3.257  -04 2.317  +01   14.
 3.262  -04 1.499  +01   14.
 3.266  -04 1.509  +01   15.
 3.270  -04 1.309  +01   20.
 3.275  -04 9.115  +00   16.
 3.279  -04 9.401  +00   26.
 3.284  -04 1.603  +01   27.
 3.288  -04 1.915  +01   13.
 3.293  -04 1.634  +01   11.
 3.297  -04 1.703  +01   18.
 3.302  -04 1.738  +01   12.
 3.306  -04 1.352  +01   12.
 3.311  -04 1.044  +01   12.
 3.315  -04 1.386  +01   26.
 3.324  -04 3.166  +01   13.
 3.329  -04 2.667  +01   18.
 3.333  -04 2.350  +01   10.
 3.338  -04 2.457  +01   12.
 3.342  -04 1.626  +01   25.
 3.347  -04 1.158  +01   16.
 3.352  -04 1.004  +01   13.
 3.356  -04 1.766  +01   26.
 3.361  -04 2.376  +01   11.
 3.365  -04 2.036  +01   19.
 3.370  -04 1.287  +01   11.
 3.375  -04 1.277  +01   16.
 3.379  -04 1.074  +01   14.
 3.384  -04 1.738  +01   15.
 3.389  -04 2.241  +01   15.
 3.393  -04 3.564  +01   17.
 3.398  -04 3.995  +01   13.
 3.403  -04 2.329  +01   19.
 3.407  -04 1.373  +01   13.
 3.412  -04 1.331  +01   15.
 3.417  -04 1.607  +01   14.
 3.422  -04 1.501  +01   16.
 3.426  -04 1.878  +01   12.
 3.431  -04 2.387  +01   15.
 3.436  -04 2.590  +01   12.
 3.441  -04 1.671  +01   24.
 3.445  -04 6.971  +00   25.
 3.450  -04 8.011  +00   12.
 3.455  -04 8.820  +00   16.
 3.460  -04 1.274  +01   29.
 3.465  -04 2.533  +01   19.
 3.469  -04 2.132  +01   17.
 3.474  -04 1.208  +01   21.
 3.479  -04 1.277  +01   16.
 3.484  -04 1.118  +01   16.
 3.489  -04 1.197  +01   12.
 3.494  -04 1.142  +01   13.
 3.499  -04 1.223  +01   11.
 3.504  -04 1.361  +01   11.
 3.513  -04 1.516  +01   15.
 3.518  -04 1.345  +01   12.
 3.523  -04 1.448  +01   13.
 3.528  -04 1.417  +01   19.
 3.533  -04 1.070  +01   17.
 3.538  -04 6.324  +00   20.
 3.543  -04 1.028  +01   18.
 3.548  -04 1.931  +01   19.
 3.553  -04 1.836  +01   13.
 3.558  -04 1.350  +01   15.
 3.563  -04 9.588  +00   14.
 3.568  -04 9.974  +00   15.
 3.573  -04 9.734  +00   15.
 3.578  -04 8.621  +00   13.
 3.583  -04 8.000  +00   21.
 3.589  -04 1.105  +01   17.
 3.594  -04 1.133  +01   15.
 3.599  -04 1.282  +01   19.
 3.604  -04 1.260  +01   13.
 3.609  -04 1.624  +01   19.
 3.614  -04 1.533  +01   19.
 3.619  -04 9.570  +00   19.
 3.624  -04 8.683  +00   17.
 3.630  -04 8.251  +00   24.
 3.635  -04 1.248  +01   17.
 3.640  -04 1.605  +01   14.
 3.645  -04 1.665  +01   23.
 3.650  -04 1.725  +01   15.
 3.656  -04 1.329  +01   21.
 3.661  -04 6.161  +00   21.
 3.666  -04 5.299  +00   28.
 3.671  -04 6.065  +00   17.
 3.677  -04 6.751  +00   18.
 3.682  -04 7.528  +00   23.
 3.687  -04 5.314  +00   13.
 3.693  -04 8.225  +00   14.
 3.698  -04 1.507  +01   18.
 3.703  -04 1.352  +01   17.
 3.709  -04 9.888  +00   14.
 3.719  -04 6.713  +00   17.
 3.725  -04 9.563  +00   17.
 3.730  -04 1.068  +01   13.
 3.735  -04 9.244  +00   32.
 3.741  -04 5.844  +00   15.
 3.746  -04 6.256  +00   13.
 3.752  -04 4.656  +00   14.
 3.757  -04 6.249  +00   17.
 3.763  -04 8.288  +00   16.
 3.768  -04 8.145  +00   18.
 3.774  -04 1.187  +01   14.
 3.779  -04 9.092  +00   14.
 3.785  -04 1.357  +01   43.
 3.790  -04 2.299  +01   17.
 3.796  -04 2.397  +01   11.
 3.801  -04 1.522  +01   21.
 3.807  -04 1.114  +01   18.
 3.812  -04 1.324  +01   14.
 3.818  -04 9.579  +00   24.
 3.823  -04 1.361  +01   22.
 3.829  -04 1.671  +01   16.
 3.835  -04 8.531  +00   33.
 3.840  -04 7.334  +00   29.
 3.846  -04 6.747  +00   20.
 3.852  -04 6.086  +00   14.
 3.857  -04 5.844  +00   20.
 3.863  -04 1.211  +01   37.
 3.869  -04 2.477  +01   16.
 3.874  -04 1.665  +01   31.
 3.880  -04 9.816  +00   21.
 3.886  -04 5.989  +00   12.
 3.891  -04 4.952  +00   13.
 3.897  -04 5.456  +00   21.
 3.903  -04 5.137  +00   17.
 3.909  -04 1.007  +01   31.
 3.915  -04 1.801  +01   15.
 3.920  -04 1.705  +01   11.
 3.926  -04 1.019  +01   17.
 3.932  -04 8.934  +00   14.
 3.944  -04 7.315  +00   14.
 3.950  -04 1.073  +01   17.
 3.955  -04 1.647  +01   12.
 3.961  -04 1.793  +01   11.
 3.967  -04 1.314  +01   16.
 3.973  -04 6.898  +00   22.
 3.979  -04 4.349  +00   21.
 3.985  -04 4.939  +00   24.
 3.991  -04 4.607  +00   17.
 3.998  -04 7.785  +00   16.
 4.004  -04 8.366  +00   12.
 4.010  -04 8.101  +00   21.
 4.016  -04 9.844  +00   22.
 4.022  -04 8.855  +00   22.
 4.028  -04 5.836  +00   34.
 4.034  -04 8.329  +00   32.
 4.040  -04 1.917  +01   21.
 4.046  -04 1.824  +01   11.
 4.052  -04 1.598  +01   14.
 4.058  -04 9.155  +00   34.
 4.064  -04 7.375  +00   14.
 4.070  -04 7.938  +00   33.
 4.077  -04 1.366  +01   17.
 4.083  -04 1.201  +01   25.
 4.089  -04 6.462  +00   20.
 4.095  -04 6.036  +00   23.
 4.101  -04 7.043  +00   13.
 4.107  -04 5.468  +00   19.
 4.114  -04 6.506  +00   19.
 4.120  -04 6.039  +00   15.
 4.126  -04 7.928  +00   20.
 4.133  -04 1.233  +01   26.
 4.139  -04 1.601  +01   21.
 4.145  -04 1.816  +01   18.
 4.151  -04 1.705  +01   16.
 4.158  -04 1.244  +01   14.
 4.164  -04 9.651  +00   15.
 4.171  -04 1.831  +01   35.
 4.177  -04 3.030  +01   15.
 4.183  -04 1.771  +01   16.
 4.190  -04 1.680  +01   11.
 4.196  -04 1.340  +01   22.
 4.203  -04 8.581  +00   14.
 4.209  -04 8.926  +00   12.
 4.216  -04 1.198  +01   15.
 4.222  -04 2.038  +01   19.
 4.229  -04 2.035  +01   15.
 4.235  -04 1.687  +01   12.
 4.242  -04 1.710  +01   14.
 4.248  -04 2.302  +01   17.
 4.255  -04 1.786  +01   19.
 4.261  -04 1.178  +01   17.
 4.268  -04 1.878  +01   23.
 4.274  -04 1.422  +01   26.
 4.281  -04 1.571  +01   22.
 4.288  -04 2.059  +01   14.
 4.294  -04 2.052  +01   12.
 4.301  -04 2.200  +01   13.
 4.308  -04 1.973  +01   22.
 4.314  -04 1.201  +01   18.
 4.321  -04 1.699  +01   28.
 4.328  -04 3.186  +01   19.
 4.335  -04 3.588  +01   15.
 4.341  -04 2.618  +01   14.
 4.348  -04 1.430  +01   33.
 4.355  -04 6.384  +00   20.
 4.362  -04 8.303  +00   16.
 4.369  -04 1.071  +01   19.
 4.375  -04 1.496  +01   16.
 4.382  -04 1.819  +01   19.
 4.389  -04 2.480  +01   13.
 4.396  -04 2.676  +01   13.
 4.403  -04 2.222  +01   25.
 4.410  -04 1.981  +01   24.
 4.417  -04 2.821  +01   12.
 4.424  -04 1.624  +01   39.
 4.431  -04 5.556  +00   18.
 4.438  -04 7.236  +00   17.
 4.452  -04 3.266  +00   29.
 4.459  -04 4.944  +00   19.
 4.466  -04 5.794  +00   19.
 4.473  -04 1.114  +01   24.
 4.480  -04 1.458  +01   15.
 4.487  -04 1.418  +01   14.
 4.494  -04 1.682  +01   13.
 4.501  -04 1.356  +01   26.
 4.509  -04 6.353  +00   13.
 4.516  -04 7.866  +00   19.
 4.523  -04 1.027  +01   24.
 4.530  -04 1.675  +01   13.
 4.537  -04 1.050  +01   21.
 4.545  -04 7.718  +00   13.
 4.552  -04 9.059  +00   13.
 4.559  -04 6.254  +00   15.
 4.566  -04 8.380  +00   20.
 4.574  -04 1.176  +01   12.
 4.581  -04 1.691  +01   12.
 4.588  -04 1.543  +01   15.
 4.596  -04 9.497  +00   14.
 4.603  -04 1.361  +01   27.
 4.611  -04 2.738  +01   20.
 4.618  -04 2.588  +01   14.
 4.625  -04 2.545  +01   15.
 4.633  -04 3.681  +01   12.
 4.640  -04 1.841  +01   41.
 4.648  -04 5.842  +00   23.
 4.655  -04 9.614  +00   26.
 4.663  -04 1.116  +01   13.
 4.671  -04 8.935  +00   18.
 4.678  -04 1.532  +01   24.
 4.686  -04 1.785  +01   16.
 4.693  -04 1.182  +01   18.
 4.701  -04 1.093  +01   12.
 4.709  -04 2.340  +01   28.
 4.716  -04 2.129  +01   29.
 4.724  -04 1.033  +01   20.
 4.732  -04 7.667  +00   26.
 4.747  -04 5.164  +00   28.
 4.755  -04 8.930  +00   23.
 4.763  -04 1.375  +01   13.
 4.770  -04 1.106  +01   14.
 4.778  -04 1.666  +01   30.
 4.786  -04 2.954  +01   14.
 4.794  -04 2.014  +01   29.
 4.802  -04 2.078  +01   27.
 4.810  -04 2.551  +01   15.
 4.817  -04 1.562  +01   15.
 4.825  -04 1.080  +01   13.
 4.833  -04 1.055  +01   13.
 4.841  -04 1.190  +01   17.
 4.849  -04 1.091  +01   18.
 4.857  -04 1.016  +01   18.
 4.865  -04 1.280  +01   12.
 4.873  -04 1.140  +01   13.
 4.881  -04 1.851  +01   27.
 4.890  -04 2.087  +01   13.
 4.898  -04 2.113  +01   12.
 4.906  -04 1.314  +01   29.
 4.914  -04 1.179  +01   13.
 4.922  -04 1.036  +01   13.
 4.930  -04 9.747  +00   13.
 4.938  -04 1.325  +01   23.
 4.947  -04 2.107  +01   13.
 4.955  -04 2.184  +01   18.
 4.963  -04 1.585  +01   12.
 4.971  -04 1.441  +01   21.
 4.980  -04 1.844  +01   17.
 4.988  -04 2.587  +01   12.
 4.996  -04 2.894  +01   11.
 5.005  -04 2.445  +01   10.
 5.013  -04 2.813  +01   14.
 5.022  -04 2.971  +01   12.
 5.030  -04 2.571  +01   16.
 5.039  -04 1.749  +01   11.
 5.047  -04 2.152  +01   11.
 5.056  -04 2.089  +01   16.
 5.064  -04 1.802  +01   20.
 5.073  -04 1.972  +01   13.
 5.081  -04 1.635  +01   12.
 5.090  -04 2.200  +01   15.
 5.098  -04 2.526  +01   19.
 5.107  -04 3.588  +01   15.
 5.116  -04 3.155  +01   17.
 5.124  -04 4.026  +01   17.
 5.133  -04 2.775  +01   28.
 5.142  -04 1.111  +01   17.
 5.150  -04 7.154  +00   13.
 5.159  -04 6.695  +00   14.
 5.168  -04 5.201  +00   28.
 5.177  -04 8.031  +00   35.
 5.186  -04 1.854  +01   26.
 5.194  -04 2.261  +01   18.
 5.203  -04 1.055  +01   33.
 5.212  -04 7.312  +00   24.
 5.221  -04 9.123  +00   14.
 5.230  -04 1.244  +01   19.
 5.239  -04 1.488  +01   23.
 5.248  -04 5.143  +00   26.
 5.257  -04 5.723  +00   24.
 5.266  -04 1.627  +01   32.
 5.275  -04 1.729  +01   20.
 5.284  -04 1.602  +01   29.
 5.293  -04 2.131  +01   19.
 5.303  -04 2.298  +01   16.
 5.312  -04 1.194  +01   31.
 5.321  -04 6.735  +00   13.
 5.330  -04 9.142  +00   31.
 5.339  -04 1.467  +01   12.
 5.349  -04 1.159  +01   19.
 5.358  -04 1.229  +01   19.
 5.367  -04 1.844  +01   15.
 5.376  -04 2.166  +01   17.
 5.386  -04 1.219  +01   11.
 5.395  -04 1.130  +01   13.
 5.405  -04 1.058  +01   16.
 5.414  -04 2.113  +01   20.
 5.423  -04 2.603  +01   18.
 5.433  -04 1.559  +01   16.
 5.442  -04 1.134  +01   27.
 5.452  -04 2.041  +01   36.
 5.461  -04 1.159  +01   31.
 5.471  -04 4.641  +00   19.
 5.481  -04 3.903  +00   15.
 5.490  -04 5.533  +00   17.
 5.500  -04 8.109  +00   17.
 5.510  -04 1.203  +01   15.
 5.519  -04 6.004  +00   40.
 5.529  -04 4.067  +00   27.
 5.539  -04 4.612  +00   30.
 5.548  -04 1.166  +01   40.
 5.558  -04 1.808  +01   12.
 5.568  -04 2.380  +01   13.
 5.578  -04 1.686  +01   29.
 5.588  -04 1.086  +01   29.
 5.598  -04 1.681  +01   17.
 5.608  -04 1.313  +01   13.
 5.618  -04 1.080  +01   18.
 5.628  -04 1.149  +01   19.
 5.638  -04 1.300  +01   13.
 5.648  -04 1.087  +01   13.
 5.658  -04 1.485  +01   11.
 5.668  -04 1.084  +01   15.
 5.678  -04 1.325  +01   18.
 5.688  -04 1.524  +01   11.
 5.698  -04 1.855  +01   37.
 5.708  -04 2.425  +01   27.
 5.719  -04 3.210  +01   12.
 5.729  -04 1.894  +01   32.
 5.739  -04 1.503  +01   13.
 5.749  -04 2.216  +01   13.
 5.760  -04 2.396  +01   13.
 5.770  -04 2.200  +01   22.
 5.781  -04 9.505  +00   16.
 5.791  -04 1.048  +01   17.
 5.801  -04 6.573  +00   23.
 5.812  -04 1.003  +01   17.
 5.833  -04 1.352  +01   27.
 5.844  -04 1.896  +01   18.
 5.854  -04 1.474  +01   16.
 5.865  -04 1.455  +01   14.
 5.875  -04 1.565  +01   19.
 5.886  -04 1.745  +01   13.
 5.897  -04 2.551  +01   12.
 5.908  -04 1.959  +01   14.
 5.918  -04 1.359  +01   16.
 5.929  -04 1.091  +01   11.
 5.940  -04 1.738  +01   14.
 5.951  -04 1.562  +01   23.
 5.962  -04 7.386  +00   28.
 5.973  -04 7.852  +00   29.
 5.983  -04 1.468  +01   12.
 5.994  -04 1.252  +01   19.
 5.995  -04 1.246  +01   11.
 6.006  -04 1.067  +01   12.
 6.017  -04 1.626  +01   19.
 6.028  -04 2.097  +01   11.
 6.039  -04 1.425  +01   20.
 6.051  -04 8.321  +00   16.
 6.062  -04 9.565  +00   14.
 6.073  -04 1.138  +01   16.
 6.084  -04 1.669  +01   22.
 6.095  -04 2.588  +01   13.
 6.107  -04 1.666  +01   30.
 6.118  -04 1.101  +01   14.
 6.129  -04 6.837  +00   12.
 6.141  -04 1.084  +01   12.
 6.152  -04 1.208  +01   12.
 6.164  -04 9.777  +00   14.
 6.175  -04 1.268  +01   16.
 6.187  -04 1.611  +01   37.
 6.198  -04 4.387  +00   17.
 6.210  -04 3.986  +00   23.
 6.221  -04 4.572  +00   25.
 6.233  -04 6.195  +00   12.
 6.245  -04 8.048  +00   18.
 6.256  -04 1.480  +01   17.
 6.268  -04 1.784  +01   20.
 6.280  -04 1.639  +01   24.
 6.292  -04 1.025  +01   18.
 6.303  -04 1.293  +01   11.
 6.315  -04 1.161  +01   17.
 6.327  -04 1.157  +01   25.
 6.339  -04 1.035  +01   24.
 6.351  -04 1.153  +01   24.
 6.363  -04 6.050  +00   14.
 6.375  -04 8.711  +00   22.
 6.387  -04 1.046  +01   24.
 6.399  -04 7.891  +00   16.
 6.411  -04 5.780  +00   19.
 6.424  -04 7.959  +00   13.
 6.436  -04 7.884  +00   16.
 6.448  -04 1.055  +01   11.
 6.460  -04 1.178  +01   30.
 6.473  -04 6.247  +00   25.
 6.485  -04 5.346  +00   33.
 6.497  -04 2.977  +00   15.
 6.510  -04 3.737  +00   27.
 6.522  -04 6.582  +00   20.
 6.535  -04 5.234  +00   32.
 6.547  -04 6.327  +00   26.
 6.560  -04 8.964  +00   13.
 6.573  -04 1.419  +01   18.
 6.585  -04 8.755  +00   26.
 6.598  -04 6.803  +00   12.
 6.611  -04 7.018  +00   27.
 6.623  -04 1.442  +01   17.
 6.636  -04 1.319  +01   11.
 6.649  -04 2.028  +01   13.
 6.662  -04 1.330  +01   25.
 6.675  -04 8.759  +00   12.
 6.688  -04 9.143  +00   12.
 6.701  -04 1.031  +01   16.
 6.714  -04 1.400  +01   14.
 6.727  -04 1.653  +01   14.
 6.740  -04 1.770  +01   16.
 6.753  -04 2.057  +01   19.
 6.766  -04 2.191  +01   22.
 6.779  -04 1.578  +01   16.
 6.792  -04 1.314  +01   17.
 6.806  -04 2.309  +01   21.
 6.819  -04 1.340  +01   34.
 6.832  -04 1.035  +01   14.
 6.846  -04 9.069  +00   21.
 6.859  -04 6.275  +00   14.
 6.873  -04 9.267  +00   31.
 6.886  -04 1.509  +01   17.
 6.900  -04 1.581  +01   21.
 6.913  -04 1.936  +01   13.
 6.927  -04 1.304  +01   36.
 6.941  -04 7.763  +00   13.
 6.954  -04 1.111  +01   13.
 6.968  -04 9.360  +00   13.
 6.982  -04 1.186  +01   13.
 6.996  -04 1.013  +01   14.
 7.010  -04 1.108  +01   31.
 7.023  -04 1.351  +01   17.
 7.037  -04 1.036  +01   33.
 7.051  -04 6.860  +00   15.
 7.065  -04 5.920  +00   15.
 7.080  -04 1.103  +01   31.
 7.094  -04 1.334  +01   30.
 7.108  -04 5.890  +00   26.
 7.122  -04 8.884  +00   12.
 7.136  -04 1.039  +01   15.
 7.151  -04 1.182  +01   13.
 7.165  -04 1.342  +01   15.
 7.179  -04 1.200  +01   11.
 7.194  -04 1.221  +01   24.
 7.208  -04 1.331  +01   12.
 7.223  -04 1.412  +01   11.
 7.237  -04 8.994  +00   23.
 7.252  -04 8.578  +00   11.
 7.267  -04 1.032  +01   27.
 7.281  -04 1.246  +01   15.
 7.296  -04 1.657  +01   29.
 7.311  -04 2.201  +01   13.
 7.326  -04 8.520  +00   23.
 7.340  -04 6.746  +00   13.
 7.355  -04 9.514  +00   20.
 7.370  -04 9.279  +00   23.
 7.385  -04 9.955  +00   15.
 7.400  -04 6.330  +00   22.
 7.416  -04 5.354  +00   15.
 7.431  -04 1.152  +01   26.
 7.446  -04 1.220  +01   20.
 7.461  -04 9.128  +00   12.
 7.476  -04 7.617  +00   16.
 7.492  -04 9.505  +00   17.
 7.507  -04 8.411  +00   13.
 7.523  -04 1.090  +01   28.
 7.538  -04 9.262  +00   37.
 7.554  -04 9.258  +00   18.
 7.569  -04 1.765  +01   32.
 7.585  -04 1.799  +01   34.
 7.600  -04 1.152  +01   20.
 7.616  -04 1.082  +01   27.
 7.632  -04 1.153  +01   27.
 7.648  -04 1.481  +01   13.
 7.664  -04 9.515  +00   17.
 7.679  -04 6.859  +00   14.
 7.695  -04 9.557  +00   11.
 7.711  -04 9.811  +00   11.
 7.728  -04 6.825  +00   22.
 7.744  -04 1.178  +01   11.
 7.760  -04 1.530  +01   30.
 7.776  -04 2.669  +01   15.
 7.792  -04 1.450  +01   23.
 7.809  -04 7.340  +00   11.
 7.825  -04 1.182  +01   23.
 7.841  -04 1.746  +01   14.
 7.858  -04 8.720  +00   28.
 7.874  -04 6.492  +00   14.
 7.891  -04 1.324  +01   20.
 7.908  -04 1.062  +01   15.
 7.924  -04 1.055  +01   19.
 7.941  -04 1.041  +01   15.
 7.958  -04 5.334  +00   24.
 7.975  -04 7.675  +00   20.
 7.991  -04 1.193  +01   19.
 8.003  -04 1.558  +01   20.
 8.020  -04 8.329  +00   17.
 8.037  -04 9.991  +00   24.
 8.054  -04 9.730  +00   26.
 8.071  -04 5.383  +00   18.
 8.088  -04 6.060  +00   18.
 8.105  -04 7.275  +00   19.
 8.123  -04 7.233  +00   15.
 8.140  -04 8.671  +00   12.
 8.158  -04 7.332  +00   23.
 8.175  -04 1.040  +01   21.
 8.193  -04 4.548  +00   19.
 8.210  -04 5.735  +00   30.
 8.228  -04 4.907  +00   28.
 8.246  -04 3.242  +00   17.
 8.263  -04 4.078  +00   18.
 8.281  -04 4.364  +00   22.
 8.299  -04 3.180  +00   34.
 8.317  -04 3.762  +00   15.
 8.335  -04 5.855  +00   18.
 8.353  -04 9.538  +00   23.
 8.371  -04 6.309  +00   25.
 8.389  -04 5.678  +00   19.
 8.407  -04 8.697  +00   16.
 8.426  -04 7.515  +00   24.
 8.444  -04 1.216  +01   12.
 8.463  -04 1.095  +01   23.
 8.481  -04 5.090  +00   27.
 8.500  -04 7.210  +00   17.
 8.518  -04 5.767  +00   15.
 8.537  -04 5.317  +00   21.
 8.555  -04 5.885  +00   14.
 8.574  -04 8.363  +00   16.
 8.593  -04 1.745  +01   24.
 8.612  -04 1.671  +01   30.
 8.631  -04 9.853  +00   25.
 8.650  -04 1.357  +01   13.
 8.669  -04 4.932  +00   34.
 8.688  -04 5.158  +00   13.
 8.707  -04 4.082  +00   25.
 8.727  -04 5.480  +00   33.
 8.746  -04 7.435  +00   25.
 8.765  -04 6.179  +00   30.
 8.785  -04 9.209  +00   19.
 8.804  -04 6.735  +00   19.
 8.824  -04 1.352  +01   24.
 8.844  -04 9.910  +00   35.
 8.863  -04 4.172  +00   16.
 8.883  -04 3.273  +00   15.
 8.903  -04 6.032  +00   30.
 8.923  -04 7.907  +00   13.
 8.943  -04 1.218  +01   19.
 8.963  -04 1.403  +01   16.
 8.983  -04 1.061  +01   14.
 9.003  -04 9.008  +00   16.
 9.024  -04 1.005  +01   13.
 9.044  -04 9.827  +00   23.
 9.064  -04 7.660  +00   21.
 9.085  -04 9.809  +00   20.
 9.105  -04 4.184  +00   17.
 9.126  -04 8.203  +00   19.
 9.147  -04 1.312  +01   23.
 9.168  -04 5.783  +00   19.
 9.188  -04 1.131  +01   16.
 9.209  -04 1.281  +01   25.
 9.230  -04 1.884  +01   18.
 9.251  -04 7.434  +00   20.
 9.272  -04 1.295  +01   30.
 9.294  -04 9.093  +00   19.
 9.315  -04 7.587  +00   38.
 9.336  -04 6.061  +00   26.
 9.358  -04 2.301  +00   17.
 9.379  -04 5.273  +00   32.
 9.401  -04 1.188  +01   19.
 9.422  -04 7.420  +00   26.
 9.444  -04 1.022  +01   23.
 9.466  -04 1.552  +01   15.
 9.488  -04 4.727  +00   24.
 9.509  -04 5.160  +00   15.
 9.531  -04 6.123  +00   18.
 9.554  -04 1.004  +01   23.
 9.576  -04 4.670  +00   18.
 9.598  -04 3.678  +00   15.
 9.620  -04 3.601  +00   25.
 9.643  -04 3.908  +00   21.
 9.665  -04 4.975  +00   15.
 9.688  -04 4.869  +00   15.
 9.710  -04 6.129  +00   21.
 9.733  -04 9.904  +00   16.
 9.756  -04 1.006  +01   21.
 9.779  -04 1.090  +01   12.
 9.802  -04 8.272  +00   17.
 9.825  -04 9.742  +00   13.
 9.848  -04 6.161  +00   22.
 9.871  -04 3.777  +00   19.
 9.894  -04 8.033  +00   50.
 9.918  -04 4.819  +00   18.
 9.941  -04 3.475  +00   26.
 9.965  -04 6.738  +00   14.
 9.988  -04 1.108  +01   18.
 1.000  -03 1.003  +01   31.
 1.003  -03 6.916  +00   20.
 1.005  -03 9.549  +00   13.
 1.007  -03 6.129  +00   32.
 1.010  -03 9.240  +00   20.
 1.012  -03 6.186  +00   30.
 1.015  -03 7.981  +00   29.
 1.017  -03 5.387  +00   15.
 1.019  -03 6.072  +00   19.
 1.022  -03 5.685  +00   19.
 1.024  -03 8.387  +00   39.
 1.027  -03 3.817  +00   17.
 1.029  -03 5.868  +00   21.
 1.032  -03 1.102  +01   29.
 1.034  -03 4.421  +00   15.
 1.037  -03 4.896  +00   13.
 1.039  -03 4.042  +00   19.
 1.044  -03 4.089  +00   16.
 1.047  -03 5.425  +00   25.
 1.049  -03 7.831  +00   13.
 1.052  -03 1.180  +01   15.
 1.054  -03 8.451  +00   19.
 1.057  -03 6.339  +00   22.
 1.060  -03 1.249  +01   21.
 1.062  -03 7.534  +00   29.
 1.065  -03 1.011  +01   41.
 1.067  -03 1.169  +01   42.
 1.070  -03 5.525  +00   14.
 1.073  -03 1.269  +01   30.
 1.075  -03 1.902  +01   17.
 1.078  -03 1.018  +01   12.
 1.081  -03 1.103  +01   12.
 1.083  -03 9.415  +00   25.
 1.086  -03 6.505  +00   13.
 1.089  -03 8.678  +00   15.
 1.091  -03 1.073  +01   18.
 1.094  -03 9.456  +00   12.
 1.097  -03 1.064  +01   13.
 1.099  -03 1.012  +01   15.
 1.102  -03 1.063  +01   35.
 1.105  -03 3.918  +00   30.
 1.108  -03 6.083  +00   13.
 1.110  -03 5.374  +00   16.
 1.113  -03 7.224  +00   17.
 1.116  -03 8.626  +00   31.
 1.119  -03 6.734  +00   20.
 1.122  -03 8.889  +00   16.
 1.124  -03 9.462  +00   18.
 1.127  -03 7.399  +00   16.
 1.130  -03 1.550  +01   40.
 1.133  -03 1.351  +01   20.
 1.136  -03 1.203  +01   14.
 1.139  -03 1.076  +01   32.
 1.142  -03 1.079  +01   18.
 1.145  -03 1.110  +01   18.
 1.147  -03 8.049  +00   14.
 1.150  -03 7.339  +00   21.
 1.153  -03 1.023  +01   18.
 1.156  -03 1.336  +01   32.
 1.159  -03 1.999  +01   15.
 1.162  -03 2.008  +01   11.
 1.165  -03 1.638  +01   25.
 1.168  -03 1.484  +01   30.
 1.171  -03 1.307  +01   18.
 1.174  -03 9.703  +00   30.
 1.177  -03 4.830  +00   24.
 1.180  -03 1.110  +01   22.
 1.183  -03 8.666  +00   20.
 1.186  -03 1.044  +01   21.
 1.189  -03 7.273  +00   18.
 1.192  -03 7.363  +00   12.
 1.195  -03 1.041  +01   16.
 1.199  -03 1.616  +01   25.
 1.202  -03 9.221  +00   16.
 1.205  -03 6.130  +00   20.
 1.208  -03 4.548  +00   30.
 1.211  -03 1.364  +01   32.
 1.214  -03 7.645  +00   34.
 1.217  -03 6.061  +00   29.
 1.221  -03 8.738  +00   30.
 1.224  -03 9.737  +00   46.
 1.227  -03 8.302  +00   25.
 1.230  -03 8.055  +00   20.
 1.234  -03 6.943  +00   15.
 1.237  -03 8.701  +00   26.
 1.240  -03 7.765  +00   18.
 1.243  -03 6.371  +00   18.
 1.247  -03 9.147  +00   15.
 1.250  -03 6.944  +00   12.
 1.253  -03 5.837  +00   15.
 1.257  -03 8.147  +00   16.
 1.260  -03 8.896  +00   16.
 1.263  -03 7.289  +00   36.
 1.267  -03 1.019  +01   30.
 1.270  -03 1.264  +01   25.
 1.273  -03 1.258  +01   21.
 1.277  -03 8.378  +00   22.
 1.280  -03 7.807  +00   12.
 1.284  -03 5.803  +00   14.
 1.287  -03 7.163  +00   20.
 1.291  -03 8.364  +00   26.
 1.294  -03 1.176  +01   25.
 1.298  -03 1.019  +01   21.
 1.301  -03 6.235  +00   17.
 1.305  -03 8.451  +00   15.
 1.308  -03 6.218  +00   38.
 1.312  -03 5.319  +00   13.
 1.315  -03 6.940  +00   13.
 1.319  -03 8.631  +00   22.
 1.322  -03 8.180  +00   27.
 1.326  -03 7.582  +00   15.
 1.330  -03 9.350  +00   18.
 1.333  -03 8.351  +00   26.
 1.337  -03 9.035  +00   17.
 1.341  -03 1.266  +01   11.
 1.344  -03 1.285  +01   15.
 1.348  -03 9.385  +00   27.
 1.352  -03 6.539  +00   26.
 1.356  -03 1.278  +01   25.
 1.359  -03 1.335  +01   30.
 1.363  -03 6.279  +00   18.
 1.367  -03 7.838  +00   15.
 1.371  -03 9.712  +00   25.
 1.374  -03 6.445  +00   15.
 1.378  -03 1.149  +01   20.
 1.382  -03 1.274  +01   16.
 1.386  -03 1.401  +01   30.
 1.390  -03 6.275  +00   17.
 1.394  -03 8.651  +00   18.
 1.398  -03 5.967  +00   19.
 1.402  -03 7.947  +00   18.
 1.405  -03 7.654  +00   21.
 1.409  -03 8.707  +00   13.
 1.413  -03 8.714  +00   20.
 1.417  -03 1.238  +01   18.
 1.425  -03 1.493  +01   15.
 1.429  -03 1.047  +01   40.
 1.434  -03 4.118  +00   23.
 1.438  -03 5.536  +00   24.
 1.442  -03 1.207  +01   25.
 1.446  -03 1.038  +01   15.
 1.450  -03 1.045  +01   21.
 1.454  -03 7.754  +00   17.
 1.458  -03 7.070  +00   34.
 1.462  -03 6.417  +00   21.
 1.467  -03 4.572  +00   23.
 1.471  -03 3.093  +00   16.
 1.475  -03 4.609  +00   32.
 1.479  -03 4.343  +00   21.
 1.484  -03 4.150  +00   31.
 1.488  -03 3.879  +00   14.
 1.492  -03 6.093  +00   24.
 1.497  -03 5.664  +00   14.
 1.501  -03 6.472  +00   16.
 1.505  -03 5.300  +00   15.
 1.510  -03 4.964  +00   21.
 1.514  -03 2.695  +00   21.
 1.518  -03 4.724  +00   20.
 1.523  -03 7.025  +00   20.
 1.527  -03 7.046  +00   25.
 1.532  -03 8.682  +00   13.
 1.536  -03 6.124  +00   14.
 1.541  -03 6.833  +00   21.
 1.545  -03 8.095  +00   22.
 1.550  -03 7.987  +00   14.
 1.555  -03 4.898  +00   20.
 1.559  -03 5.806  +00   35.
 1.564  -03 9.425  +00   27.
 1.568  -03 9.114  +00   13.
 1.573  -03 8.193  +00   24.
 1.578  -03 8.837  +00   19.
 1.582  -03 4.140  +00   29.
 1.587  -03 7.542  +00   24.
 1.592  -03 6.003  +00   14.
 1.602  -03 9.398  +00   14.
 1.606  -03 4.004  +00   16.
 1.611  -03 4.754  +00   18.
 1.616  -03 5.855  +00   13.
 1.621  -03 6.152  +00   13.
 1.626  -03 8.576  +00   15.
 1.631  -03 7.435  +00   20.
 1.636  -03 5.229  +00   18.
 1.641  -03 6.961  +00   17.
 1.646  -03 8.294  +00   22.
 1.651  -03 7.358  +00   23.
 1.656  -03 5.563  +00   18.
 1.661  -03 1.022  +01   22.
 1.666  -03 7.191  +00   18.
 1.671  -03 7.412  +00   20.
 1.676  -03 8.376  +00   22.
 1.681  -03 8.751  +00   35.
 1.686  -03 5.659  +00   18.
 1.692  -03 5.544  +00   26.
 1.697  -03 6.501  +00   17.
 1.702  -03 5.114  +00   27.
 1.707  -03 5.680  +00   21.
 1.713  -03 5.324  +00   16.
 1.718  -03 6.302  +00   19.
 1.723  -03 8.382  +00   21.
 1.729  -03 6.076  +00   13.
 1.734  -03 5.557  +00   26.
 1.740  -03 4.924  +00   25.
 1.745  -03 5.659  +00   24.
 1.750  -03 4.886  +00   23.
 1.756  -03 5.541  +00   44.
 1.762  -03 7.486  +00   31.
 1.767  -03 5.846  +00   23.
 1.773  -03 8.056  +00   16.
 1.778  -03 8.793  +00   13.
 1.784  -03 6.378  +00   20.
 1.790  -03 7.358  +00   26.
 1.795  -03 6.327  +00   36.
 1.801  -03 5.307  +00   16.
 1.812  -03 7.098  +00   12.
 1.818  -03 7.921  +00   19.
 1.824  -03 5.463  +00   13.
 1.830  -03 5.805  +00   17.
 1.836  -03 6.067  +00   30.
 1.842  -03 7.076  +00   32.
 1.848  -03 8.038  +00   28.
 1.854  -03 5.571  +00   36.
 1.860  -03 4.461  +00   13.
 1.866  -03 5.200  +00   38.
 1.872  -03 4.933  +00   14.
 1.878  -03 6.056  +00   19.
 1.884  -03 6.746  +00   18.
 1.890  -03 4.072  +00   33.
 1.896  -03 5.975  +00   15.
 1.902  -03 5.696  +00   21.
 1.909  -03 6.869  +00   18.
 1.915  -03 8.676  +00   28.
 1.921  -03 6.837  +00   27.
 1.928  -03 5.518  +00   32.
 1.934  -03 8.805  +00   23.
 1.940  -03 6.666  +00   14.
 1.947  -03 6.044  +00   16.
 1.953  -03 5.889  +00   19.
 1.960  -03 8.752  +00   23.
 1.966  -03 6.915  +00   44.
 1.973  -03 6.958  +00   20.
 1.979  -03 6.430  +00   18.
 1.986  -03 6.324  +00   11.
 1.993  -03 6.686  +00   21.
 1.999  -03 4.275  +00   14.
 2.006  -03 4.377  +00   13.
 2.013  -03 3.151  +00   14.
 2.020  -03 3.029  +00   23.
 2.026  -03 3.022  +00   19.
 2.033  -03 3.429  +00   12.
 2.040  -03 6.020  +00   22.
 2.047  -03 7.988  +00   21.
 2.054  -03 6.625  +00   26.
 2.068  -03 6.171  +00   22.
 2.075  -03 4.942  +00   20.
 2.082  -03 6.168  +00   11.
 2.089  -03 5.946  +00   22.
 2.097  -03 3.538  +00   17.
 2.104  -03 4.257  +00   29.
 2.111  -03 3.852  +00   20.
 2.118  -03 4.640  +00   20.
 2.126  -03 6.426  +00   12.
 2.133  -03 6.298  +00   23.
 2.140  -03 7.017  +00   19.
 2.148  -03 4.825  +00   17.
 2.155  -03 5.065  +00   20.
 2.163  -03 4.313  +00   21.
 2.170  -03 3.381  +00   24.
 2.178  -03 7.205  +00   16.
 2.186  -03 4.894  +00   18.
 2.193  -03 4.830  +00   25.
 2.201  -03 4.818  +00   13.
 2.209  -03 7.660  +00   19.
 2.217  -03 6.064  +00   15.
 2.224  -03 5.436  +00   27.
 2.232  -03 4.885  +00   16.
 2.240  -03 4.481  +00   27.
 2.248  -03 6.646  +00   14.
 2.256  -03 8.538  +00   23.
 2.264  -03 6.516  +00   40.
 2.272  -03 8.481  +00   34.
 2.281  -03 7.811  +00   19.
 2.289  -03 4.441  +00   14.
 2.297  -03 4.350  +00   18.
 2.305  -03 5.636  +00   19.
 2.314  -03 5.450  +00   27.
 2.322  -03 4.803  +00   34.
 2.330  -03 1.021  +01   12.
 2.339  -03 9.248  +00   20.
 2.347  -03 9.436  +00   16.
 2.356  -03 8.097  +00   18.
 2.364  -03 3.500  +00   19.
 2.373  -03 4.745  +00   22.
 2.382  -03 3.929  +00   21.
 2.391  -03 4.958  +00   30.
 2.399  -03 7.042  +00   11.
 2.408  -03 6.678  +00   16.
 2.417  -03 5.735  +00   23.
 2.426  -03 6.389  +00   14.
 2.435  -03 6.869  +00   24.
 2.444  -03 7.838  +00   18.
 2.453  -03 5.251  +00   23.
 2.462  -03 4.801  +00   21.
 2.471  -03 6.476  +00   15.
 2.481  -03 5.037  +00   43.
 2.490  -03 6.439  +00   15.
 2.499  -03 6.011  +00   22.
 2.509  -03 5.929  +00   12.
 2.518  -03 4.781  +00   13.
 2.528  -03 6.487  +00   18.
 2.537  -03 7.608  +00   12.
 2.547  -03 6.411  +00   23.
 2.556  -03 7.018  +00   23.
 2.566  -03 8.188  +00   26.
 2.576  -03 5.558  +00   24.
 2.586  -03 4.086  +00   34.
 2.596  -03 4.466  +00   31.
 2.606  -03 6.693  +00   12.
 2.616  -03 6.673  +00   16.
 2.626  -03 4.416  +00   33.
 2.636  -03 4.920  +00   27.
 2.646  -03 3.390  +00   12.
 2.656  -03 3.916  +00   24.
 2.667  -03 4.166  +00   36.
 2.677  -03 2.900  +00   29.
 2.687  -03 3.093  +00   20.
 2.698  -03 2.796  +00   37.
 2.708  -03 3.921  +00   26.
 2.719  -03 4.601  +00   17.
 2.730  -03 6.880  +00   12.
 2.740  -03 6.850  +00   23.
 2.751  -03 4.776  +00   16.
 2.762  -03 6.867  +00   15.
 2.773  -03 6.029  +00   18.
 2.784  -03 5.385  +00   12.
 2.795  -03 4.575  +00   21.
 2.806  -03 5.589  +00   21.
 2.817  -03 4.221  +00   22.
 2.828  -03 4.752  +00   28.
 2.840  -03 4.932  +00   28.
 2.851  -03 5.691  +00   24.
 2.863  -03 5.007  +00   16.
 2.874  -03 5.541  +00   25.
 2.886  -03 3.500  +00   15.
 2.897  -03 4.086  +00   23.
 2.909  -03 4.502  +00   24.
 2.921  -03 7.374  +00   31.
 2.933  -03 4.554  +00   19.
 2.945  -03 4.173  +00   25.
 2.957  -03 4.139  +00   21.
 2.969  -03 5.155  +00   18.
 2.981  -03 4.622  +00   17.
 2.993  -03 5.345  +00   24.
 3.006  -03 6.254  +00   17.
 3.018  -03 5.188  +00   21.
 3.030  -03 6.174  +00   19.
 3.043  -03 5.172  +00   20.
 3.056  -03 4.567  +00   14.
 3.068  -03 6.108  +00   17.
 3.120  -03 4.632  +00   15.
 3.133  -03 5.984  +00   36.
 3.146  -03 4.080  +00   31.
 3.160  -03 3.225  +00   23.
 3.173  -03 3.646  +00   13.
 3.186  -03 4.892  +00   19.
 3.200  -03 4.122  +00   20.
 3.214  -03 4.119  +00   20.
 3.227  -03 5.130  +00   16.
 3.255  -03 5.385  +00   14.
 3.269  -03 5.818  +00   25.
 3.283  -03 6.633  +00   17.
 3.297  -03 7.651  +00   34.
 3.311  -03 4.379  +00   16.
 3.326  -03 4.946  +00   21.
 3.340  -03 3.807  +00   19.
 3.355  -03 2.127  +00   14.
 3.369  -03 3.403  +00   18.
 3.384  -03 5.134  +00   20.
 3.399  -03 5.262  +00   12.
 3.414  -03 6.002  +00   19.
 3.429  -03 4.315  +00   17.
 3.444  -03 5.154  +00   15.
 3.459  -03 5.311  +00   22.
 3.474  -03 4.492  +00   19.
 3.490  -03 5.992  +00   15.
 3.505  -03 6.061  +00   26.
 3.521  -03 3.573  +00   28.
 3.537  -03 4.791  +00   17.
 3.553  -03 3.837  +00   23.
 3.568  -03 5.064  +00   21.
 3.585  -03 4.131  +00   17.
 3.601  -03 4.877  +00   22.
 3.617  -03 4.335  +00   20.
 3.633  -03 3.685  +00   19.
 3.650  -03 3.468  +00   17.
 3.666  -03 4.366  +00   18.
 3.683  -03 3.769  +00   24.
 3.700  -03 4.493  +00   14.
 3.717  -03 3.849  +00   16.
 3.734  -03 4.447  +00   21.
 3.751  -03 4.978  +00   14.
 3.768  -03 6.007  +00   15.
 3.786  -03 3.473  +00   19.
 3.803  -03 4.123  +00   16.
 3.821  -03 5.074  +00   21.
 3.839  -03 5.477  +00   12.
 3.857  -03 3.839  +00   13.
 3.893  -03 3.478  +00   13.
 3.911  -03 3.794  +00   17.
 3.930  -03 4.495  +00   13.
 3.948  -03 5.116  +00   13.
 3.967  -03 6.028  +00   27.
 3.986  -03 4.229  +00   22.
 4.005  -03 5.296  +00   12.
 4.024  -03 4.343  +00   14.
 4.043  -03 3.356  +00   12.
 4.062  -03 3.621  +00   22.
 4.082  -03 3.810  +00   22.
 4.101  -03 4.072  +00   28.
 4.121  -03 3.872  +00   16.
 4.141  -03 3.793  +00   16.
 4.161  -03 4.159  +00   15.
 4.181  -03 5.678  +00   14.
 4.202  -03 4.850  +00   20.
 4.222  -03 4.834  +00   12.
 4.243  -03 7.201  +00   24.
 4.264  -03 4.254  +00   30.
 4.285  -03 4.358  +00   17.
 4.306  -03 4.959  +00   19.
 4.327  -03 3.596  +00   15.
 4.349  -03 4.103  +00   22.
 4.370  -03 5.084  +00   14.
 4.392  -03 4.072  +00   19.
 4.414  -03 3.462  +00   21.
 4.436  -03 4.740  +00   17.
 4.458  -03 4.371  +00   25.
 4.481  -03 4.209  +00   16.
 4.503  -03 4.177  +00   14.
 4.526  -03 3.352  +00   19.
 4.549  -03 3.697  +00   27.
 4.572  -03 3.440  +00   17.
 4.596  -03 4.027  +00   12.
 4.619  -03 3.706  +00   11.
 4.643  -03 3.136  +00   13.
 4.666  -03 3.857  +00   12.
 4.690  -03 4.494  +00   13.
 4.715  -03 3.265  +00   21.
 4.739  -03 3.164  +00   12.
 4.764  -03 3.799  +00   18.
 4.788  -03 2.847  +00   21.
 4.813  -03 3.527  +00   15.
 4.839  -03 4.013  +00   17.
 4.864  -03 4.316  +00   21.
 4.890  -03 4.050  +00   20.
 4.915  -03 2.713  +00   17.
 4.941  -03 2.835  +00   16.
 4.967  -03 4.043  +00   42.
 4.994  -03 3.643  +00   16.
 5.020  -03 3.511  +00   11.
 5.047  -03 3.583  +00   15.
 5.074  -03 3.705  +00   26.
 5.102  -03 3.805  +00   23.
 5.129  -03 2.778  +00   17.
 5.157  -03 3.333  +00   15.
 5.185  -03 2.659  +00   23.
 5.213  -03 2.672  +00   18.
 5.241  -03 2.906  +00   13.
 5.270  -03 3.381  +00   15.
 5.299  -03 3.388  +00   20.
 5.328  -03 4.046  +00   16.
 5.357  -03 2.795  +00   21.
 5.387  -03 3.935  +00   23.
 5.416  -03 2.964  +00   15.
 5.446  -03 3.232  +00   17.
 5.477  -03 3.651  +00   20.
 5.507  -03 4.793  +00   23.
 5.538  -03 5.066  +00   14.
 5.569  -03 3.775  +00   18.
 5.600  -03 2.720  +00   18.
 5.632  -03 3.272  +00   17.
 5.664  -03 2.685  +00   15.
 5.696  -03 3.035  +00   15.
 5.729  -03 3.145  +00   17.
 5.761  -03 4.588  +00   12.
 5.794  -03 4.083  +00   12.
 5.827  -03 4.250  +00   17.
 5.861  -03 4.017  +00   21.
 5.895  -03 3.077  +00   12.
 5.929  -03 2.892  +00   13.
 5.963  -03 2.947  +00   14.
 5.998  -03 3.136  +00   14.
 6.033  -03 3.487  +00   13.
 6.069  -03 3.422  +00   15.
 6.104  -03 3.135  +00   15.
 6.140  -03 2.903  +00   19.
 6.177  -03 3.431  +00   17.
 6.213  -03 2.570  +00   21.
 6.250  -03 3.045  +00   15.
 6.287  -03 3.047  +00   16.
 6.325  -03 3.300  +00   17.
 6.363  -03 3.083  +00   16.
 6.401  -03 2.737  +00   19.
 6.440  -03 3.748  +00   20.
 6.479  -03 3.495  +00   19.
 6.518  -03 3.200  +00   15.
 6.558  -03 3.171  +00   18.
 6.598  -03 3.217  +00   21.
 6.638  -03 3.174  +00   26.
 6.679  -03 2.815  +00   25.
 6.720  -03 2.922  +00   22.
 6.762  -03 2.514  +00   15.
 6.804  -03 3.060  +00   28.
 6.846  -03 3.168  +00   19.
 6.889  -03 3.298  +00   21.
 6.932  -03 3.950  +00   23.
 6.976  -03 2.792  +00   19.
 7.020  -03 4.503  +00   22.
 7.064  -03 3.031  +00   20.
 7.109  -03 3.544  +00   28.
 7.154  -03 2.897  +00   17.
 7.200  -03 3.174  +00   19.
 7.246  -03 2.648  +00   16.
 7.293  -03 2.701  +00   15.
 7.340  -03 3.647  +00   17.
 7.387  -03 3.489  +00   15.
 7.484  -03 2.889  +00   17.
 7.532  -03 2.915  +00   24.
 7.582  -03 2.399  +00   15.
 7.632  -03 3.105  +00   17.
 7.682  -03 2.535  +00   15.
 7.733  -03 3.243  +00   27.
 7.784  -03 3.085  +00   28.
 7.836  -03 2.694  +00   18.
 7.888  -03 2.864  +00   16.
 7.941  -03 2.615  +00   23.
 7.995  -03 2.819  +00   35.
 8.049  -03 3.304  +00   12.
 8.103  -03 3.041  +00   18.
 8.158  -03 2.407  +00   21.
 8.214  -03 2.772  +00   21.
 8.270  -03 2.890  +00   18.
 8.327  -03 2.600  +00   17.
 8.385  -03 3.325  +00   20.
 8.443  -03 3.292  +00   16.
 8.501  -03 2.830  +00   24.
 8.560  -03 3.055  +00   20.
 8.620  -03 3.109  +00   20.
 8.681  -03 3.667  +00   25.
 8.742  -03 3.681  +00   28.
 8.804  -03 3.295  +00   16.
 8.866  -03 3.019  +00   19.
 8.929  -03 2.535  +00   23.
 8.993  -03 2.539  +00   23.
 9.057  -03 3.247  +00   20.
 9.123  -03 3.441  +00   23.
 9.188  -03 3.120  +00   21.
 9.255  -03 2.972  +00   22.
 9.322  -03 3.261  +00   17.
 9.390  -03 3.793  +00   18.
 9.459  -03 3.446  +00   17.
 9.529  -03 2.765  +00   16.
 9.599  -03 3.215  +00   13.
 9.670  -03 2.909  +00   15.
 9.742  -03 3.420  +00   16.
 9.888  -03 3.431  +00   14.
 9.963  -03 3.529  +00   16.
 9.981  -03 2.824  +00   14.
 1.003  -02 3.218  +00   13.
 1.007  -02 3.340  +00   15.
 1.012  -02 3.186  +00   15.
 1.016  -02 3.025  +00   14.
 1.021  -02 3.335  +00   13.
 1.026  -02 3.048  +00   14.
 1.030  -02 3.197  +00   13.
 1.035  -02 2.906  +00   17.
 1.040  -02 3.295  +00   16.
 1.045  -02 3.207  +00   16.
 1.049  -02 2.636  +00   21.
 1.054  -02 3.133  +00   17.
 1.059  -02 2.974  +00   14.
 1.064  -02 3.427  +00   13.
 1.069  -02 2.883  +00   14.
 1.074  -02 3.140  +00   18.
 1.079  -02 3.202  +00   17.
 1.084  -02 3.021  +00   14.
 1.089  -02 2.764  +00   14.
 1.094  -02 3.082  +00   15.
 1.099  -02 3.281  +00   22.
 1.105  -02 3.137  +00   15.
 1.110  -02 2.881  +00   18.
 1.115  -02 2.810  +00   19.
 1.121  -02 3.132  +00   18.
 1.126  -02 3.101  +00   17.
 1.131  -02 3.228  +00   15.
 1.137  -02 2.807  +00   15.
 1.142  -02 3.091  +00   13.
 1.148  -02 2.985  +00   18.
 1.153  -02 3.175  +00   17.
 1.159  -02 2.927  +00   14.
 1.165  -02 3.047  +00   16.
 1.170  -02 2.547  +00   16.
 1.176  -02 3.106  +00   14.
 1.182  -02 3.324  +00   13.
 1.188  -02 2.469  +00   17.
 1.193  -02 3.106  +00   13.
 1.199  -02 2.997  +00   14.
 1.205  -02 2.839  +00   14.
 1.211  -02 3.014  +00   14.
 1.217  -02 2.944  +00   21.
 1.223  -02 2.942  +00   23.
 1.229  -02 2.778  +00   15.
 1.236  -02 2.818  +00   19.
 1.242  -02 2.635  +00   18.
 1.248  -02 3.150  +00   14.
 1.254  -02 2.964  +00   13.
 1.261  -02 2.998  +00   15.
 1.267  -02 2.778  +00   17.
 1.274  -02 3.045  +00   15.
 1.280  -02 2.756  +00   14.
 1.287  -02 2.849  +00   16.
 1.293  -02 3.108  +00   13.
 1.300  -02 2.774  +00   14.
 1.307  -02 2.554  +00   14.
 1.313  -02 3.145  +00   19.
 1.320  -02 3.070  +00   13.
 1.327  -02 2.696  +00   21.
 1.334  -02 2.793  +00   34.
 1.341  -02 2.540  +00   20.
 1.362  -02 2.961  +00   14.
 1.369  -02 2.624  +00   15.
 1.376  -02 2.696  +00   13.
 1.384  -02 3.052  +00   14.
 1.391  -02 2.706  +00   15.
 1.399  -02 2.849  +00   16.
 1.406  -02 2.533  +00   15.
 1.414  -02 2.845  +00   16.
 1.421  -02 2.795  +00   17.
 1.429  -02 2.627  +00   15.
 1.437  -02 3.094  +00   14.
 1.444  -02 2.850  +00   14.
 1.452  -02 2.452  +00   15.
 1.460  -02 3.137  +00   16.
 1.468  -02 2.712  +00   17.
 1.476  -02 2.819  +00   19.
 1.484  -02 2.444  +00   17.
 1.492  -02 2.647  +00   16.
 1.501  -02 2.547  +00   20.
 1.509  -02 2.988  +00   15.
 1.517  -02 2.390  +00   19.
 1.526  -02 2.410  +00   32.
 1.534  -02 3.402  +00   26.
 1.543  -02 2.225  +00   17.
 1.552  -02 2.426  +00   17.
 1.560  -02 2.908  +00   17.
 1.569  -02 2.683  +00   16.
 1.578  -02 2.843  +00   16.
 1.587  -02 2.774  +00   21.
 1.596  -02 2.358  +00   20.
 1.605  -02 2.829  +00   18.
 1.614  -02 2.581  +00   14.
 1.624  -02 2.785  +00   17.
 1.633  -02 2.866  +00   22.
 1.643  -02 2.396  +00   19.
 1.652  -02 2.943  +00   16.
 1.662  -02 2.518  +00   23.
 1.671  -02 1.896  +00   20.
 1.681  -02 2.787  +00   24.
 1.691  -02 3.138  +00   14.
 1.701  -02 2.608  +00   16.
 1.711  -02 2.751  +00   18.
 1.721  -02 2.488  +00   16.
 1.731  -02 2.531  +00   18.
 1.742  -02 2.708  +00   15.
 1.752  -02 2.884  +00   16.
 1.763  -02 2.679  +00   17.
 1.773  -02 2.487  +00   13.
 1.784  -02 2.563  +00   15.
 1.795  -02 2.745  +00   14.
 1.806  -02 2.341  +00   18.
 1.817  -02 2.807  +00   15.
 1.828  -02 2.650  +00   13.
 1.839  -02 2.487  +00   16.
 1.850  -02 2.545  +00   17.
 1.861  -02 2.584  +00   19.
 1.873  -02 2.770  +00   12.
 1.885  -02 2.526  +00   12.
 1.896  -02 2.574  +00   13.
 1.908  -02 2.473  +00   17.
 1.920  -02 2.712  +00   15.
 1.932  -02 2.366  +00   16.
 1.944  -02 2.638  +00   16.
 1.957  -02 2.573  +00   19.
 1.994  -02 2.569  +00   17.
 2.007  -02 2.569  +00   12.
 2.020  -02 2.498  +00   12.
 2.033  -02 2.378  +00   20.
 2.046  -02 2.742  +00   13.
 2.059  -02 2.412  +00   14.
 2.072  -02 2.403  +00   14.
 2.086  -02 2.606  +00   13.
 2.100  -02 2.787  +00   13.
 2.113  -02 2.194  +00   14.
 2.127  -02 2.543  +00   15.
 2.141  -02 2.608  +00   14.
 2.156  -02 2.464  +00   14.
 2.170  -02 2.405  +00   16.
 2.184  -02 2.553  +00   13.
 2.199  -02 2.500  +00   16.
 2.214  -02 2.711  +00   14.
 2.229  -02 2.342  +00   21.
 2.244  -02 1.936  +00   14.
 2.259  -02 2.557  +00   12.
 2.274  -02 2.566  +00   16.
 2.290  -02 2.578  +00   12.
 2.306  -02 2.045  +00   13.
 2.322  -02 2.602  +00   13.
 2.338  -02 2.338  +00   13.
 2.354  -02 2.642  +00   12.
 2.370  -02 2.109  +00   12.
 2.387  -02 2.483  +00   16.
 2.403  -02 2.325  +00   14.
 2.420  -02 2.534  +00   12.
 2.437  -02 2.419  +00   12.
 2.455  -02 2.482  +00   14.
 2.472  -02 2.354  +00   12.
 2.490  -02 2.643  +00   16.
 2.508  -02 2.103  +00   15.
 2.526  -02 2.307  +00   19.
 2.544  -02 2.403  +00   16.
 2.562  -02 2.398  +00   16.
 2.581  -02 2.071  +00   12.
 2.600  -02 2.334  +00   12.
 2.619  -02 2.778  +00   14.
 2.638  -02 2.076  +00   13.
 2.657  -02 2.219  +00   13.
 2.677  -02 2.392  +00   12.
 2.697  -02 2.275  +00   16.
 2.717  -02 2.299  +00   14.
 2.737  -02 2.306  +00   17.
 2.758  -02 2.537  +00   16.
 2.779  -02 1.941  +00   13.
 2.800  -02 2.437  +00   12.
 2.821  -02 2.475  +00   14.
 2.842  -02 2.159  +00   20.
 2.864  -02 2.309  +00   16.
 2.886  -02 2.283  +00   14.
 2.908  -02 2.383  +00   17.
 2.931  -02 2.112  +00   19.
 2.954  -02 2.284  +00   12.
 2.977  -02 2.399  +00   12.
 3.000  -02 2.100  +00   12.
 3.024  -02 2.298  +00   11.
 3.047  -02 1.979  +00   13.
 3.072  -02 2.433  +00   13.
 3.096  -02 2.458  +00   14.
 3.121  -02 2.032  +00   12.
 3.146  -02 2.301  +00   15.
 3.197  -02 2.152  +00   20.
 3.223  -02 2.185  +00   13.
 3.249  -02 2.254  +00   19.
 3.276  -02 2.022  +00   15.
 3.303  -02 2.067  +00   14.
 3.330  -02 2.411  +00   13.
 3.357  -02 2.162  +00   22.
 3.385  -02 2.185  +00   12.
 3.414  -02 2.070  +00   12.
 3.442  -02 2.167  +00   13.
 3.471  -02 2.202  +00   12.
 3.501  -02 2.095  +00   13.
 3.530  -02 2.060  +00   13.
 3.561  -02 2.342  +00   12.
 3.591  -02 2.046  +00   12.
 3.622  -02 2.214  +00   12.
 3.653  -02 2.052  +00   12.
 3.685  -02 2.137  +00   12.
 3.717  -02 2.197  +00   12.
 3.750  -02 2.039  +00   12.
 3.783  -02 2.213  +00   12.
 3.816  -02 1.927  +00   12.
 3.850  -02 2.296  +00   12.
 3.885  -02 2.136  +00   12.
 3.919  -02 1.984  +00   13.
 3.955  -02 2.067  +00   11.
 3.990  -02 2.173  +00   12.
 4.027  -02 2.237  +00   12.
 4.063  -02 1.985  +00   15.
 4.101  -02 1.876  +00   13.
 4.138  -02 1.952  +00   12.
 4.177  -02 2.109  +00   13.
 4.216  -02 2.140  +00   13.
 4.255  -02 2.037  +00   15.
 4.295  -02 1.719  +00   14.
 4.335  -02 2.151  +00   12.
 4.376  -02 2.029  +00   13.
 4.418  -02 1.942  +00   12.
 4.460  -02 2.094  +00   12.
 4.503  -02 1.927  +00   12.
 4.547  -02 2.035  +00   12.
 4.591  -02 2.069  +00   11.
 4.636  -02 2.133  +00   12.
 4.681  -02 1.743  +00   13.
 4.727  -02 2.047  +00   12.
 4.774  -02 2.008  +00   11.
 4.822  -02 1.857  +00   12.
 4.870  -02 1.992  +00   12.
 4.919  -02 1.899  +00   12.
 4.968  -02 2.086  +00   11.
 5.019  -02 1.911  +00   11.
 5.070  -02 1.920  +00   12.
 5.122  -02 1.924  +00   12.
 5.175  -02 1.862  +00   14.
 5.229  -02 2.009  +00   11.
 5.283  -02 1.874  +00   11.
 5.338  -02 1.934  +00   11.
 5.395  -02 1.947  +00   13.
 5.452  -02 1.936  +00   15.
 5.510  -02 1.739  +00   13.
 5.569  -02 1.911  +00   14.
 5.629  -02 1.874  +00   17.
 5.689  -02 1.972  +00   11.
 5.751  -02 1.786  +00   11.
 5.814  -02 1.821  +00   14.
 5.943  -02 1.914  +00   24.
 6.009  -02 1.865  +00   13.
 6.076  -02 1.881  +00   12.
 6.145  -02 1.777  +00   13.
 6.214  -02 1.808  +00   14.
 6.285  -02 1.694  +00   14.
 6.357  -02 1.906  +00   12.
 6.430  -02 1.783  +00   13.
 6.505  -02 1.848  +00   12.
 6.580  -02 1.779  +00   13.
 6.657  -02 1.782  +00   14.
 6.736  -02 1.933  +00   12.
 6.816  -02 1.742  +00   13.
 6.897  -02 1.779  +00   12.
 6.980  -02 1.679  +00   13.
 7.064  -02 1.749  +00   12.
 7.150  -02 1.765  +00   12.
 7.237  -02 1.857  +00   12.
 7.326  -02 1.679  +00   11.
 7.417  -02 1.800  +00   12.
 7.509  -02 1.871  +00   14.
 7.603  -02 1.765  +00   12.
 7.699  -02 1.581  +00   12.
 7.796  -02 1.607  +00   13.
 7.896  -02 1.792  +00   13.
 7.997  -02 1.877  +00   11.
 8.101  -02 1.665  +00   12.
 8.206  -02 1.736  +00   12.
 8.314  -02 1.602  +00   11.
 8.424  -02 1.753  +00   11.
 8.535  -02 1.733  +00   12.
 8.650  -02 1.661  +00   11.
 8.766  -02 1.665  +00   12.
 8.885  -02 1.647  +00   11.
 9.006  -02 1.713  +00   12.
 9.130  -02 1.586  +00   12.
 9.256  -02 1.781  +00   12.
 9.385  -02 1.672  +00   12.
 9.517  -02 1.668  +00   11.
 9.652  -02 1.658  +00   12.
 9.789  -02 1.707  +00   16.
 9.929  -02 1.616  +00   13.
 1.002  -01 1.383  +00   11.
 1.017  -01 1.597  +00   12.
 1.032  -01 1.626  +00   11.
 1.047  -01 1.614  +00   12.
 1.062  -01 1.659  +00   11.
 1.078  -01 1.521  +00   11.
 1.094  -01 1.637  +00   11.
 1.111  -01 1.560  +00   11.
 1.128  -01 1.610  +00   12.
 1.145  -01 1.581  +00   12.
 1.163  -01 1.535  +00   12.
 1.181  -01 1.644  +00   12.
 1.200  -01 1.554  +00   11.
 1.219  -01 1.569  +00   11.
 1.239  -01 1.552  +00   11.
 1.259  -01 1.578  +00   11.
 1.279  -01 1.553  +00   14.
 1.300  -01 1.526  +00   12.
 1.322  -01 1.545  +00   11.
 1.344  -01 1.552  +00   11.
 1.367  -01 1.511  +00   11.
 1.390  -01 1.521  +00   11.
 1.414  -01 1.514  +00   11.
 1.463  -01 1.473  +00   23.
 1.489  -01 1.478  +00   12.
 1.516  -01 1.475  +00   12.
 1.543  -01 1.457  +00   18.
 1.571  -01 1.465  +00   11.
 1.600  -01 1.469  +00   15.
 1.629  -01 1.407  +00   13.
 1.659  -01 1.503  +00   22.
 1.691  -01 1.418  +00   16.
 1.723  -01 1.462  +00   14.
 1.756  -01 1.400  +00   17.
 1.790  -01 1.497  +00   17.
 1.825  -01 1.421  +00   16.
 1.861  -01 1.448  +00   15.
 1.898  -01 1.410  +00   14.
 1.936  -01 1.417  +00   14.
 1.975  -01 1.390  +00   13.
 2.016  -01 1.383  +00   11.
 2.058  -01 1.435  +00   11.
 2.101  -01 1.346  +00   11.
 2.146  -01 1.383  +00   17.
 2.192  -01 1.363  +00   16.
 2.239  -01 1.384  +00   17.
 2.288  -01 1.309  +00   16.
 2.339  -01 1.377  +00   16.
 2.392  -01 1.346  +00   14.
 2.446  -01 1.339  +00   13.
 2.502  -01 1.362  +00   13.
 2.560  -01 1.325  +00   16.
 2.620  -01 1.343  +00   21.
 2.683  -01 1.346  +00   16.
 2.747  -01 1.342  +00   21.
 2.814  -01 1.317  +00   20.
 2.884  -01 1.318  +00   14.
 2.956  -01 1.338  +00   13.
 3.031  -01 1.318  +00   15.
 3.108  -01 1.316  +00   21.
 3.189  -01 1.317  +00   15.
 3.273  -01 1.292  +00   17.
 3.361  -01 1.291  +00   15.
 3.452  -01 1.292  +00   13.
 3.546  -01 1.254  +00   13.
 3.645  -01 1.258  +00   13.
 3.748  -01 1.254  +00   13.
 3.856  -01 1.262  +00   15.
 3.968  -01 1.236  +00   13.
 4.085  -01 1.249  +00   13.
 4.207  -01 1.231  +00   13.
 4.335  -01 1.230  +00   13.
 4.470  -01 1.219  +00   13.
 4.610  -01 1.235  +00   13.
 4.757  -01 1.221  +00   13.
 4.912  -01 1.243  +00   15.
 5.074  -01 1.189  +00   13.
 5.244  -01 1.224  +00   11.
 5.424  -01 1.227  +00   10.
 5.612  -01 1.195  +00   11.
 5.811  -01 1.246  +00   11.
 6.021  -01 1.174  +00   11.
 6.242  -01 1.193  +00   10.
 6.476  -01 1.196  +00   10.
 6.723  -01 1.168  +00   10.
 6.985  -01 1.168  +00    9.7
 7.263  -01 1.190  +00   10.
 8.205  -01 1.167  +00   12.
 8.560  -01 1.188  +00   12.
 8.940  -01 1.184  +00   13.
 9.345  -01 1.196  +00   12.
 9.779  -01 1.190  +00   13.
ENDDATA           3089
ENDSUBENT         3096
ENDENTRY             2
