ENTRY            D6019   20180523   20180629   20180629       D117
SUBENT        D6019001   20180523   20180629   20180629       D117
BIB                 10         24
TITLE      Resonance spectroscopy of 30Si nucleus in the
            excitation energy range 14.27 to 15.02 MeV
AUTHOR     (L.V.Namjoshi, S.K.Gupta, M.K.Mehta,
            S.S.Kerekatte)
INSTITUTE  (3INDTRM)
REFERENCE  (J,PR/C,13,915,1976)
FACILITY   (VDG,3INDTRM) 5.5 MV Van de Graaff accelerator
SAMPLE     (12-MG-26,ENR=0.96)
            ~5 keV thickness for 4 MeV alpha-particles prepared
             by vacuum evaporation of 26MgO on ~10 ug/cm2)
            self-supporting carbon foils in a Si free vacuum
            system.
DETECTOR   (SIBAR) To detect the scattered particles at lab.
            angles 80, 118, 135, and 165 deg.
METHOD     (BCINT) The incident beam was collected by means of a
            Faraday cup and was measured using a current
            integrator.
ERR-ANALYS The absolute error in the alpha particle energy is
            estimated to be +/- 5 to +/- 20 keV.
HISTORY    (20091105C) Compiled by DR B.M.JYRWA ,BARNALEE BAYON
           (20100623A) SD: in Subent 003 at lines REACTION and
             STATUS the opening  parenthesis were moved to col.12
           (20120201U) On. METHOD: (TTM) removed from free text
           (20180523A) On. ERR-ANALYS mostly moved to 002.
ENDBIB              24
NOCOMMON             0          0
ENDSUBENT           27
SUBENT        D6019002   20180523   20180629   20180629       D117
BIB                  3         16
REACTION   (12-MG-26(A,EL)12-MG-26,,DA)
ERR-ANALYS (ERR-T) The error on the measured absolute cross
            sections (+/- 7% except at the minima in the
            excitation functions where it would go up to +/-20%)
            including
           (ERR-1) error in the normalizing factors consisting of:
             - the target thickness,
             - the solid angle, and
             - the number of alpha particles incident, has been
            estimated from the departure of the measured cross
            sections in the range 2.95 to 3.2 MeV from Rutherford
            cross sections (~+/-5%)
           (ERR-S,5.,20.) error due to counting statistics is
            around +/- 5% on the average, going to +/- 20% at the
            minima in the excitation functions.
STATUS     (CURVE) Fig.3 of Phys.Rev.C13(1976)915
ENDBIB              16
COMMON               1          3
ERR-1
PER-CENT
 5.
ENDCOMMON            3
DATA                 4        772
ANG-CM     EN         DATA-CM    ERR-T
ADEG       MEV        MB/SR      MB/SR
  90.       4.183      214.09
  90.       4.187      216.77
  90.       4.194      219.75
  90.       4.198      217.96
  90.       4.204      227.19
  90.       4.210      217.97
  90.       4.213      211.13
  90.       4.219      224.22
  90.       4.225      218.87
  90.       4.228      211.44
  90.       4.235      221.26
  90.       4.241      212.64
  90.       4.246      201.34
  90.       4.250      204.91
  90.       4.254      203.13
  90.       4.260      199.56
  90.       4.264      204.02
  90.       4.268      201.65
  90.       4.274      201.06
  90.       4.278      198.98
  90.       4.284      206.12
  90.       4.287      201.66
  90.       4.292      205.23
  90.       4.299      188.88
  90.       4.305      159.44
  90.       4.310      148.74
  90.       4.317      154.99
  90.       4.319      160.64
  90.       4.328      161.24
  90.       4.330      166.59
  90.       4.336      164.81
  90.       4.342      167.79
  90.       4.347      164.82
  90.       4.353      165.42
  90.       4.353      170.17
  90.       4.363      168.69
  90.       4.364      172.26
  90.       4.372      180.89
  90.       4.375      188.03
  90.       4.383      184.47
  90.       4.384      177.63
  90.       4.388      172.57
  90.       4.396      170.20
  90.       4.401      172.88
  90.       4.406      179.72
  90.       4.413      177.35
  90.       4.414      170.80
  90.       4.422      172.29
  90.       4.425      181.52
  90.       4.430      184.19
  90.       4.435      181.52
  90.       4.441      172.31
  90.       4.444      163.98
  90.       4.452      165.18
  90.       4.454       162.5
  90.       4.458      159.83
  90.       4.466      162.21
  90.       4.470      165.19
  90.       4.474      171.43
  90.       4.478      175.00
  90.       4.485      177.09
  90.       4.488      180.36
  90.       4.494      178.58
  90.       4.500      176.21
  90.       4.505      178.59
  90.       4.508      176.81
  90.       4.513      182.16
  90.       4.519      175.32
  90.       4.523      178.60
  90.       4.527      169.08
  90.       4.535      171.77
  90.       4.538      153.33
  90.       4.541      159.87
  90.       4.549      162.85
  90.       4.553      152.15
  90.       4.561      151.56
  90.       4.561      145.02
  90.       4.569      142.34
  90.       4.574      151.86
  90.       4.579      147.11
  90.       4.583      135.21
  90.       4.590      137.89
  90.       4.595      156.04
  90.       4.599      164.66
  90.       4.603      170.02
  90.       4.609      176.57
  90.       4.616      170.03
  90.       4.618      172.41
  90.       4.625      166.17
  90.       4.629      175.39
  90.       4.634      162.90
  90.       4.638      167.96
  90.       4.644      165.88
  90.       4.650      163.21
  90.       4.654      168.56
  90.       4.660      163.21
  90.       4.664      170.35
  90.       4.668      176.00
  90.       4.675      171.25
  90.       4.682      169.47
  90.       4.684      163.82
  90.       4.689      159.96
  90.       4.695      151.63
  90.       4.698      155.80
  90.       4.704      163.83
  90.       4.713      157.00
  90.       4.716      151.94
  90.       4.719      147.49
  90.       4.725      151.06
  90.       4.730      158.49
  90.       4.733      161.77
  90.       4.739      150.17
  90.       4.743      157.91
  90.       4.751      160.59
  90.       4.754      157.32
  90.       4.758      162.38
  90.       4.763      157.03
  90.       4.772      146.03
  90.       4.776      153.76
  90.       4.777      158.22
  90.       4.787      154.36
  90.       4.788      158.23
  90.       4.798      158.83
  90.       4.799      160.62
  90.       4.805      164.78
  90.       4.812      158.54
  90.       4.815      151.70
  90.       4.820      153.79
  90.       4.825      149.33
  90.       4.831      154.69
  90.       4.836      152.61
  90.       4.840      147.85
  90.       4.847      145.77
  90.       4.853      148.75
  90.       4.856      139.83
  90.       4.860      130.61
  90.       4.866      120.80
  90.       4.871      122.89
  90.       4.876      126.76
  90.       4.883      129.74
  90.       4.887      122.90
  90.       4.890      116.66
  90.       4.894      108.33
  90.       4.901      107.74
  90.       4.905      100.61
  90.       4.910      103.88
  90.       4.916      100.02
  90.       4.920      109.53
  90.       4.926      108.94
  90.       4.933      111.03
  90.       4.940      111.63
  90.       4.941      116.39
  90.       4.950      115.80
  90.       4.955      113.12
  90.       4.959      105.69
  90.       4.965      106.29
  90.       4.972      103.91
  90.       4.974      100.05
  90.       4.979       96.78
  90.       4.985       83.11
  90.       4.989       86.08
  90.       4.993       90.84
  90.       4.999      112.26
  90.       5.006      121.18
  90.       5.009      144.97
  90.       5.014      148.55
  90.       5.020      143.49
  90.       5.025      147.96
  90.       5.030      127.14
  90.       5.033      114.66
  90.       5.040      112.88
  90.       5.045      115.85
  90.       5.052      112.58
  90.       5.053      106.64
  90.       5.058       99.50
  90.       5.063       93.56
  90.       5.067       96.24
  90.       5.073       97.43
  90.       5.078       90.00
  90.       5.084       97.14
  90.       5.088      102.20
  90.       5.096      100.42
  90.       5.098      108.75
  90.       5.109      108.45
  90.       5.109      100.13
  90.       5.113      103.70
  90.       5.121      108.16
  90.       5.122      113.52
  90.       5.130      116.20
  90.       5.134      121.55
  90.       5.137      119.47
  90.       5.144      120.37
  90.       5.145      116.21
 125.       4.182       59.69
 125.       4.189       67.38
 125.       4.192       73.14
 125.       4.196       70.63
 125.       4.201       66.05
 125.       4.210       64.58
 125.       4.215       62.51
 125.       4.219       58.96
 125.       4.223       53.94
 125.       4.229       51.58
 125.       4.235       51.28
 125.       4.240       52.91
 125.       4.242       54.24
 125.       4.247       59.71
 125.       4.252       62.37
 125.       4.259       65.33
 125.       4.261       62.96
 125.       4.270       62.67
 125.       4.273       58.24
 125.       4.278       54.25
 125.       4.285       56.02
 125.       4.288       50.70
 125.       4.292       35.78
 125.       4.299       33.86
 125.       4.304       39.92
 125.       4.310       53.96
 125.       4.313       56.92
 125.       4.320       60.46
 125.       4.324       58.25
 125.       4.329       56.03
 125.       4.334       60.47
 125.       4.337       53.52
 125.       4.345       54.11
 125.       4.349       49.09
 125.       4.354       56.33
 125.       4.359       60.77
 125.       4.364       58.26
 125.       4.368       61.36
 125.       4.374       59.74
 125.       4.379       54.27
 125.       4.387       55.31
 125.       4.387       52.79
 125.       4.396       52.80
 125.       4.396       49.99
 125.       4.404       50.14
 125.       4.411       49.10
 125.       4.415       47.63
 125.       4.419       45.41
 125.       4.423       47.93
 125.       4.427       44.53
 125.       4.437       40.10
 125.       4.440       42.90
 125.       4.445       50.59
 125.       4.451       47.93
 125.       4.457       48.82
 125.       4.460       46.60
 125.       4.465       41.43
 125.       4.470       50.60
 125.       4.474       47.79
 125.       4.483       48.38
 125.       4.484       50.60
 125.       4.492       50.60
 125.       4.495       52.23
 125.       4.501       48.83
 125.       4.506       47.94
 125.       4.509       44.84
 125.       4.515       39.23
 125.       4.519       36.27
 125.       4.525       34.35
 125.       4.529       31.25
 125.       4.535       28.00
 125.       4.540       22.53
 125.       4.546       19.28
 125.       4.553       18.69
 125.       4.557       22.24
 125.       4.560       28.60
 125.       4.564       32.88
 125.       4.569       34.66
 125.       4.572       42.93
 125.       4.578       45.30
 125.       4.584       47.67
 125.       4.588        48.7
 125.       4.595       49.15       2.36
 125.       4.599       48.11
 125.       4.606       48.71
 125.       4.610       44.27
 125.       4.612       47.67
 125.       4.619       44.27
 125.       4.624       48.71
 125.       4.628       43.83
 125.       4.634       41.77
 125.       4.639       44.28
 125.       4.645       40.14
 125.       4.651       40.44
 125.       4.657       41.62
 125.       4.660       38.22
 125.       4.665       41.03
 125.       4.669       36.75
 125.       4.673       33.79
 125.       4.681       34.68
 125.       4.685       39.71
 125.       4.689       43.85
 125.       4.695       44.88
 125.       4.699       50.94
 125.       4.706       52.27
 125.       4.709       50.94
 125.       4.716       51.54
 125.       4.723       51.69
 125.       4.725       54.64
 125.       4.732       54.05
 125.       4.733       52.58
 125.       4.741       53.17
 125.       4.745       49.77
 125.       4.750       51.40
 125.       4.758       50.22
 125.       4.761       53.17
 125.       4.765       47.12
 125.       4.770       45.34
 125.       4.777       46.08
 125.       4.778       42.68
 125.       4.787       45.94
 125.       4.791       43.72
 125.       4.794       42.54
 125.       4.800        45.5
 125.       4.805       41.36
 125.       4.812       40.48
 125.       4.815       38.26
 125.       4.822       38.70
 125.       4.827       39.00
 125.       4.830       33.53
 125.       4.834       37.67
 125.       4.837       33.83
 125.       4.844       33.24
 125.       4.851       32.21
 125.       4.853       29.99
 125.       4.859       27.92
 125.       4.866       28.07
 125.       4.871       27.04
 125.       4.875       27.93
 125.       4.880       28.96
 125.       4.885        23.5
 125.       4.891       26.01
 125.       4.895       29.11
 125.       4.899       33.25
 125.       4.905       34.29
 125.       4.909       33.11
 125.       4.916       32.96
 125.       4.920       34.00
 125.       4.925       45.23
 125.       4.929       50.70
 125.       4.935       54.10
 125.       4.943       53.81
 125.       4.946       52.33
 125.       4.952       50.41
 125.       4.956       43.17
 125.       4.962       45.68
 125.       4.964       42.14
 125.       4.971       45.09
 125.       4.976       43.02
 125.       4.980        41.7
 125.       4.984       37.26
 125.       4.991       36.23
 125.       4.994       32.68
 125.       5.002       28.70
 125.       5.007       27.66
 125.       5.009       24.41
 125.       5.015       26.48
 125.       5.019       24.86
 125.       5.027       27.22
 125.       5.031       25.30
 125.       5.035       30.33
 125.       5.040       31.36
 125.       5.045       29.59
 125.       5.049       28.41
 125.       5.055       31.07
 125.       5.060       35.06
 125.       5.063       39.64
 125.       5.070       39.94
 125.       5.075       38.32
 125.       5.083       37.73
 125.       5.086       38.91
 125.       5.090       39.36
 125.       5.092       41.72
 125.       5.100       41.28
 125.       5.104       47.63
 125.       5.108       49.41
 125.       5.115       47.64
 125.       5.118       51.18
 125.       5.126       51.48
 125.       5.129       50.15
 125.       5.136       49.12
 125.       5.139       45.43
 125.       5.146       46.90
 141.       4.183        51.5
 141.       4.189       52.54
 141.       4.193       53.89
 141.       4.198       50.01
 141.       4.202       46.27
 141.       4.209       44.93
 141.       4.215       46.57
 141.       4.220       43.13
 141.       4.224       38.20
 141.       4.230       39.25
 141.       4.233       46.42
 141.       4.240       42.54
 141.       4.243       45.68
 141.       4.250       47.92
 141.       4.252       52.10
 141.       4.258       51.06
 141.       4.263       48.52
 141.       4.270       53.30
 141.       4.272       49.12
 141.       4.277       40.90
 141.       4.283       40.30
 141.       4.287       38.51
 141.       4.291       29.69
 141.       4.301       29.84
 141.       4.303       38.06
 141.       4.307       49.72
 141.       4.314       50.46
 141.       4.317       45.98
 141.       4.324       45.98
 141.       4.327       46.73
 141.       4.332       47.33
 141.       4.338       49.42
 141.       4.344       46.58
 141.       4.348       42.55
 141.       4.352       37.47
 141.       4.360       37.02
 141.       4.365       38.07
 141.       4.369       40.01
 141.       4.374       35.82
 141.       4.379       40.46
 141.       4.388       41.21
 141.       4.390       38.67
 141.       4.394       34.63
 141.       4.400       37.02
 141.       4.405       36.13
 141.       4.411       37.17
 141.       4.416       39.42
 141.       4.420       38.22
 141.       4.427       38.82
 141.       4.429       36.58
 141.       4.431       33.14
 141.       4.440       33.29
 141.       4.443       36.58
 141.       4.449       34.94
 141.       4.452       36.58
 141.       4.457       38.07
 141.       4.464       37.33
 141.       4.465       34.94
 141.       4.472       36.13
 141.       4.477       33.89
 141.       4.484       36.43
 141.       4.490       34.49
 141.       4.492       36.43
 141.       4.498       35.39
 141.       4.504       35.84
 141.       4.507       34.04
 141.       4.515       31.95
 141.       4.518       28.67
 141.       4.526       23.73
 141.       4.532       22.84
 141.       4.535       16.71
 141.       4.539       12.53
 141.       4.545       11.63
 141.       4.548       14.02
 141.       4.556       18.66
 141.       4.557       26.43
 141.       4.565       28.82
 141.       4.570       31.66
 141.       4.575       33.30
 141.       4.579       35.99
 141.       4.585       30.76
 141.       4.590       33.60
 141.       4.593       36.29
 141.       4.597       40.93
 141.       4.604       41.82
 141.       4.610       41.53
 141.       4.613       39.73
 141.       4.618       37.49
 141.       4.623       38.09
 141.       4.629       36.60
 141.       4.635       33.46
 141.       4.641       31.96
 141.       4.643       36.45
 141.       4.649       36.75
 141.       4.657       37.64
 141.       4.659       41.68
 141.       4.665       49.60
 141.       4.670       44.07
 141.       4.673       48.70
 141.       4.679       47.36
 141.       4.680       45.57
 141.       4.685       45.87
 141.       4.689       49.75
 141.       4.695       47.96
 141.       4.698       45.87
 141.       4.706       46.47
 141.       4.709       42.73
 141.       4.714       40.19
 141.       4.721       42.28
 141.       4.723       38.25
 141.       4.731        38.4
 141.       4.737       39.44
 141.       4.741       34.36
 141.       4.744       37.80
 141.       4.749       36.31
 141.       4.756       35.56
 141.       4.760       38.85
 141.       4.764       34.81
 141.       4.770       35.41
 141.       4.773       33.47
 141.       4.779       37.06
 141.       4.785       34.37
 141.       4.789       32.58
 141.       4.792       34.07
 141.       4.796       30.33
 141.       4.806       30.93
 141.       4.809       28.84
 141.       4.815       32.88
 141.       4.822       31.53
 141.       4.822       29.44
 141.       4.828       27.20
 141.       4.834       27.95
 141.       4.839       26.00
 141.       4.844       27.20
 141.       4.850       25.86
 141.       4.856       23.91
 141.       4.861       21.82
 141.       4.868       18.09
 141.       4.872       15.25
 141.       4.873       18.54
 141.       4.881       18.54
 141.       4.886       21.83
 141.       4.891       25.56
 141.       4.896       30.19
 141.       4.901       33.33
 141.       4.908       39.91
 141.       4.911       35.87
 141.       4.917       38.12
 141.       4.919       42.30
 141.       4.926       37.67
 141.       4.930       42.30
 141.       4.935       38.57
 141.       4.940       37.82
 141.       4.945       38.87
 141.       4.952       37.07
 141.       4.955       32.89
 141.       4.958       31.10
 141.       4.965       32.59
 141.       4.969       29.45
 141.       4.978       28.41
 141.       4.980       22.43
 141.       4.986       18.10
 141.       4.991       11.67
 141.       4.999        7.19
 141.       5.000        4.35
 141.       5.008        4.80
 141.       5.013        8.39
 141.       5.017       11.38
 141.       5.021       16.76
 141.       5.025        17.2
 141.       5.027       21.84
 141.       5.032       25.72
 141.       5.038       27.22
 141.       5.040       28.56
 141.       5.048       28.71
 141.       5.050       30.51
 141.       5.058       31.26
 141.       5.062       36.04
 141.       5.069       36.19
 141.       5.072       42.91
 141.       5.075       39.63
 141.       5.083       39.48
 141.       5.086       41.72
 141.       5.089       43.51
 141.       5.097       47.70
 141.       5.103       44.26
 141.       5.107       41.27
 141.       5.111       36.64
 141.       5.118       38.58
 141.       5.121       33.80
 141.       5.124       37.24
 141.       5.133       26.48
 141.       5.142       39.18
 141.       5.147       32.91
 167.       4.183       52.24
 167.       4.187       48.51
 167.       4.193       47.02
 167.       4.197       44.18
 167.       4.202       42.54
 167.       4.209       43.29
 167.       4.215       40.01
 167.       4.219       38.82
 167.       4.231       39.11
 167.       4.231       43.59
 167.       4.238       42.25
 167.       4.243       45.08
 167.       4.246       49.70
 167.       4.253       49.70
 167.       4.258       51.64
 167.       4.262       44.63
 167.       4.268       42.40
 167.       4.274       40.46
 167.       4.278       42.25
 167.       4.286       38.52
 167.       4.288       33.00
 167.       4.294       31.36
 167.       4.299        23.9
 167.       4.306       38.37
 167.       4.308       24.95
 167.       4.313       45.53
 167.       4.319       44.78
 167.       4.323       41.35
 167.       4.331       41.20
 167.       4.333       43.89
 167.       4.340       44.48
 167.       4.345       45.82
 167.       4.348       36.13
 167.       4.353       27.93
 167.       4.360       20.47
 167.       4.363       22.41
 167.       4.369       25.25
 167.       4.373       28.38
 167.       4.379       33.89
 167.       4.385       31.96
 167.       4.389       27.78
 167.       4.394       24.65
 167.       4.402       24.95
 167.       4.404       28.38
 167.       4.410       38.22
 167.       4.413       41.35
 167.       4.419       34.64
 167.       4.426       31.36
 167.       4.427       27.04
 167.       4.434       25.39
 167.       4.440       26.59
 167.       4.446       24.95
 167.       4.450       27.48
 167.       4.452       29.87
 167.       4.457       24.05
 167.       4.465       22.41
 167.       4.469       24.05
 167.       4.471       28.53
 167.       4.479       29.42
 167.       4.483       26.74
 167.       4.489       29.57
 167.       4.491       34.34
 167.       4.496       33.00
 167.       4.503       33.45
 167.       4.507       32.11
 167.       4.514       29.72
 167.       4.518       24.20
 167.       4.524       20.03
 167.       4.528       17.34
 167.       4.535        9.29
 167.       4.538        6.46
 167.       4.545        6.75       1.19
 167.       4.548       14.66
 167.       4.554       17.34
 167.       4.560       23.61
 167.       4.564       25.10
 167.       4.570       21.52
 167.       4.573       26.29
 167.       4.579       18.24
 167.       4.579       24.80
 167.       4.583       16.75
 167.       4.589       26.44
 167.       4.594       38.07
 167.       4.596       40.16
 167.       4.605       40.16
 167.       4.608       39.26
 167.       4.615       33.75
 167.       4.618       35.09
 167.       4.622       39.11
 167.       4.626       36.13
 167.       4.635       33.75
 167.       4.639       37.92
 167.       4.643       45.08
 167.       4.646       48.66
 167.       4.652       52.53
 167.       4.658       57.16
 167.       4.665       74.76
 167.       4.668       77.74       0.89
 167.       4.674       83.26       2.68
 167.       4.679       78.93
 167.       4.685       67.60       3.58
 167.       4.690       51.19
 167.       4.691       39.71
 167.       4.697       34.04
 167.       4.704       30.46
 167.       4.709       27.18
 167.       4.715       24.05
 167.       4.718       21.37
 167.       4.725       18.39
 167.       4.729       20.92
 167.       4.735       19.28
 167.       4.738       17.19
 167.       4.742       19.88
 167.       4.748       18.53
 167.       4.752       21.67
 167.       4.759       20.92
 167.       4.763       24.20
 167.       4.769       24.80
 167.       4.773       22.56
 167.       4.780       22.41
 167.       4.783       24.05
 167.       4.789       23.46
 167.       4.793       21.82
 167.       4.799       23.31
 167.       4.805       23.90
 167.       4.809       20.92
 167.       4.814       23.16
 167.       4.817       21.07
 167.       4.825       21.67
 167.       4.831       20.77
 167.       4.834       17.79
 167.       4.839       20.62
 167.       4.846       19.43
 167.       4.848       20.77
 167.       4.851       17.34
 167.       4.864        5.11
 167.       4.872        4.96
 167.       4.874        9.44
 167.       4.878       12.87
 167.       4.882       18.98
 167.       4.889       21.22
 167.       4.893       30.02
 167.       4.900       39.71
 167.       4.904       44.63
 167.       4.910       43.29
 167.       4.916       46.42
 167.       4.920       50.45
 167.       4.923       34.34
 167.       4.929       30.02
 167.       4.933       21.82
 167.       4.941       19.88
 167.       4.943       15.55
 167.       4.950       13.76
 167.       4.952       11.38
 167.       4.961        9.59
 167.       4.964       11.08
 167.       4.973       11.82
 167.       4.974        9.29
 167.       4.978        6.46
 167.       4.984        2.88
 167.       4.989        4.81
 167.       4.995        2.43
 167.       4.998        6.01
 167.       5.005       13.76
 167.       5.009       17.34
 167.       5.016       23.61
 167.       5.020       32.25
 167.       5.024       35.24
 167.       5.027       33.45
 167.       5.035       38.37
 167.       5.039       36.28
 167.       5.044       33.30
 167.       5.050       36.88
 167.       5.055       42.84
 167.       5.061       44.93
 167.       5.065       42.54
 167.       5.071       43.29
 167.       5.072       49.40
 167.       5.081       44.33
 167.       5.084       50.00
 167.       5.089       51.79
 167.       5.095       48.36
 167.       5.099       37.62
 167.       5.105       24.65
 167.       5.108       21.67
 167.       5.116       19.43
 167.       5.122       20.92
 167.       5.124       25.69
 167.       5.130       23.46
 167.       5.134       24.65
 167.       5.141       23.75
 167.       5.144       25.25
ENDDATA            774
ENDSUBENT          799
SUBENT        D6019003   20180523   20180629   20180629       D117
BIB                  3          8
REACTION  1(12-MG-26(A,0),,EN)
          2(12-MG-26(A,EL),,WID)
          3(12-MG-26(A,N),,WID)
          4(12-MG-26(A,0),,J)
          5(12-MG-26(A,0),,PTY)
STATUS     (TABLE) Table I of Phys.Rev.C13(1976)915
HISTORY    (20100623A) SD: at lines REACTION and STATUS the
            opening parenthesis were moved to column 12
ENDBIB               8
NOCOMMON             0          0
DATA                 5         12
DATA      1DATA      2DATA      3DATA      4DATA      5
MEV        MEV        MEV        NO-DIM     NO-DIM
 4.235       5.         12.       0.         1.
 4.300      12.         8.        0.         1.
 4.450       6.        24.        0.         1.
 4.555      30.         5.        0.         1.
 4.590       1.8        8.2       2.         1.
 4.645      12.        28.        1.        -1.
 4.695      15.        30.        3.        -1.
 4.900      40.        20.        0.         1.
 4.925       3.        17.        3.        -1.
 4.990       4.        11.        2.         1.
 5.030      20.        10.        0.         1.
 5.100       4.        45.        4.         1.
ENDDATA             14
ENDSUBENT           27
ENDENTRY             3
