ENTRY            D6019   20100623   20110323   20110307       D074
SUBENT        D6019001   20100623   20110323   20110307       D074
BIB                 12         54
TITLE      Resonance spectroscopy of 30Si nucleus in the
           excitation energy range 14.27 to 15.02 MeV
AUTHOR     (L.V.Namjoshi,S.K.Gupta,M.K.Mehta,S.S.Kerekatte)
INSTITUTE  (3INDTRM)
REFERENCE  (J,PR/C,13,(3),915,197603)
FACILITY   (VDG,3INDTRM) 5.5 MV Van de Graaff accelerator at
                         Trombay was used.
INC-SOURCE 4He+ beam was obtained from the 5.5 MV Van de Graaff.
SAMPLE     Targets of about 5 keV thickness for 4 MeV alpha-
           particles were prepared by vacuum evaporation of MgO
            (99% enriched in 26Mg) on thin (~10 microgm/cm2 )
           self-supporting carbon foils, in a silicon free
           vacuum system.
METHOD     The energy analyzed beam was collimated to 2 mm
           diameter using a three element tantalum collimator
           placed at the entrance of the scattering chamber and
           was focused on the target situated at the centre of
           the chamber by means of a pair of quadrupole lenses
            (TTM)
DETECTOR   (SIBAR)Surface barrier detectors were used to detect
           the scattered particles at laboratory angles 80,
           118, 135, and 165 degrees.
           The incident beam was collected by means of a
           Faraday cup and was measured using a current
           integrator.
ANALYSIS   The absolute differential elastic scattering cross
           section on 26 Mg were measured at four angles from
           4.18 to 5.14 MeV alpha particle bombarding energy.
           This has yielded information about levels in the
           compound nucleus 30Si in the excitation energy range
           14.3 to 15.0 MeV.
ERR-ANALYS (ERR-T,7.,20.)The error on the measured absolute cross
           sections, therefore, is +- 7% except at the minima
           in the excitation functions where it would go up to
           +- 20%. It includes ERR-SYS and ERR-S.
           (ERR-SYS)The error in the normalizing factors
           consisting of:
             * the target thickness,
             * the solid angle, and
             * the number of alpha particles incident, has been
           estimated from the departure of the measured cross
           sections in the range 2.95 to 3.2 MeV from Rutherford
           cross sections and is about +- 5%.
           (ERR-S,5.,20.) The error due to counting statistics is
           around +- 5% on the average, going to +- 20% at the
           minima in the excitation functions.
            * The absolute error in the alpha particle energy is
           estimated to be +- 5 to +- 20 keV in the energy
           range studied.
            * The relative error from resonance to resonance is,
           however, less than 5 keV.
HISTORY    (20091105C) Compiled by DR B.M.JYRWA ,BARNALEE BAYON
           (20100623A) SD: in Subent 003 at lines REACTION and
             STATUS the opening  parenthesis were moved to col.12
ENDBIB              54
COMMON               1          3
ERR-SYS
PER-CENT
5.
ENDCOMMON            3
ENDSUBENT           61
SUBENT        D6019002   20091105   20100209   20100208       D070
BIB                  3          4
REACTION   (12-MG-26(A,EL)12-MG-26,,DA)
ERR-ANALYS (EN-ERR-DIG) Digitizing error
           (ERR-DIG)    Digitizing error
STATUS     (CURVE) data were digitized from fig.3
ENDBIB               4
COMMON               2          3
EN-ERR-DIG ERR-DIG
MEV        MB/SR
  0.001      0.25
ENDCOMMON            3
DATA                 4        772
ANG-CM     EN         DATA-CM    ERR-T
ADEG       MEV        MB/SR      MB/SR
       90.0      4.183     214.09
       90.0      4.187     216.77
       90.0      4.194     219.75
       90.0      4.198     217.96
       90.0      4.204     227.19
       90.0      4.210     217.97
       90.0      4.213     211.13
       90.0      4.219     224.22
       90.0      4.225     218.87
       90.0      4.228     211.44
       90.0      4.235     221.26
       90.0      4.241     212.64
       90.0      4.246     201.34
       90.0      4.250     204.91
       90.0      4.254     203.13
       90.0      4.260     199.56
       90.0      4.264     204.02
       90.0      4.268     201.65
       90.0      4.274     201.06
       90.0      4.278     198.98
       90.0      4.284     206.12
       90.0      4.287     201.66
       90.0      4.292     205.23
       90.0      4.299     188.88
       90.0      4.305     159.44
       90.0      4.310     148.74
       90.0      4.317     154.99
       90.0      4.319     160.64
       90.0      4.328     161.24
       90.0      4.330     166.59
       90.0      4.336     164.81
       90.0      4.342     167.79
       90.0      4.347     164.82
       90.0      4.353     165.42
       90.0      4.353     170.17
       90.0      4.363     168.69
       90.0      4.364     172.26
       90.0      4.372     180.89
       90.0      4.375     188.03
       90.0      4.383     184.47
       90.0      4.384     177.63
       90.0      4.388     172.57
       90.0      4.396     170.20
       90.0      4.401     172.88
       90.0      4.406     179.72
       90.0      4.413     177.35
       90.0      4.414     170.80
       90.0      4.422     172.29
       90.0      4.425     181.52
       90.0      4.430     184.19
       90.0      4.435     181.52
       90.0      4.441     172.31
       90.0      4.444     163.98
       90.0      4.452     165.18
       90.0      4.454      162.5
       90.0      4.458     159.83
       90.0      4.466     162.21
       90.0      4.470     165.19
       90.0      4.474     171.43
       90.0      4.478     175.00
       90.0      4.485     177.09
       90.0      4.488     180.36
       90.0      4.494     178.58
       90.0      4.500     176.21
       90.0      4.505     178.59
       90.0      4.508     176.81
       90.0      4.513     182.16
       90.0      4.519     175.32
       90.0      4.523     178.60
       90.0      4.527     169.08
       90.0      4.535     171.77
       90.0      4.538     153.33
       90.0      4.541     159.87
       90.0      4.549     162.85
       90.0      4.553     152.15
       90.0      4.561     151.56
       90.0      4.561     145.02
       90.0      4.569     142.34
       90.0      4.574     151.86
       90.0      4.579     147.11
       90.0      4.583     135.21
       90.0      4.590     137.89
       90.0      4.595     156.04
       90.0      4.599     164.66
       90.0      4.603     170.02
       90.0      4.609     176.57
       90.0      4.616     170.03
       90.0      4.618     172.41
       90.0      4.625     166.17
       90.0      4.629     175.39
       90.0      4.634     162.90
       90.0      4.638     167.96
       90.0      4.644     165.88
       90.0      4.650     163.21
       90.0      4.654     168.56
       90.0      4.660     163.21
       90.0      4.664     170.35
       90.0      4.668     176.00
       90.0      4.675     171.25
       90.0      4.682     169.47
       90.0      4.684     163.82
       90.0      4.689     159.96
       90.0      4.695     151.63
       90.0      4.698     155.80
       90.0      4.704     163.83
       90.0      4.713     157.00
       90.0      4.716     151.94
       90.0      4.719     147.49
       90.0      4.725     151.06
       90.0      4.730     158.49
       90.0      4.733     161.77
       90.0      4.739     150.17
       90.0      4.743     157.91
       90.0      4.751     160.59
       90.0      4.754     157.32
       90.0      4.758     162.38
       90.0      4.763     157.03
       90.0      4.772     146.03
       90.0      4.776     153.76
       90.0      4.777     158.22
       90.0      4.787     154.36
       90.0      4.788     158.23
       90.0      4.798     158.83
       90.0      4.799     160.62
       90.0      4.805     164.78
       90.0      4.812     158.54
       90.0      4.815     151.70
       90.0      4.820     153.79
       90.0      4.825     149.33
       90.0      4.831     154.69
       90.0      4.836     152.61
       90.0      4.840     147.85
       90.0      4.847     145.77
       90.0      4.853     148.75
       90.0      4.856     139.83
       90.0      4.860     130.61
       90.0      4.866     120.80
       90.0      4.871     122.89
       90.0      4.876     126.76
       90.0      4.883     129.74
       90.0      4.887     122.90
       90.0      4.890     116.66
       90.0      4.894     108.33
       90.0      4.901     107.74
       90.0      4.905     100.61
       90.0      4.910     103.88
       90.0      4.916     100.02
       90.0      4.920     109.53
       90.0      4.926     108.94
       90.0      4.933     111.03
       90.0      4.940     111.63
       90.0      4.941     116.39
       90.0      4.950     115.80
       90.0      4.955     113.12
       90.0      4.959     105.69
       90.0      4.965     106.29
       90.0      4.972     103.91
       90.0      4.974     100.05
       90.0      4.979      96.78
       90.0      4.985      83.11
       90.0      4.989      86.08
       90.0      4.993      90.84
       90.0      4.999     112.26
       90.0      5.006     121.18
       90.0      5.009     144.97
       90.0      5.014     148.55
       90.0      5.020     143.49
       90.0      5.025     147.96
       90.0      5.030     127.14
       90.0      5.033     114.66
       90.0      5.040     112.88
       90.0      5.045     115.85
       90.0      5.052     112.58
       90.0      5.053     106.64
       90.0      5.058      99.50
       90.0      5.063      93.56
       90.0      5.067      96.24
       90.0      5.073      97.43
       90.0      5.078      90.00
       90.0      5.084      97.14
       90.0      5.088     102.20
       90.0      5.096     100.42
       90.0      5.098     108.75
       90.0      5.109     108.45
       90.0      5.109     100.13
       90.0      5.113     103.70
       90.0      5.121     108.16
       90.0      5.122     113.52
       90.0      5.130     116.20
       90.0      5.134     121.55
       90.0      5.137     119.47
       90.0      5.144     120.37
       90.0      5.145     116.21
      125.0      4.182      59.69
      125.0      4.189      67.38
      125.0      4.192      73.14
      125.0      4.196      70.63
      125.0      4.201      66.05
      125.0      4.210      64.58
      125.0      4.215      62.51
      125.0      4.219      58.96
      125.0      4.223      53.94
      125.0      4.229      51.58
      125.0      4.235      51.28
      125.0      4.240      52.91
      125.0      4.242      54.24
      125.0      4.247      59.71
      125.0      4.252      62.37
      125.0      4.259      65.33
      125.0      4.261      62.96
      125.0      4.270      62.67
      125.0      4.273      58.24
      125.0      4.278      54.25
      125.0      4.285      56.02
      125.0      4.288      50.70
      125.0      4.292      35.78
      125.0      4.299      33.86
      125.0      4.304      39.92
      125.0      4.310      53.96
      125.0      4.313      56.92
      125.0      4.320      60.46
      125.0      4.324      58.25
      125.0      4.329      56.03
      125.0      4.334      60.47
      125.0      4.337      53.52
      125.0      4.345      54.11
      125.0      4.349      49.09
      125.0      4.354      56.33
      125.0      4.359      60.77
      125.0      4.364      58.26
      125.0      4.368      61.36
      125.0      4.374      59.74
      125.0      4.379      54.27
      125.0      4.387      55.31
      125.0      4.387      52.79
      125.0      4.396      52.80
      125.0      4.396      49.99
      125.0      4.404      50.14
      125.0      4.411      49.10
      125.0      4.415      47.63
      125.0      4.419      45.41
      125.0      4.423      47.93
      125.0      4.427      44.53
      125.0      4.437      40.10
      125.0      4.440      42.90
      125.0      4.445      50.59
      125.0      4.451      47.93
      125.0      4.457      48.82
      125.0      4.460      46.60
      125.0      4.465      41.43
      125.0      4.470      50.60
      125.0      4.474      47.79
      125.0      4.483      48.38
      125.0      4.484      50.60
      125.0      4.492      50.60
      125.0      4.495      52.23
      125.0      4.501      48.83
      125.0      4.506      47.94
      125.0      4.509      44.84
      125.0      4.515      39.23
      125.0      4.519      36.27
      125.0      4.525      34.35
      125.0      4.529      31.25
      125.0      4.535      28.00
      125.0      4.540      22.53
      125.0      4.546      19.28
      125.0      4.553      18.69
      125.0      4.557      22.24
      125.0      4.560      28.60
      125.0      4.564      32.88
      125.0      4.569      34.66
      125.0      4.572      42.93
      125.0      4.578      45.30
      125.0      4.584      47.67
      125.0      4.588       48.7
      125.0      4.595      49.15       2.36
      125.0      4.599      48.11
      125.0      4.606      48.71
      125.0      4.610      44.27
      125.0      4.612      47.67
      125.0      4.619      44.27
      125.0      4.624      48.71
      125.0      4.628      43.83
      125.0      4.634      41.77
      125.0      4.639      44.28
      125.0      4.645      40.14
      125.0      4.651      40.44
      125.0      4.657      41.62
      125.0      4.660      38.22
      125.0      4.665      41.03
      125.0      4.669      36.75
      125.0      4.673      33.79
      125.0      4.681      34.68
      125.0      4.685      39.71
      125.0      4.689      43.85
      125.0      4.695      44.88
      125.0      4.699      50.94
      125.0      4.706      52.27
      125.0      4.709      50.94
      125.0      4.716      51.54
      125.0      4.723      51.69
      125.0      4.725      54.64
      125.0      4.732      54.05
      125.0      4.733      52.58
      125.0      4.741      53.17
      125.0      4.745      49.77
      125.0      4.750      51.40
      125.0      4.758      50.22
      125.0      4.761      53.17
      125.0      4.765      47.12
      125.0      4.770      45.34
      125.0      4.777      46.08
      125.0      4.778      42.68
      125.0      4.787      45.94
      125.0      4.791      43.72
      125.0      4.794      42.54
      125.0      4.800       45.5
      125.0      4.805      41.36
      125.0      4.812      40.48
      125.0      4.815      38.26
      125.0      4.822      38.70
      125.0      4.827      39.00
      125.0      4.830      33.53
      125.0      4.834      37.67
      125.0      4.837      33.83
      125.0      4.844      33.24
      125.0      4.851      32.21
      125.0      4.853      29.99
      125.0      4.859      27.92
      125.0      4.866      28.07
      125.0      4.871      27.04
      125.0      4.875      27.93
      125.0      4.880      28.96
      125.0      4.885       23.5
      125.0      4.891      26.01
      125.0      4.895      29.11
      125.0      4.899      33.25
      125.0      4.905      34.29
      125.0      4.909      33.11
      125.0      4.916      32.96
      125.0      4.920      34.00
      125.0      4.925      45.23
      125.0      4.929      50.70
      125.0      4.935      54.10
      125.0      4.943      53.81
      125.0      4.946      52.33
      125.0      4.952      50.41
      125.0      4.956      43.17
      125.0      4.962      45.68
      125.0      4.964      42.14
      125.0      4.971      45.09
      125.0      4.976      43.02
      125.0      4.980       41.7
      125.0      4.984      37.26
      125.0      4.991      36.23
      125.0      4.994      32.68
      125.0      5.002      28.70
      125.0      5.007      27.66
      125.0      5.009      24.41
      125.0      5.015      26.48
      125.0      5.019      24.86
      125.0      5.027      27.22
      125.0      5.031      25.30
      125.0      5.035      30.33
      125.0      5.040      31.36
      125.0      5.045      29.59
      125.0      5.049      28.41
      125.0      5.055      31.07
      125.0      5.060      35.06
      125.0      5.063      39.64
      125.0      5.070      39.94
      125.0      5.075      38.32
      125.0      5.083      37.73
      125.0      5.086      38.91
      125.0      5.090      39.36
      125.0      5.092      41.72
      125.0      5.100      41.28
      125.0      5.104      47.63
      125.0      5.108      49.41
      125.0      5.115      47.64
      125.0      5.118      51.18
      125.0      5.126      51.48
      125.0      5.129      50.15
      125.0      5.136      49.12
      125.0      5.139      45.43
      125.0      5.146      46.90
      141.0      4.183       51.5
      141.0      4.189      52.54
      141.0      4.193      53.89
      141.0      4.198      50.01
      141.0      4.202      46.27
      141.0      4.209      44.93
      141.0      4.215      46.57
      141.0      4.220      43.13
      141.0      4.224      38.20
      141.0      4.230      39.25
      141.0      4.233      46.42
      141.0      4.240      42.54
      141.0      4.243      45.68
      141.0      4.250      47.92
      141.0      4.252      52.10
      141.0      4.258      51.06
      141.0      4.263      48.52
      141.0      4.270      53.30
      141.0      4.272      49.12
      141.0      4.277      40.90
      141.0      4.283      40.30
      141.0      4.287      38.51
      141.0      4.291      29.69
      141.0      4.301      29.84
      141.0      4.303      38.06
      141.0      4.307      49.72
      141.0      4.314      50.46
      141.0      4.317      45.98
      141.0      4.324      45.98
      141.0      4.327      46.73
      141.0      4.332      47.33
      141.0      4.338      49.42
      141.0      4.344      46.58
      141.0      4.348      42.55
      141.0      4.352      37.47
      141.0      4.360      37.02
      141.0      4.365      38.07
      141.0      4.369      40.01
      141.0      4.374      35.82
      141.0      4.379      40.46
      141.0      4.388      41.21
      141.0      4.390      38.67
      141.0      4.394      34.63
      141.0      4.400      37.02
      141.0      4.405      36.13
      141.0      4.411      37.17
      141.0      4.416      39.42
      141.0      4.420      38.22
      141.0      4.427      38.82
      141.0      4.429      36.58
      141.0      4.431      33.14
      141.0      4.440      33.29
      141.0      4.443      36.58
      141.0      4.449      34.94
      141.0      4.452      36.58
      141.0      4.457      38.07
      141.0      4.464      37.33
      141.0      4.465      34.94
      141.0      4.472      36.13
      141.0      4.477      33.89
      141.0      4.484      36.43
      141.0      4.490      34.49
      141.0      4.492      36.43
      141.0      4.498      35.39
      141.0      4.504      35.84
      141.0      4.507      34.04
      141.0      4.515      31.95
      141.0      4.518      28.67
      141.0      4.526      23.73
      141.0      4.532      22.84
      141.0      4.535      16.71
      141.0      4.539      12.53
      141.0      4.545      11.63
      141.0      4.548      14.02
      141.0      4.556      18.66
      141.0      4.557      26.43
      141.0      4.565      28.82
      141.0      4.570      31.66
      141.0      4.575      33.30
      141.0      4.579      35.99
      141.0      4.585      30.76
      141.0      4.590      33.60
      141.0      4.593      36.29
      141.0      4.597      40.93
      141.0      4.604      41.82
      141.0      4.610      41.53
      141.0      4.613      39.73
      141.0      4.618      37.49
      141.0      4.623      38.09
      141.0      4.629      36.60
      141.0      4.635      33.46
      141.0      4.641      31.96
      141.0      4.643      36.45
      141.0      4.649      36.75
      141.0      4.657      37.64
      141.0      4.659      41.68
      141.0      4.665      49.60
      141.0      4.670      44.07
      141.0      4.673      48.70
      141.0      4.679      47.36
      141.0      4.680      45.57
      141.0      4.685      45.87
      141.0      4.689      49.75
      141.0      4.695      47.96
      141.0      4.698      45.87
      141.0      4.706      46.47
      141.0      4.709      42.73
      141.0      4.714      40.19
      141.0      4.721      42.28
      141.0      4.723      38.25
      141.0      4.731       38.4
      141.0      4.737      39.44
      141.0      4.741      34.36
      141.0      4.744      37.80
      141.0      4.749      36.31
      141.0      4.756      35.56
      141.0      4.760      38.85
      141.0      4.764      34.81
      141.0      4.770      35.41
      141.0      4.773      33.47
      141.0      4.779      37.06
      141.0      4.785      34.37
      141.0      4.789      32.58
      141.0      4.792      34.07
      141.0      4.796      30.33
      141.0      4.806      30.93
      141.0      4.809      28.84
      141.0      4.815      32.88
      141.0      4.822      31.53
      141.0      4.822      29.44
      141.0      4.828      27.20
      141.0      4.834      27.95
      141.0      4.839      26.00
      141.0      4.844      27.20
      141.0      4.850      25.86
      141.0      4.856      23.91
      141.0      4.861      21.82
      141.0      4.868      18.09
      141.0      4.872      15.25
      141.0      4.873      18.54
      141.0      4.881      18.54
      141.0      4.886      21.83
      141.0      4.891      25.56
      141.0      4.896      30.19
      141.0      4.901      33.33
      141.0      4.908      39.91
      141.0      4.911      35.87
      141.0      4.917      38.12
      141.0      4.919      42.30
      141.0      4.926      37.67
      141.0      4.930      42.30
      141.0      4.935      38.57
      141.0      4.940      37.82
      141.0      4.945      38.87
      141.0      4.952      37.07
      141.0      4.955      32.89
      141.0      4.958      31.10
      141.0      4.965      32.59
      141.0      4.969      29.45
      141.0      4.978      28.41
      141.0      4.980      22.43
      141.0      4.986      18.10
      141.0      4.991      11.67
      141.0      4.999       7.19
      141.0      5.000       4.35
      141.0      5.008       4.80
      141.0      5.013       8.39
      141.0      5.017      11.38
      141.0      5.021      16.76
      141.0      5.025       17.2
      141.0      5.027      21.84
      141.0      5.032      25.72
      141.0      5.038      27.22
      141.0      5.040      28.56
      141.0      5.048      28.71
      141.0      5.050      30.51
      141.0      5.058      31.26
      141.0      5.062      36.04
      141.0      5.069      36.19
      141.0      5.072      42.91
      141.0      5.075      39.63
      141.0      5.083      39.48
      141.0      5.086      41.72
      141.0      5.089      43.51
      141.0      5.097      47.70
      141.0      5.103      44.26
      141.0      5.107      41.27
      141.0      5.111      36.64
      141.0      5.118      38.58
      141.0      5.121      33.80
      141.0      5.124      37.24
      141.0      5.133      26.48
      141.0      5.142      39.18
      141.0      5.147      32.91
      167.0      4.183      52.24
      167.0      4.187      48.51
      167.0      4.193      47.02
      167.0      4.197      44.18
      167.0      4.202      42.54
      167.0      4.209      43.29
      167.0      4.215      40.01
      167.0      4.219      38.82
      167.0      4.231      39.11
      167.0      4.231      43.59
      167.0      4.238      42.25
      167.0      4.243      45.08
      167.0      4.246      49.70
      167.0      4.253      49.70
      167.0      4.258      51.64
      167.0      4.262      44.63
      167.0      4.268      42.40
      167.0      4.274      40.46
      167.0      4.278      42.25
      167.0      4.286      38.52
      167.0      4.288      33.00
      167.0      4.294      31.36
      167.0      4.299       23.9
      167.0      4.306      38.37
      167.0      4.308      24.95
      167.0      4.313      45.53
      167.0      4.319      44.78
      167.0      4.323      41.35
      167.0      4.331      41.20
      167.0      4.333      43.89
      167.0      4.340      44.48
      167.0      4.345      45.82
      167.0      4.348      36.13
      167.0      4.353      27.93
      167.0      4.360      20.47
      167.0      4.363      22.41
      167.0      4.369      25.25
      167.0      4.373      28.38
      167.0      4.379      33.89
      167.0      4.385      31.96
      167.0      4.389      27.78
      167.0      4.394      24.65
      167.0      4.402      24.95
      167.0      4.404      28.38
      167.0      4.410      38.22
      167.0      4.413      41.35
      167.0      4.419      34.64
      167.0      4.426      31.36
      167.0      4.427      27.04
      167.0      4.434      25.39
      167.0      4.440      26.59
      167.0      4.446      24.95
      167.0      4.450      27.48
      167.0      4.452      29.87
      167.0      4.457      24.05
      167.0      4.465      22.41
      167.0      4.469      24.05
      167.0      4.471      28.53
      167.0      4.479      29.42
      167.0      4.483      26.74
      167.0      4.489      29.57
      167.0      4.491      34.34
      167.0      4.496      33.00
      167.0      4.503      33.45
      167.0      4.507      32.11
      167.0      4.514      29.72
      167.0      4.518      24.20
      167.0      4.524      20.03
      167.0      4.528      17.34
      167.0      4.535       9.29
      167.0      4.538       6.46
      167.0      4.545       6.75       1.19
      167.0      4.548      14.66
      167.0      4.554      17.34
      167.0      4.560      23.61
      167.0      4.564      25.10
      167.0      4.570      21.52
      167.0      4.573      26.29
      167.0      4.579      18.24
      167.0      4.579      24.80
      167.0      4.583      16.75
      167.0      4.589      26.44
      167.0      4.594      38.07
      167.0      4.596      40.16
      167.0      4.605      40.16
      167.0      4.608      39.26
      167.0      4.615      33.75
      167.0      4.618      35.09
      167.0      4.622      39.11
      167.0      4.626      36.13
      167.0      4.635      33.75
      167.0      4.639      37.92
      167.0      4.643      45.08
      167.0      4.646      48.66
      167.0      4.652      52.53
      167.0      4.658      57.16
      167.0      4.665      74.76
      167.0      4.668      77.74       0.89
      167.0      4.674      83.26       2.68
      167.0      4.679      78.93
      167.0      4.685      67.60       3.58
      167.0      4.690      51.19
      167.0      4.691      39.71
      167.0      4.697      34.04
      167.0      4.704      30.46
      167.0      4.709      27.18
      167.0      4.715      24.05
      167.0      4.718      21.37
      167.0      4.725      18.39
      167.0      4.729      20.92
      167.0      4.735      19.28
      167.0      4.738      17.19
      167.0      4.742      19.88
      167.0      4.748      18.53
      167.0      4.752      21.67
      167.0      4.759      20.92
      167.0      4.763      24.20
      167.0      4.769      24.80
      167.0      4.773      22.56
      167.0      4.780      22.41
      167.0      4.783      24.05
      167.0      4.789      23.46
      167.0      4.793      21.82
      167.0      4.799      23.31
      167.0      4.805      23.90
      167.0      4.809      20.92
      167.0      4.814      23.16
      167.0      4.817      21.07
      167.0      4.825      21.67
      167.0      4.831      20.77
      167.0      4.834      17.79
      167.0      4.839      20.62
      167.0      4.846      19.43
      167.0      4.848      20.77
      167.0      4.851      17.34
      167.0      4.864       5.11
      167.0      4.872       4.96
      167.0      4.874       9.44
      167.0      4.878      12.87
      167.0      4.882      18.98
      167.0      4.889      21.22
      167.0      4.893      30.02
      167.0      4.900      39.71
      167.0      4.904      44.63
      167.0      4.910      43.29
      167.0      4.916      46.42
      167.0      4.920      50.45
      167.0      4.923      34.34
      167.0      4.929      30.02
      167.0      4.933      21.82
      167.0      4.941      19.88
      167.0      4.943      15.55
      167.0      4.950      13.76
      167.0      4.952      11.38
      167.0      4.961       9.59
      167.0      4.964      11.08
      167.0      4.973      11.82
      167.0      4.974       9.29
      167.0      4.978       6.46
      167.0      4.984       2.88
      167.0      4.989       4.81
      167.0      4.995       2.43
      167.0      4.998       6.01
      167.0      5.005      13.76
      167.0      5.009      17.34
      167.0      5.016      23.61
      167.0      5.020      32.25
      167.0      5.024      35.24
      167.0      5.027      33.45
      167.0      5.035      38.37
      167.0      5.039      36.28
      167.0      5.044      33.30
      167.0      5.050      36.88
      167.0      5.055      42.84
      167.0      5.061      44.93
      167.0      5.065      42.54
      167.0      5.071      43.29
      167.0      5.072      49.40
      167.0      5.081      44.33
      167.0      5.084      50.00
      167.0      5.089      51.79
      167.0      5.095      48.36
      167.0      5.099      37.62
      167.0      5.105      24.65
      167.0      5.108      21.67
      167.0      5.116      19.43
      167.0      5.122      20.92
      167.0      5.124      25.69
      167.0      5.130      23.46
      167.0      5.134      24.65
      167.0      5.141      23.75
      167.0      5.144      25.25
ENDDATA            774
ENDSUBENT          787
SUBENT        D6019003   20100623   20110323   20110307       D074
BIB                  3          8
REACTION  1(12-MG-26(A,0),,EN)
          2(12-MG-26(A,EL),,WID)
          3(12-MG-26(A,N),,WID)
          4(12-MG-26(A,0),,J)
          5(12-MG-26(A,0),,PTY)
STATUS     (TABLE) Table I of J,PR/C,13,915,1976
HISTORY    (20100623A) SD: at lines REACTION and STATUS the
               opening  parenthesis were moved to column 12
ENDBIB               8
NOCOMMON             0          0
DATA                 5         12
DATA      1DATA      2DATA      3DATA      4DATA      5
MEV        MEV        MEV        NO-DIM     NO-DIM
  4.235       5.         12.       0.         1.
  4.300      12.         8.        0.         1.
  4.450       6.        24.        0.         1.
  4.555      30.         5.        0.         1.
  4.590       1.8        8.2       2.         1.
  4.645      12.        28.        1.        -1.
  4.695      15.        30.        3.        -1.
  4.900      40.        20.        0.         1.
  4.925       3.        17.        3.        -1.
  4.990       4.        11.        2.         1.
  5.030      20.        10.        0.         1.
  5.100       4.        45.        4.         1.
ENDDATA             14
ENDSUBENT           27
ENDENTRY             3
