ENTRY            D6095   20161003   20161212   20161118       D106
SUBENT        D6095001   20161003   20161212   20161118       D106
BIB                 10         29
TITLE      Fluctuations in the integrated cross section of the
            reaction 45Sc(p,n)45Ti
AUTHOR     (K.V.K.Iyengar, S.K.Gupta, K.K.Sekharan, M.K.Mehta,
            A.S.Divatia)
INSTITUTE  (3INDTAT,3INDTRM)
REFERENCE  (J,NP/A,96,521,1967)
FACILITY   (VDG,3INDTRM) Measured by 5 keV step
SAMPLE     A thin target of chemically pure scandium metal
            evaporated in vacuum onto thick aluminium backing
DETECTOR   (D4PI,BF3)
METHOD     An excitation function of the gamma rays from
            27Al(p,g)28Si was first obtained in the region of the
            resonances at 1.38 MeV by bombarding a thick
            aluminium blank with protons by varying the energy in
            steps of 2.5 keV.
           Then an excitation function of the gamma rays from the
            same reaction was again obtained in a similar
            manner in the same energy region by bombarding the Sc
            target onto thick aluminium backing.
REL-REF    (N,,S.Kailas+,J,PRM,7,6,1976) Derived thermonuclear
            reaction rates given
HISTORY    (20100908C) Compiled by B.Jyrwa, Physics Department,
            North Eastern Hill University, Shillong & Prajesh
            Prajapati, RPDD, BARC, Mumbai India
           (20110308A) Re-compiled by Reetuparna Ghosh, B.Jyrwa,
            Physics  Department, NEHU, Shillong, Meghalaya, and
            Paresh Prajapati, RDPP, BARC, Mumbai India
           (20110816U) On. BIB updated (formal correction)
           (20160930U) VS. REL-REF added.
ENDBIB              29
NOCOMMON             0          0
ENDSUBENT           32
SUBENT        D6095002   20110816   20111102   20111018       D079
BIB                  4          6
REACTION   (21-SC-45(P,N)22-TI-45,,SIG)
ERR-ANALYS (DATA-ERR) The absolute errors on the measured cross
            section is 25%. The errors due to counting statistics
            are smaller than the size of the points.
STATUS     (CURVE) Fig.1 of Nucl.Phys.A 96(1967)521
HISTORY    (20110816A) On. Re-digitized
ENDBIB               6
NOCOMMON             0          0
DATA                 3        468
EN         DATA       DATA-ERR
MEV        MB         MB
 2.9151       3.73
 2.9205       7.15
 2.9259       6.93
 2.9315       8.31
 2.9345      10.78
 2.9422       7.79
 2.9468       9.49
 2.9530       8.43
 2.9576       8.00
 2.9615      10.56
 2.9663      28.07
 2.9717      21.88
 2.9755      20.17
 2.9817      22.31
 2.9879      21.24
 2.9918      22.95
 2.9957      25.51
 3.0011      24.44
 3.0057      17.40
 3.0111      17.61
 3.0165      20.39
 3.0212      27.00
 3.0251      25.08
 3.0320      21.88
 3.0366      21.45
 3.0382      22.95
 3.0421      23.16
 3.0467      23.59
 3.0498      20.60
 3.0560      22.52
 3.0614      28.50
 3.0646      31.27
 3.0700      28.50
 3.0761      26.15
 3.0815      25.51
 3.0846      28.07
 3.0893      30.63
 3.0967      30.59
 3.1009      28.50
 3.1064      34.48
 3.1094      33.20
 3.1140      28.93
 3.1202      28.50
 3.1241      25.73
 3.1287      24.23
 3.1349      28.93
 3.1396      33.20
 3.1450      34.05
 3.1504      29.78
 3.1558      32.98
 3.1621      38.75
 3.1636      35.12
 3.1690      34.48
 3.1736      33.63
 3.1814      33.63
 3.1853      39.18
 3.1908      56.04
 3.1939      43.39
 3.2000      43.66
 3.2046      40.46
 3.2100      39.60
 3.2146      34.69
 3.2186      43.87
 3.2248      44.73
 3.2302      47.72
 3.2333      44.94
 3.2402      42.38
 3.2449      48.15
 3.2495      40.46
 3.2558      52.53
 3.2596      46.65
 3.2642      39.61
 3.2711      40.46
 3.2742      38.11
 3.2796      40.46
 3.2851      41.53
 3.2890      45.37
 3.2945      54.98
 3.2999      61.17
 3.3053      55.19
 3.3107      50.71
 3.3161      48.79
 3.3207      46.44
 3.3238      55.41
 3.3293      54.55
 3.3332      69.07
 3.3394      69.50
 3.3441      66.72
 3.3494      62.24
 3.3548      51.78
 3.3603      62.24
 3.3649      60.53
 3.3695      58.82
 3.3733      50.92
 3.3787      49.64
 3.3850      59.68
 3.3927      61.39
 3.3942      51.35      2.14
 3.4013      68.65
 3.4051      56.05
 3.4097      53.91
 3.4159      52.84
 3.4189      48.58
 3.4212      47.94
 3.4259      48.58
 3.4313      53.91
 3.4344      46.87
 3.4383      49.22
 3.4423      49.49
 3.4460      49.64
 3.4514      47.72
 3.4547      69.71
 3.4617      74.62
 3.4640      71.21
 3.4700      58.19
 3.4738      46.66
 3.4800      47.30
 3.4855      53.92
 3.4893      54.34
 3.4940      53.92
 3.5009      51.14
 3.5056      57.55
 3.5096      73.99
 3.5141      55.62
 3.5203      55.41
 3.5250      65.87
 3.5304      64.59
 3.5366      66.09
 3.5397      63.52
 3.5451      58.83
 3.5505      51.93
 3.5543      57.33
 3.5598      58.40
 3.5659      59.68
 3.5691      67.15
 3.5753      62.88
 3.5790      49.65
 3.5867      48.79
 3.5891      55.20
 3.5938      63.53      2.35
 3.5993      72.07
 3.6054      64.17
 3.6148      73.99
 3.6193      63.95
 3.6248      65.66
 3.6286      59.04
 3.6340      56.48
 3.6386      58.40
 3.6440      57.76
 3.6479      55.84
 3.6526      64.59
 3.6595      60.11
 3.6610      50.72
 3.6689      68.01
 3.6758      68.22
 3.6781      63.74
 3.6820      66.94
 3.6882      69.93
 3.6943      57.12
 3.6990      67.16
 3.7029      63.31
 3.7090      62.89
 3.7137      63.53
 3.7199      60.54
 3.7238      71.21
 3.7262      74.63
 3.7331      72.92
 3.7363      78.47
 3.7424      71.22
 3.7479      79.54
 3.7524      72.28
 3.7587      81.68
 3.7648      66.09
 3.7680      83.17
 3.7727      87.01
 3.7781      82.96
 3.7818      68.23
 3.7888      78.48
 3.7928      93.42
 3.7975      96.20
 3.8035      79.97
 3.8066      74.42
 3.8120      68.44
 3.8175      80.40
 3.8206      89.15
 3.8268      81.47
 3.8314      83.81
 3.8368      79.33
 3.8422      74.85      2.35
 3.8500      81.25
 3.8530      73.35
 3.8583      67.16
 3.8622      62.68
 3.8677      71.86
 3.8723      76.34
 3.8793      76.98
 3.8855      74.85
 3.8940      81.04      1.92
 3.8994      74.85
 3.9040      68.23
 3.9072      81.25
 3.9134      78.48
 3.9188      87.45
 3.9242      82.75
 3.9296      74.21
 3.9341      62.25
 3.9388      69.30
 3.9420      84.88
 3.9466      78.48
 3.9525      76.62
 3.9582      81.25
 3.9629      88.09
 3.9691      86.17
 3.9745      86.59
 3.9799      82.54
 3.9853      82.75
 3.9893      93.64
 3.9924      94.90
 3.9947      96.41      2.56
 3.9993      89.16
 4.0032      92.78
 4.0093      87.87
 4.0140      93.21
 4.0194      90.22
 4.0224      77.84
 4.0297      75.70
 4.0325      85.95
 4.0372      89.37
 4.0426      90.22
 4.0488      96.20
 4.0550      92.36
 4.0596      88.52
 4.0658      91.51
 4.0690     102.39
 4.0745     115.63
 4.0791     110.93
 4.0845     103.89
 4.0882      87.88
 4.0928      84.67      2.35
 4.1006      84.67
 4.1037      86.81
 4.1060      90.44
 4.1099      90.87
 4.1145      90.65
 4.1191      81.04
 4.1237      74.21
 4.1299      79.34
 4.1361      81.05
 4.1392      83.39
 4.1447      85.96
 4.1485      89.16
 4.1539      85.96
 4.1594      90.65
 4.1656      94.07
 4.1695      91.93
 4.1740      83.82
 4.1787      89.16
 4.1833      85.96
 4.1887      83.93
 4.1942      97.06
 4.1981      93.43
 4.2043      92.36
 4.2112      93.43
 4.2136     104.75
 4.2183     106.67
 4.2253     109.44
 4.2307     108.80
 4.2330     105.60
 4.2384      99.84
 4.2414      98.34
 4.2476      98.55
 4.2523      99.20
 4.2569     100.69
 4.2640     104.96
 4.2686     114.57
 4.2725     110.30
 4.2794     111.15
 4.2824     100.26
 4.2903     110.94
 4.2910     106.88
 4.2964     109.87
 4.3026     107.74
 4.3097     125.24
 4.3112     114.14
 4.3189     113.29
 4.3243     109.66
 4.3274     112.43
 4.3313     117.99
 4.3380     111.66
 4.3406     119.91
 4.3453     121.40
 4.3522     122.04
 4.3553     120.55
 4.3615     122.26
 4.3701     134.64
 4.3723     122.68
 4.3784     110.30
 4.3800     117.13
 4.3862     117.77
 4.3924     117.99
 4.3978     118.20
 4.4003     133.36
 4.4063     120.12
 4.4110     121.62
 4.4140     115.21
 4.4194     113.50
 4.4257     121.40
 4.4288     127.81
 4.4350     128.66
 4.4397     136.14      2.78
 4.4460     141.26
 4.4498     133.15
 4.4552     134.21
 4.4591     135.92
 4.4630     142.11
 4.4685     149.59
 4.4725     166.24
 4.4778     155.35
 4.4824     152.36
 4.4878     151.08      6.83
 4.4925     152.58
 4.4978     146.38
 4.5040     146.81
 4.5094     144.89
 4.5125     137.85
 4.5171     134.64
 4.5233     136.56
 4.5281     159.20
 4.5321     173.93
 4.5366     161.97      6.83
 4.5428     162.40
 4.5467     167.52
 4.5529     165.39
 4.5569     179.69
 4.5639     178.84
 4.5669     172.22
 4.5730     166.24
 4.5769     172.01
 4.5839     169.23
 4.5879     184.39
 4.5917     175.42
 4.5994     175.21
 4.6032     165.39
 4.6062     160.48
 4.6133     165.90
 4.6187     169.87
 4.6234     182.90
 4.6287     162.61
 4.6341     163.68
 4.6395     166.03      2.13
 4.6420     174.43
 4.6466     178.20
 4.6536     186.74
 4.6574     175.00
 4.6620     170.30
 4.6698     178.41
 4.6728     169.23
 4.6790     168.17
 4.6829     175.64
 4.6876     183.33
 4.6946     180.55
 4.7002     175.08
 4.7008     190.80
 4.7078     189.94
 4.7132     192.08
 4.7194     194.00
 4.7217     191.87
 4.7294     188.45
 4.7316     175.00
 4.7385     163.68      3.84
 4.7425     176.07
 4.7479     172.22
 4.7519     188.24
 4.7581     191.87
 4.7628     204.68
 4.7667     199.34
 4.7704     188.02
 4.7759     190.37
 4.7821     196.99
 4.7866     184.39      2.35
 4.7929     188.45
 4.7944     192.94
 4.8006     194.00
 4.8076     195.71
 4.8130     188.24
 4.8168     184.40
 4.8215     187.17
 4.8276     189.67
 4.8346     186.96
 4.8384     180.34
 4.8446     178.20
 4.8555     186.10
 4.8596     189.06
 4.8662     186.62
 4.8690     196.72
 4.8704     214.50
 4.8804     201.48
 4.8837     207.71     17.96
 4.8910     203.50
 4.8922     189.94
 4.8987     177.99
 4.9035     195.71
 4.9097     197.21
 4.9144     198.49
 4.9184     217.49
 4.9230     210.45
 4.9298     200.84
 4.9330     203.83      4.91
 4.9384     200.84
 4.9462     211.30
 4.9501     214.29
 4.9540     217.70
 4.9580     240.76
 4.9634     230.09
 4.9694     213.86
 4.9726     220.48
 4.9757     229.02
 4.9819     228.81     10.68
 4.9880     216.85
 4.9933     200.63
 4.9972     207.88
 5.0034     214.08
 5.0072     200.63
 5.0134     204.04
 5.0196     209.17
 5.0211     204.26
 5.0259     214.29
 5.0319     201.05     16.44
 5.0389     198.71
 5.0428     211.09
 5.0497     194.01
 5.0513     200.41
 5.0590     198.49
 5.0615     220.27
 5.0675     195.93
 5.0714     206.39
 5.0771     194.24
 5.0830     204.47
 5.0878     219.42
 5.0935     196.17      6.42
 5.0999     193.16
 5.1045     188.03
 5.1093     189.39
 5.1123     192.09
 5.1199     177.57
 5.1269     178.64
 5.1272     220.27
 5.1326     213.65
 5.1394     197.21     13.66
 5.1443     182.06
 5.1485     172.66
 5.1549     201.06
 5.1617     183.98
 5.1677     201.56
 5.1709     169.67
 5.1749     184.62
 5.1811     191.66
 5.1857     190.81
 5.1897     198.07
 5.1935     194.44
 5.2043     187.61
 5.2105     194.87
 5.2160     196.79
 5.2206     198.92
 5.2230     205.97
 5.2269     210.67
 5.2338     196.99
 5.2400     204.26
ENDDATA            470
ENDSUBENT          481
ENDENTRY             2
