ENTRY            D6095   20100116   20110323   20110307       D074
SUBENT        D6095001   20100116   20110323   20110307       D074
BIB                  9         25
TITLE      Fluctuations in the integrated cross  section of the
           reaction 45Sc(p,n)45Ti
INSTITUTE  (3INDTRM)
AUTHOR     (K.V.K Iyengar,S.K.Gupta,K.K.Sekharan,M.K.Mehta,
            A.S.Divatia)
REFERENCE  (J,NP/A,96,521,1967)
FACILITY   (VDG) Protons from Van de Graaff Accelerator at Trombay
SAMPLE     A thin target of chemically pure scandium metal
           evaporated in vacuum on to thick aluminium backing
           was bombarded by protons from the 5.5 MeV Van de
           Graaff accelerator at Trombay. An excitation function
            of the gamma rays from the 27 Al(p,gamma)28 Si was
           first  obtained in the region of the resonances at
           1.38 MeV  by bombarding a thick aluminium blank with
           protons by  varying the energy in steps of 2.5 keV
           Then an  excitation function of the gamma rays from
           the same  reaction was again obtained in a similar
           manner in  the same energy region by bombarding the
           Sc target on  thick aluminium backing
DETECTOR   (BF3)
HISTORY    (20100908C)Compiled by B.Jyrwa, Physics Department,
           North Eastern Hill  University , Shillong & Prajesh
           Prajapati, RPDD, BARC, Mumbai India
ERR-ANALYS (DATA-ERR)The relative errors on the measured cross
           sections is 25%.
ENDBIB              25
COMMON               1          3
DATA-ERR
PER-CENT
  25.
ENDCOMMON            3
ENDSUBENT           32
SUBENT        D6095002   20100116   20110323   20110307       D074
BIB                  3          4
REACTION   (21-SC-45(P,N)22-TI-45,,SIG)
ERR-ANALYS (ERR-DIG) digitizing error
           (EN-ERR-DIG) digitizing error
STATUS     (CURVE)
ENDBIB               4
COMMON               2          3
EN-ERR-DIG ERR-DIG
MEV        MB
  0.0025      0.25
ENDCOMMON            3
DATA                 2       1074
EN         DATA
MEV        MB
     2.9148       4.57
     2.9209       7.43
      2.927       7.44
     2.9331       8.59
     2.9351       10.3
     2.9393        8.6
     2.9434       8.04
     2.9454       9.75
     2.9495       9.19
     2.9536       8.63
     2.9598       8.08
     2.9598      10.35
     2.9655       25.7
     2.9656      21.73
     2.9675      27.41
     2.9696      25.15
     2.9717      22.31
     2.9738      20.61
     2.9779      20.05
     2.9799      22.33
      2.984      22.34
     2.9882      21.21
     2.9902      22.92
     2.9942      24.63
     2.9983      25.21
     3.0024      24.08
     3.0046      20.68
     3.0047      17.27
     3.0108      17.85
     3.0169      19.57
     3.0189      21.85
     3.0208      26.39
     3.0249      25.84
      3.027       24.7
     3.0312      22.44
     3.0353      21.88
     3.0394      23.03
     3.0435       23.6
     3.0476      23.04
     3.0497      21.34
     3.0538      20.22
     3.0558      21.93
     3.0618      27.62
     3.0638      28.76
     3.0658      30.47
       3.07      28.78
     3.0742      26.51
     3.0803      25.96
     3.0844       25.4
     3.0844      28.24
     3.0864      29.38
     3.0884      30.52
     3.0945      30.53
     3.0986      30.54
     3.1007      29.41
     3.1027      31.12
     3.1028      28.28
     3.1047      32.83
     3.1067      34.54
     3.1088      33.41
      3.113      32.28
      3.113      29.44
     3.1172      28.88
     3.1213      28.32
     3.1254      26.06
     3.1275      24.92
     3.1316      24.36
     3.1356      28.35
     3.1376      30.06
     3.1376       32.9
     3.1416      33.48
     3.1457      34.05
     3.1499      31.79
      3.152      30.09
     3.1541      28.96
      3.156      32.37
      3.162      38.07
     3.1662      35.24
     3.1703      34.11
     3.1745      33.55
     3.1806      32.99
     3.1846      38.12
     3.1865      40.96
     3.1883      50.62
     3.1885      46.08
     3.1903      54.61
     3.1923      55.75
     3.1945      50.64
     3.1947      43.25
     3.2008      43.27
      3.203        41.
     3.2071      39.87
     3.2112      39.31
     3.2134      35.34
     3.2172       43.3
     3.2174      39.32
     3.2175      34.78
     3.2234      43.88
     3.2274       47.3
     3.2315      46.74
     3.2336      45.04
     3.2378      42.78
     3.2419      42.22
     3.2438      46.77
     3.2439       44.5
     3.2458      47.91
     3.2479      45.64
      3.248      43.37
     3.2501       41.1
     3.2519      50.76
     3.2521      42.24
      3.256      51.91
     3.2602      48.51
     3.2602      46.24
     3.2645        40.
     3.2707      40.01
     3.2728      37.74
     3.2768      40.02
      3.285      41.18
      3.289       44.6
     3.2928      54.26
     3.2968      58.82
     3.2988      60.53
     3.3051      55.43
     3.3072      54.29
     3.3114      50.89
     3.3135      48.63
     3.3177      46.36
     3.3216      52.05
     3.3218       45.8
     3.3236      54.33
     3.3297      54.34
     3.3314      67.98
     3.3316      60.03
     3.3375      68.56
     3.3438      66.31
      3.348      61.77
     3.3523      54.96
     3.3545      50.99
     3.3563      58.95
     3.3583      61.22
     3.3624       60.1
     3.3665      58.97
     3.3707      57.84
     3.3708       53.3
     3.3729      51.03
      3.377       49.9
     3.3791      49.34
     3.3829      59.01
     3.3831      52.76
      3.387      60.15
     3.3911      60.73
     3.3912      55.61
     3.3914      51.64
     3.3935      49.94
     3.3954      55.06
     3.3972      62.45
     3.3975      52.22
     3.3991      67.56
     3.4033       65.3
     3.4034      59.62
     3.4035      55.64
     3.4056      54.51
     3.4098      53.38
     3.4139      52.26
      3.416      51.12
     3.4161      48.28
     3.4202      47.72
     3.4243       48.3
     3.4262      52.28
     3.4303      52.86
     3.4324      49.45
     3.4346      47.19
     3.4366      48.33
     3.4427      48.91
     3.4489      47.22
     3.4525      65.41
     3.4527      59.16
     3.4529      52.34
     3.4544      68.82
     3.4544      70.52
     3.4564      73.37
     3.4625      73.38
     3.4626      70.54
     3.4647      67.14
     3.4669      64.87
      3.467      60.89
     3.4671      58.05
     3.4671      55.21
     3.4693      50.67
     3.4694       48.4
     3.4715      46.13
     3.4777      46.15
     3.4816      52.97
     3.4856      53.55
     3.4918      53.56
     3.4959        53.
     3.5001      51.31
     3.5019      58.13
      3.502      56.43
     3.5021      53.58
     3.5038      62.68
     3.5057      68.36
     3.5058      66.09
     3.5077      72.91
     3.5098      69.51
     3.5121      60.42
     3.5143      56.45
     3.5184      54.76
     3.5223      63.86
     3.5224      61.02
     3.5225       55.9
     3.5243        65.
     3.5284      63.87
     3.5325      64.45
     3.5366      65.59
     3.5366      63.32
     3.5387      61.62
     3.5409      58.21
      3.543      55.95
     3.5472      53.12
     3.5493      51.98
     3.5512      54.83
     3.5532      56.54
     3.5573      57.11
     3.5614      58.26
     3.5634       59.4
     3.5673      66.23
     3.5674      62.25
     3.5714      65.67
     3.5736      62.26
     3.5737      57.72
     3.5738      54.31
     3.5759      52.61
      3.576      49.77
     3.5781      48.64
     3.5842      48.65
     3.5861      54.34
     3.5881      55.48
     3.5881      57.75
     3.5882      52.64
      3.592      64.01
     3.5921       60.6
     3.5921       62.3
     3.5939      69.13
      3.594      66.85
     3.5959      70.83
      3.598      69.14
     3.6001       66.3
     3.6023      64.03
     3.6063      67.45
     3.6064       62.9
     3.6102      72.57
     3.6143      73.15
     3.6144      70.31
     3.6145      67.47
     3.6166      64.63
     3.6187      62.93
     3.6228      64.64
     3.6269      62.95
      3.627      61.24
      3.627      58.97
     3.6312      56.14
     3.6353      57.28
     3.6394      57.86
     3.6414      56.73
     3.6456       55.6
     3.6476      57.88
     3.6494      63.57
     3.6495      61.86
     3.6557      60.74
     3.6557      59.03
     3.6559      53.35
      3.656      51.08
     3.6601      48.82
     3.6601      50.52
      3.662      55.64
     3.6637      67.01
     3.6638       65.3
     3.6639      59.05
     3.6678      67.58
     3.6739       67.6
      3.674      65.89
     3.6741      63.62
     3.6782      63.06
     3.6801      66.47
     3.6842      68.19
     3.6862      69.33
     3.6864      63.08
     3.6886      57.97
     3.6907      56.27
     3.6927      57.41
     3.6945      65.37
     3.6946      63.67
     3.6947      60.82
     3.6966      65.94
     3.6987      63.11
     3.7028      61.98
      3.709      61.99
      3.711      63.13
     3.7152       60.3
     3.7191      64.86
     3.7193      59.17
     3.7211       69.4
      3.723      72.82
     3.7231      71.68
      3.725      73.96
     3.7292       73.4
     3.7312      72.27
     3.7332      74.54
     3.7332      76.25
     3.7352      77.39
     3.7374      72.85
     3.7395      71.15
     3.7395      69.44
     3.7415      73.43
     3.7434      77.41
     3.7454      79.12
     3.7476      75.14
     3.7476      72.87
     3.7477      71.17
     3.7517      74.02
     3.7518      71.18
     3.7537      76.29
     3.7556      80.84
     3.7557      78.57
     3.7579      74.03
      3.758      69.49
     3.7581      66.65
     3.7622      65.52
     3.7641      72.34
     3.7642      67.23
     3.7658        82.
      3.766      74.62
     3.7678      85.98
     3.7719      85.99
      3.774      82.59
     3.7761      81.46
     3.7762      78.05
     3.7763      72.93
     3.7765      68.96
     3.7786      67.26
     3.7805       70.1
     3.7844      76.93
     3.7845      74.66
     3.7861      88.86
     3.7862      86.59
     3.7863      82.62
     3.7864      78.64
     3.7881      92.28
     3.7901      93.42
     3.7921      95.13
     3.7942        94.
     3.7963      91.16
     3.7964      88.89
     3.7965      87.18
     3.7965      85.48
     3.7987      82.07
     3.7987      79.23
     3.7988      77.53
     3.8009      74.69
      3.803      73.56
     3.8031      70.15
     3.8072      68.46
     3.8093      67.33
     3.8112      72.44
     3.8131      79.27
     3.8132      74.72
     3.8149      87.79
      3.815      83.81
     3.8151      80.97
      3.819      87.23
     3.8212      83.83
     3.8233      81.56
     3.8233      80.42
     3.8273      82.71
     3.8294      81.57
     3.8295      79.87
     3.8316      78.17
     3.8357      75.91
     3.8379      73.64
     3.8379      71.93
     3.8419      75.35
     3.8419      77.06
     3.8439      78.76
     3.8459      80.47
      3.848      77.07
     3.8481      73.66
     3.8482      71.96
     3.8503      70.26
     3.8524      66.85
     3.8545      65.72
     3.8587      62.32
     3.8607       64.6
     3.8626      70.28
     3.8627      66.31
     3.8645      74.83
     3.8646      71.42
     3.8686      75.41
     3.8747      75.42
     3.8788      74.86
     3.8809      73.73
     3.8829      76.01
     3.8829      78.28
     3.8849      79.99
     3.8889      81.14
      3.891      79.44
     3.8931      77.74
     3.8932      75.46
     3.8932      73.76
     3.8974      70.93
     3.8975      68.09
     3.9012      80.59
     3.9015      70.37
     3.9016      67.53
     3.9034      77.19
     3.9035      73.21
     3.9054       78.9
     3.9095       77.2
     3.9095      80.04
     3.9114      85.73
     3.9115      82.32
     3.9154      86.31
     3.9175      85.18
     3.9176      82.33
     3.9197      80.64
     3.9198      76.66
      3.922      73.25
     3.9241      70.99
     3.9242      68.15
     3.9263      65.31
     3.9264      63.04
     3.9285      61.34
     3.9323      70.44
     3.9324      68.16
     3.9325      64.75
     3.9343      72.14
     3.9361      82.38
     3.9362      77.83
     3.9381      83.52
     3.9423      77.84
     3.9444      76.14
     3.9486      75.58
     3.9505      78.43
     3.9525      80.14
     3.9525      81.84
     3.9544      86.39
     3.9585      86.97
     3.9626      85.27
     3.9688      85.29
     3.9729      84.16
      3.975      81.89
     3.9812      81.34
     3.9829      93.27
      3.983      91.57
     3.9831      88.16
     3.9832      84.18
     3.9869      97.26
      3.987      94.99
     3.9891      93.29
     3.9891      91.01
     3.9913      88.75
     3.9953      91.03
     3.9954      88.19
     3.9994       91.6
     4.0015      89.34
     4.0015      87.63
     4.0036       86.5
     4.0056      88.78
     4.0056      91.05
     4.0076      92.19
     4.0117      89.93
     4.0138      88.23
      4.014      84.25
      4.014      81.41
     4.0141      79.14
     4.0162      77.44
     4.0203      75.74
     4.0245      74.61
     4.0262      85.41
     4.0263      81.44
     4.0263      83.71
     4.0264      79.16
     4.0265      75.76
     4.0282      87.69
     4.0323      88.27
     4.0364      89.41
     4.0384      88.28
     4.0404      90.56
     4.0404      92.26
     4.0423      95.68
     4.0424      93.97
     4.0465      92.84
     4.0486      91.14
     4.0507      90.01
     4.0508      88.31
     4.0549      87.75
     4.0569      90.03
     4.0588       92.3
     4.0589      91.17
     4.0608      94.01
     4.0608      96.85
     4.0625     108.79
     4.0626     105.38
     4.0627     100.83
     4.0627     101.97
     4.0645      110.5
     4.0664     113.91
     4.0726     112.22
     4.0727     110.51
     4.0748     108.81
      4.077     102.57
      4.079     104.85
     4.0793      94.62
     4.0811     101.44
     4.0812      98.03
     4.0814      92.92
     4.0815      88.38
     4.0816       86.1
     4.0837      84.97
     4.0858      83.27
     4.0858      81.57
     4.0919      83.85
      4.096        85.
      4.098      86.14
     4.0999      89.55
      4.104      90.13
     4.1082      89.57
     4.1103       85.6
     4.1104      82.76
     4.1125      80.49
     4.1125      79.35
     4.1147      76.52
     4.1147      74.24
     4.1168      73.11
     4.1228      78.24
     4.1229      75.97
     4.1269      79.38
     4.1289      80.53
     4.1309      82.23
     4.1329      83.37
      4.137      84.52
      4.139      87.37
     4.1431      87.94
     4.1452      85.11
     4.1493      84.55
     4.1512       89.1
     4.1533      90.24
     4.1573      91.95
     4.1593      93.09
     4.1614      90.82
     4.1636      87.99
     4.1657      85.15
     4.1658      82.88
     4.1698      84.02
     4.1698       86.3
     4.1718      88.01
     4.1759      86.31
      4.178      84.61
     4.1801      82.91
     4.1821      84.05
     4.1839      95.42
      4.184      92.58
     4.1841       86.9
       4.19        96.
     4.1901      92.02
     4.1921      93.73
     4.1963      91.47
     4.2024      92.05
     4.2044      94.33
     4.2062     102.28
     4.2062     103.42
     4.2063      99.44
     4.2082     105.13
     4.2123     105.71
     4.2163     107.99
     4.2204     107.43
     4.2246     106.87
     4.2267     105.17
     4.2267     103.47
     4.2288      101.2
     4.2289      98.93
      4.233       97.8
     4.2392      97.24
     4.2433      97.82
     4.2494      98.97
     4.2554      104.1
     4.2555     102.39
     4.2574     106.94
     4.2593     111.49
     4.2593      113.2
     4.2594     109.22
     4.2635     109.23
     4.2676     109.24
     4.2717     109.81
     4.2719     100.16
     4.2738     106.41
     4.2739       103.
     4.2761      99.03
     4.2778     109.83
     4.2781     100.74
     4.2801     103.01
     4.2819     109.27
      4.282     105.86
      4.282     107.56
     4.2881     108.71
     4.2902     107.58
     4.2943     107.02
     4.2963      109.3
     4.2981     116.12
     4.2981     118.96
     4.2983     111.01
        4.3     122.38
     4.3041     124.09
     4.3043     116.13
     4.3044     113.29
     4.3085     112.74
     4.3106      111.6
     4.3147     109.34
     4.3187     112.76
     4.3188     111.05
     4.3189     108.21
     4.3228     116.18
     4.3248     117.32
     4.3269     113.91
      4.329     111.64
     4.3291     109.94
      4.331     113.35
     4.3329     118.47
      4.333     115.63
     4.3349     120.18
     4.3411     120.76
     4.3452     119.63
     4.3493     120.78
     4.3494     118.51
     4.3534     121.36
     4.3553     124.77
     4.3573     128.75
     4.3592      131.6
     4.3612      133.3
     4.3636     123.65
     4.3636     121.95
     4.3657     120.25
     4.3679     115.71
     4.3679       114.
      4.368     111.16
     4.3681     109.46
      4.374     116.29
     4.3742     109.47
     4.3802     116.87
     4.3863     116.88
      4.388     130.52
     4.3901     126.55
     4.3904     117.46
      4.392     132.24
     4.3962      129.4
     4.3963     126.56
     4.3964     124.29
     4.3964     121.45
     4.3965     119.18
     4.4006     120.32
     4.4027     119.19
     4.4048     116.36
     4.4049     114.08
      4.409     112.96
     4.4111     111.82
      4.415     116.95
      4.415     119.79
      4.419      121.5
     4.4209     126.05
      4.425     127.19
      4.429     131.18
     4.4309     134.59
     4.4309      136.3
      4.431     132.89
     4.4329     137.44
      4.437     139.15
     4.4391     136.32
     4.4392      131.2
     4.4433     131.78
     4.4453     132.92
     4.4494     134.63
     4.4514     136.91
     4.4554     140.33
     4.4555     137.49
     4.4574     142.61
     4.4592     148.86
     4.4611     155.68
     4.4612     150.57
     4.4612     153.41
     4.4613     147.73
     4.4629     164.21
      4.463     160.23
      4.463     160.23
      4.465     161.94
     4.4651     157.96
      4.467     163.65
     4.4693     154.56
     4.4715     151.73
     4.4756      150.6
     4.4795     156.29
     4.4796     152.88
     4.4797     150.61
     4.4799     143.22
     4.4838     151.75
     4.4859     150.05
      4.486     144.94
     4.4901     147.22
     4.4922     145.52
     4.4983     145.54
     4.5004     143.84
     4.5026      139.3
     4.5027     137.02
     4.5068     134.76
     4.5089     133.63
      4.513     134.77
      4.515     135.91
     4.5168     144.44
     4.5169     140.46
     4.5185     158.08
     4.5188     147.29
     4.5202     168.31
     4.5203     165.47
     4.5204     160.92
     4.5206     155.24
     4.5222     170.02
     4.5222     172.29
     4.5262     172.87
     4.5263     169.46
     4.5266     160.94
     4.5284     167.76
     4.5285     166.06
     4.5285     164.35
     4.5286     162.65
     4.5287      158.1
     4.5288     154.13
     4.5327     161.52
     4.5367     166.07
     4.5368     161.53
     4.5408     165.51
     4.5409     163.81
     4.5445     178.59
     4.5449     164.39
     4.5469      167.8
     4.5488     172.92
     4.5507      178.6
     4.5548     178.04
     4.5569     176.91
     4.5571     171.23
     4.5591      170.1
     4.5613      166.7
     4.5634       165.
     4.5673     170.12
     4.5694     171.26
     4.5735     168.43
     4.5752     182.63
     4.5753     179.23
     4.5754     174.11
     4.5756     169.57
     4.5793     182.64
     4.5836     174.13
     4.5898     174.14
     4.5919     170.74
     4.5941      167.9
     4.5942      164.5
     4.5963     161.66
     4.5964     159.39
     4.6004      161.1
     4.6024     163.95
     4.6044     165.09
     4.6084     167.37
     4.6102     176.46
     4.6102     178.17
     4.6103     173.05
     4.6105     168.51
     4.6121     181.58
     4.6183     181.02
     4.6186     169.66
     4.6187     165.69
     4.6188     162.84
     4.6189     161.14
     4.6205     177.62
      4.625     162.29
      4.629     165.71
     4.6291       164.
      4.631     166.85
     4.6329     172.53
     4.6349     173.68
     4.6351     169.13
     4.6369     175.95
     4.6369     177.66
     4.6409     181.07
     4.6428     185.06
     4.6429     183.35
      4.647     181.66
     4.6471     178.25
     4.6472     174.27
     4.6493     172.57
     4.6514     170.87
     4.6515     169.17
     4.6574     176.57
     4.6575     173.72
     4.6577     168.04
     4.6594     177.71
     4.6615     176.57
     4.6616     172.03
     4.6638     168.06
     4.6679     166.93
     4.6718     173.76
     4.6719     170.92
      4.672     168.07
     4.6739      174.9
     4.6757     181.72
     4.6759     177.17
     4.6799     180.59
     4.6819     179.46
      4.684     178.33
     4.6861     176.06
     4.6882     174.36
     4.6899     189.14
      4.692      184.6
     4.6923     175.51
      4.696     188.58
     4.7001     189.16
     4.7021     190.87
     4.7062     192.01
     4.7103     192.59
     4.7103     190.32
     4.7145     189.76
     4.7166     187.49
     4.7187     186.36
     4.7231      173.3
     4.7254     165.92
     4.7255     163.65
     4.7276     161.38
     4.7276     159.11
     4.7295     164.79
     4.7315     168.77
     4.7334     173.89
     4.7375      172.2
     4.7393     183.56
     4.7396      170.5
     4.7412     186.41
     4.7452     189.83
     4.7472     190.97
      4.749      202.9
     4.7491     196.65
     4.7551     202.91
     4.7552     198.37
     4.7553     197.23
     4.7576     186.44
     4.7596     190.42
     4.7617     187.59
     4.7658     188.73
     4.7697     193.86
     4.7717     195.56
     4.7742      182.5
     4.7761     184.78
     4.7763      180.8
     4.7803     183.65
     4.7822     187.07
     4.7841     191.62
     4.7842     189.34
     4.7882     192.19
     4.7923     193.34
     4.7964     193.91
     4.7984     194.49
     4.8007     187.67
     4.8007     185.97
     4.8028      183.7
     4.8049     182.57
      4.809     184.28
      4.811     185.42
      4.813      187.7
     4.8171     188.28
     4.8233     186.59
     4.8233     184.88
     4.8234     183.18
     4.8255     179.21
     4.8297     178.08
     4.8338     176.95
     4.8359     175.82
       4.84     174.69
     4.8419     179.81
     4.8438     184.36
     4.8458     186.64
     4.8499     187.78
      4.854     186.65
     4.8561     185.52
     4.8577       202.
     4.8579     195.19
     4.8595     211.67
     4.8598     199.17
     4.8615     212.81
     4.8657     208.27
      4.868     201.46
     4.8701     199.76
     4.8719     205.44
      4.872     202.03
     4.8722     195.79
     4.8742     197.49
     4.8745     188.97
      4.876     206.02
     4.8782     202.62
     4.8803     201.48
     4.8806     188.42
      4.885     181.04
     4.8851     177.06
     4.8888       189.
     4.8888     191.28
     4.8892     176.51
     4.8907     193.55
     4.8948      194.7
     4.8989     195.84
      4.903     196.99
     4.9045     215.74
     4.9046     211.76
     4.9048     204.38
      4.905     197.56
     4.9086     215.75
     4.9108     209.51
     4.9129     207.81
     4.9151     203.27
     4.9172     201.57
     4.9172     199.86
     4.9211     207.26
     4.9212     203.28
     4.9234     199.87
     4.9275     199.32
     4.9334     206.71
     4.9354     209.56
     4.9374      212.4
     4.9414     214.12
     4.9434     216.39
     4.9448     239.12
     4.9449     235.15
     4.9452     224.35
     4.9489     238.57
     4.9513     228.34
     4.9533     229.48
     4.9536     217.55
     4.9579     212.45
     4.9618     219.28
     4.9636      227.8
     4.9639     218.71
     4.9677     227.24
     4.9739     227.26
      4.974     222.14
     4.9742     215.89
     4.9764     212.49
     4.9783     215.33
     4.9808     199.43
     4.9847     206.26
     4.9849     198.87
     4.9887     210.81
     4.9928     211.96
     4.9929     206.84
     4.9952     200.03
     4.9993      198.9
     5.0013     201.75
     5.0033     203.46
     5.0052     207.44
     5.0093     208.02
     5.0114     205.75
     5.0115     203.48
     5.0133       212.
     5.0134     209.73
     5.0173     213.72
     5.0195     208.61
     5.0196     205.77
     5.0198     200.09
     5.0219     197.82
     5.0277     209.19
     5.0281     197.26
       5.03     202.38
     5.0339     209.21
     5.0361      204.1
     5.0362     198.99
     5.0363     196.71
     5.0364     192.74
     5.0403     198.43
     5.0445     197.87
     5.0481     215.49
     5.0482     209.81
     5.0483     206.97
     5.0486     196.74
       5.05     217.76
     5.0502     212.65
     5.0523     210.95
     5.0528     194.48
     5.0567     200.17
     5.0568     196.19
     5.0586     204.72
     5.0628     203.02
     5.0628     200.75
      5.065     196.21
     5.0651     193.37
     5.0651     192.23
     5.0689     203.03
      5.071      201.9
     5.0726     217.81
     5.0749      209.3
     5.0768     213.85
     5.0788     217.83
     5.0792     202.49
     5.0814     195.68
     5.0816     188.29
     5.0836     193.41
     5.0877     191.71
     5.0898     190.58
      5.092     186.04
      5.096     187.75
      5.098     190.03
     5.1022      187.2
     5.1041     191.75
     5.1043      185.5
     5.1066     176.41
     5.1136      217.9
     5.1141     200.86
     5.1143     192.91
     5.1148       177.
     5.1177     217.91
     5.1199      212.8
      5.122     211.67
     5.1241     208.84
     5.1262     207.14
     5.1263     204.86
     5.1264     202.59
     5.1265     196.34
     5.1286     196.35
     5.1288     190.67
     5.1288     187.83
      5.129     182.71
     5.1311     181.01
     5.1332     179.31
     5.1354      174.2
     5.1375     171.94
     5.1395     173.64
     5.1412     184.44
     5.1429     199.79
      5.143     195.24
     5.1472     191.84
     5.1494     185.03
     5.1495     182.19
     5.1531     198.67
     5.1552     199.81
     5.1576     187.89
     5.1579     177.09
     5.1581       168.
     5.1638     182.79
     5.1678     189.61
     5.1718     190.76
     5.1739     188.49
     5.1758     193.61
     5.1778     195.89
      5.182     193.62
     5.1881     196.48
     5.1924     190.24
     5.1925     186.26
     5.1946     185.13
     5.1964     193.09
     5.2025      194.8
     5.2085     197.66
     5.2086     196.52
     5.2104     203.91
     5.2123     209.03
     5.2124     206.19
     5.2164     209.04
     5.2166     204.49
     5.2208     199.39
     5.2209     195.41
     5.2269     202.24
      5.227      199.4
     5.2289     203.38
ENDDATA           1076
ENDSUBENT         1089
ENDENTRY             2
