ENTRY            20327   19840416              20050926       0000
SUBENT        20327001   19840416              20050926       0000
BIB                 11         17
INSTITUTE  (2JPNJAE)
REFERENCE  (P,EANDC(J)-1,2,6507)
           (W,OHNO,6507)
AUTHOR     (Y.OHNO, T.ASAMI, K.OKAMOTO, K.IDENO)
TITLE      -NEUTRON TOTAL CROSS SECTIONS OF SOME RARE EARTH
            ELEMENT.-
FACILITY   (SPECC)    JAERI CRYSTAL SPECTROMETER,
           (SELVE)    JAERI VELOCITY SELECTOR.
INC-SOURCE (REAC )    JRR-1 (50 KW) AND JRR-2 (10 MW) REACTORS.
SAMPLE     .D-N-O(3)-D(2)-O SOLUTION OF THE OXIDES.
METHOD     .TRANSMISSION.
STATUS     .DATA FROM PRIVATE COMMUNICATION.
HISTORY    (711010C)
           (740723E)
           (840106U) A.P.T. JAPAN CODE CHANGED TO JPN
           (840106E)
ERR-ANALYS .NO FURTHER INFORMATION.
ENDBIB              17
NOCOMMON             0          0
ENDSUBENT           20
SUBENT        20327002   19831128              20050926       0000
BIB                  3          4
REACTION   (62-SM-0(N,TOT),,SIG)
PART-DET   (N    )    NEUTRONS
HISTORY    (711010C)
           (740723E)
ENDBIB               4
NOCOMMON             0          0
DATA                 2         67
EN         DATA
MEV        B
 8.4540E-10 2.0770E+04
 1.0700E-09 1.6030E+04
 1.3210E-09 1.5180E+04
 1.5980E-09 1.5800E+04
 1.9020E-09 1.4180E+04
 2.2320E-09 1.2490E+04
 2.5890E-09 1.1860E+04
 2.9720E-09 1.1080E+04
 3.3820E-09 9.7600E+03
 3.8180E-09 9.5430E+03
 4.2800E-09 9.0240E+03
 4.7680E-09 9.4020E+03
 5.2840E-09 8.3330E+03
 6.3930E-09 8.1290E+03
 7.6090E-09 7.3510E+03
 8.9300E-09 7.2430E+03
 1.0360E-08 6.7460E+03
 1.1890E-08 6.4250E+03
 1.3530E-08 6.3120E+03
 1.5270E-08 5.8020E+03
 1.7120E-08 5.9380E+03
 1.9070E-08 6.0410E+03
 2.1140E-08 5.5900E+03
 2.3300E-08 5.7860E+03
 2.5570E-08 5.6630E+03
 2.7950E-08 5.5090E+03
 3.0440E-08 5.8040E+03
 3.3020E-08 6.1810E+03
 3.5000E-08 6.0210E+03
 4.0010E-08 6.1860E+03
 4.5000E-08 6.7100E+03
 5.0100E-08 7.3910E+03
 5.5010E-08 8.1060E+03
 6.0030E-08 9.0540E+03
 6.5020E-08 1.0050E+04
 6.9990E-08 1.1610E+04
 7.4990E-08 1.2990E+04
 7.8000E-08 1.3750E+04
 7.9940E-08 1.4390E+04
 8.2060E-08 1.5050E+04
 8.4040E-08 1.6700E+04
 8.6100E-08 1.7030E+04
 8.7990E-08 1.7290E+04
 8.9950E-08 1.7670E+04
 9.1970E-08 1.8020E+04
 9.4060E-08 1.8180E+04
 9.8050E-08 1.8070E+04
 1.0020E-07 1.7840E+04
 1.0200E-07 1.7480E+04
 1.0400E-07 1.6970E+04
 1.0600E-07 1.6550E+04
 1.0800E-07 1.5750E+04
 1.1030E-07 1.4340E+04
 1.1500E-07 1.2430E+04
 1.2010E-07 1.0840E+04
 1.3030E-07 7.9420E+03
 1.4000E-07 5.7040E+03
 1.5020E-07 4.1540E+03
 1.5990E-07 3.0260E+03
 1.6990E-07 2.4040E+03
 1.8010E-07 1.8420E+03
 1.8980E-07 1.5310E+03
 2.0020E-07 1.2300E+03
 2.2090E-07 7.5130E+02
 2.3950E-07 6.8740E+02
 2.6050E-07 5.1990E+02
 2.8020E-07 3.7350E+02
ENDDATA             69
ENDSUBENT           78
SUBENT        20327003   19831128              20050926       0000
BIB                  4          8
REACTION   (62-SM-149(N,TOT),,SIG)
PART-DET   (N    )    NEUTRONS
COMMENT    .SEE EANDC(J)-10,1   (EXFOR ENTRY 20328) FOR 2200 M/S
            VALUE
           .SEE J.PHYS.SOC.JAP.,26(1969),225 (EXFOR ENTRY 20331)
            FOR RESONANCE PARAMETERS.
HISTORY    (711010C)
           (740723E)
ENDBIB               8
NOCOMMON             0          0
DATA                 2         80
EN         DATA
MEV        B
 6.4730E-10 1.3990E+05
 8.4540E-10 1.3880E+05
 1.0700E-09 1.1010E+05
 1.3210E-09 1.0630E+05
 1.5980E-09 9.5800E+04
 1.9020E-09 9.6180E+04
 2.2320E-09 8.4130E+04
 2.5890E-09 7.7830E+04
 2.9720E-09 7.0430E+04
 3.3820E-09 6.6770E+04
 3.8180E-09 6.5440E+04
 4.2800E-09 6.0820E+04
 4.7680E-09 6.0750E+04
 5.2840E-09 5.4990E+04
 6.3930E-09 5.1590E+04
 7.6090E-09 4.9650E+04
 8.9300E-09 4.7160E+04
 1.0360E-08 4.3500E+04
 1.1890E-08 4.3970E+04
 1.3530E-08 4.1600E+04
 1.5270E-08 3.8330E+04
 1.7120E-08 4.0230E+04
 1.9070E-08 3.7000E+04
 2.1140E-08 3.8070E+04
 2.3300E-08 3.6300E+04
 2.5570E-08 3.8380E+04
 2.7950E-08 3.7670E+04
 3.0440E-08 3.8840E+04
 3.3020E-08 3.9750E+04
 3.5000E-08 4.1550E+04
 4.0010E-08 4.2740E+04
 4.5000E-08 4.6610E+04
 5.0100E-08 5.3670E+04
 5.5010E-08 5.7410E+04
 6.0030E-08 6.4040E+04
 6.4980E-08 7.4660E+04
 6.9990E-08 8.4710E+04
 7.3530E-08 9.4300E+04
 7.4430E-08 9.4170E+04
 7.5370E-08 9.6470E+04
 7.6330E-08 9.8400E+04
 7.7310E-08 1.0050E+05
 7.8300E-08 1.0520E+05
 7.9320E-08 1.0620E+05
 8.0360E-08 1.1030E+05
 8.1420E-08 1.1000E+05
 8.2490E-08 1.1220E+05
 8.3600E-08 1.1470E+05
 8.4720E-08 1.1770E+05
 8.5870E-08 1.2000E+05
 8.7040E-08 1.2100E+05
 8.8230E-08 1.2280E+05
 8.9450E-08 1.2480E+05
 9.0700E-08 1.2640E+05
 9.1970E-08 1.2580E+05
 9.3270E-08 1.2800E+05
 9.4600E-08 1.3000E+05
 9.5590E-08 1.2670E+05
 9.7340E-08 1.2830E+05
 9.8760E-08 1.2880E+05
 1.0020E-07 1.2520E+05
 1.0170E-07 1.2380E+05
 1.0320E-07 1.2350E+05
 1.0480E-07 1.1920E+05
 1.0630E-07 1.1620E+05
 1.0800E-07 1.1150E+05
 1.0960E-07 1.0820E+05
 1.2010E-07 7.6580E+04
 1.3030E-07 5.5320E+04
 1.4000E-07 4.0750E+04
 1.5020E-07 2.9700E+04
 1.5990E-07 2.3020E+04
 1.6990E-07 1.6510E+04
 1.8010E-07 1.3700E+04
 1.8980E-07 1.0500E+04
 2.0020E-07 8.7220E+03
 2.2090E-07 5.1170E+03
 2.3950E-07 3.3880E+03
 2.6050E-07 3.4920E+03
 2.8020E-07 2.3680E+03
ENDDATA             82
ENDSUBENT           95
ENDENTRY             3
