ENTRY            20560     840126
SUBENT        20560001     840126
BIB                 12         21
INSTITUTE  (2GERTHS)
REFERENCE  (T,HEUER,74)   DIPLOMARBEIT, X-SECT. TABULATED.
AUTHOR     (R.D.HEUER)
TITLE      -MEASUREMENT OF FAST NEUTRON TOTAL CROSS-SECTIONS-
            IN GERMAN
INC-SOURCE (D-D  )    D(D,N)HE-3, 5.73 TO 7.25 MEV NEUTRONS.
           (A-BE )    BE-9(ALPHA,N)C-12, 7.29 TO 9.63 MEV NEUTR.
DETECTOR   .SI-LI DETECTOR USING SI-28(N,ALPHA) AND SI-28(N,P)
            REACTIONS.
MONITOR    .TRANSMISSION EXPERIMENT.
COMMENT    .OPTICAL MODEL PARAMETERS DETERMINED BY WILMORE AND
            HODGSON,NUCL.PHYS.55,673(1964) USED TO CALCULATE
            CROSS-SECTIONS, WHICH AGREE REASONABLY WITH
            EXPERIMENTAL DATA.
           .SPECIAL CARE GIVEN TO SI-LI DETECTOR.
STATUS     .CROSS-SECTIONS TAKEN FROM THESIS.
HISTORY    (760318C)
           (760423E)
CORRECTION .INSCATTERING, GEOMETRY.
ERR-ANALYS .CROSS-SECTION ERROR INCLUDES STATISTICAL ERROR AND
            UNCERTAINTY IN INSCATTERING.
ENDBIB              21
NOCOMMON             0          0
ENDSUBENT           24
SUBENT        20560002     840126
BIB                  3          8
REACTION   (1-H-PLE(N,TOT),,SIG)
             POLYETHYLENE
SAMPLE     .C-H(2)*N, LENGTH = 70.20+-0.02 MILLIM.
                      DIAMETER = 20.20+-0.01 MILLIM.
                      WEIGHT   = 20.6750+-0.0005 GRAM.
                      DENSITY  =  0.9190+-0.001 GRAM/CM**3.
HISTORY    (760318C)
           (760423E)
ENDBIB               8
NOCOMMON             0          0
DATA                 3         27
EN         DATA       DATA-ERR
MEV        B          B
 5.5100E+00 3.1500E+00 3.0000E-02
 5.6300E+00 4.3400E+00 3.0000E-02
 5.8200E+00 3.9600E+00 3.0000E-02
 5.9300E+00 3.2700E+00 3.0000E-02
 6.1300E+00 3.6200E+00 3.0000E-02
 6.2300E+00 4.1200E+00 5.0000E-02
 6.3300E+00 3.7100E+00 4.0000E-02
 6.4300E+00 3.6400E+00 5.0000E-02
 6.5300E+00 3.4800E+00 5.0000E-02
 6.7300E+00 3.2800E+00 4.0000E-02
 6.8300E+00 3.6300E+00 3.0000E-02
 6.9200E+00 3.5700E+00 4.0000E-02
 7.0100E+00 2.9900E+00 4.0000E-02
 7.1200E+00 3.7500E+00 4.0000E-02
 7.3600E+00 3.3900E+00 5.0000E-02
 7.5600E+00 4.0900E+00 5.0000E-02
 7.7600E+00 4.1400E+00 5.0000E-02
 7.9600E+00 4.4000E+00 5.0000E-02
 8.1600E+00 4.1400E+00 4.0000E-02
 8.3600E+00 3.2800E+00 4.0000E-02
 8.4700E+00 3.2300E+00 5.0000E-02
 8.6500E+00 3.0900E+00 8.0000E-02
 8.8400E+00 3.1400E+00 1.1000E-01
 9.0300E+00 3.5000E+00 2.0000E-01
 9.2200E+00 3.0600E+00 1.0000E-01
 9.4000E+00 2.8700E+00 6.0000E-02
 9.5800E+00 3.1100E+00 5.0000E-02
ENDDATA             29
ENDSUBENT           42
SUBENT        20560003     840126
BIB                  3          8
REACTION   (13-AL-27(N,TOT),,SIG)
SAMPLE     .LENGTH   = 79.03+-0.02 MILLIM.
            DIAMETER = 20.05+-0.01 MILLIM.
            WEIGHT   = 67.2303+-0.0003 GRAM.
            DENSITY  =  2.6944+-0.0034 GRAM/CM**3
            PURITY   = 99.99 PERC.
HISTORY    (760318C)
           (760423E)
ENDBIB               8
NOCOMMON             0          0
DATA                 3         41
EN         DATA       DATA-ERR
MEV        B          B
 5.5100E+00 2.0500E+00 3.0000E-02
 5.6300E+00 2.0400E+00 3.0000E-02
 5.7200E+00 1.9800E+00 3.0000E-02
 5.8200E+00 2.0100E+00 3.0000E-02
 5.9300E+00 2.1500E+00 3.0000E-02
 6.0400E+00 1.8800E+00 3.0000E-02
 6.1300E+00 2.1600E+00 3.0000E-02
 6.2300E+00 1.8100E+00 3.0000E-02
 6.3300E+00 2.0000E+00 3.0000E-02
 6.4300E+00 2.1000E+00 3.0000E-02
 6.5300E+00 1.9600E+00 3.0000E-02
 6.6300E+00 1.6800E+00 4.0000E-02
 6.7300E+00 1.6700E+00 3.0000E-02
 6.8300E+00 1.9400E+00 2.0000E-02
 6.9200E+00 1.8800E+00 4.0000E-02
 7.0100E+00 1.5400E+00 4.0000E-02
 7.1200E+00 1.9100E+00 3.0000E-02
 7.2600E+00 1.9500E+00 8.0000E-02
 7.4600E+00 1.7200E+00 4.0000E-02
 7.5600E+00 1.8700E+00 3.0000E-02
 7.6600E+00 1.9200E+00 3.0000E-02
 7.7600E+00 1.8700E+00 3.0000E-02
 7.8600E+00 1.9100E+00 3.0000E-02
 7.9600E+00 1.9700E+00 3.0000E-02
 8.0700E+00 1.8800E+00 3.0000E-02
 8.1600E+00 2.0000E+00 3.0000E-02
 8.2600E+00 1.6200E+00 3.0000E-02
 8.3600E+00 1.4800E+00 3.0000E-02
 8.4700E+00 1.5900E+00 4.0000E-02
 8.5500E+00 1.7300E+00 4.0000E-02
 8.6500E+00 1.6800E+00 5.0000E-02
 8.7400E+00 1.7700E+00 6.0000E-02
 8.8400E+00 1.5300E+00 9.0000E-02
 8.9400E+00 1.7600E+00 1.0000E-01
 9.0300E+00 1.6500E+00 1.2000E-01
 9.1300E+00 1.6900E+00 8.0000E-02
 9.2200E+00 1.7100E+00 7.0000E-02
 9.3100E+00 1.6400E+00 5.0000E-02
 9.4000E+00 1.6800E+00 3.0000E-02
 9.4900E+00 1.7300E+00 3.0000E-02
 9.5800E+00 1.6900E+00 3.0000E-02
ENDDATA             43
ENDSUBENT           56
SUBENT        20560004     840126
BIB                  3         11
REACTION   (56-BA-0(N,TOT),,SIG)
            NO GOOD AGREEMENT WITH DATA BY FOSTER ET AL.,
            PHYS.REV.C8,576(1971).
SAMPLE     .LENGTH   = 80.2+-0.05 MILLIM.
            DIAMETER = 20.1+-0.05 MILLIM.
            WEIGHT   = 90.62+-0.01 GRAM.
            DENSITY  =  3.561+-0.015 GRAM/CM**3.
            PURITY   = GREATER THAN 99.3 PERC., SR IMPURITY
                       SMALLER THAN 0.18 PERC..
HISTORY    (760318C)
           (760423E)
ENDBIB              11
NOCOMMON             0          0
DATA                 3         41
EN         DATA       DATA-ERR
MEV        B          B
 5.7300E+00 4.5300E+00 9.0000E-02
 5.8400E+00 4.5700E+00 9.0000E-02
 5.9400E+00 4.5200E+00 1.6000E-01
 6.0500E+00 4.5000E+00 1.3000E-01
 6.1500E+00 4.3800E+00 1.1000E-01
 6.2500E+00 4.5200E+00 1.2000E-01
 6.3500E+00 4.5400E+00 1.2000E-01
 6.4500E+00 4.4000E+00 8.0000E-02
 6.5500E+00 4.5700E+00 1.1000E-01
 6.6500E+00 4.4900E+00 1.1000E-01
 6.7500E+00 4.4000E+00 1.1000E-01
 6.8500E+00 4.3100E+00 1.2000E-01
 6.9500E+00 4.2400E+00 1.5000E-01
 7.0500E+00 4.3800E+00 1.1000E-01
 7.1500E+00 4.2200E+00 1.5000E-01
 7.2500E+00 4.4200E+00 1.4000E-01
 7.3900E+00 4.4000E+00 1.4000E-01
 7.4900E+00 4.5600E+00 1.2000E-01
 7.5900E+00 4.4500E+00 1.0000E-01
 7.6900E+00 4.4800E+00 1.0000E-01
 7.7900E+00 4.5500E+00 1.0000E-01
 7.8800E+00 4.4900E+00 1.1000E-01
 7.9900E+00 4.5900E+00 1.0000E-01
 8.0400E+00 4.5700E+00 1.0000E-01
 8.0800E+00 4.5600E+00 1.0000E-01
 8.1800E+00 4.6200E+00 1.1000E-01
 8.2800E+00 4.6600E+00 1.0000E-01
 8.3800E+00 4.7300E+00 1.1000E-01
 8.4700E+00 4.6600E+00 1.1000E-01
 8.5700E+00 4.7000E+00 1.3000E-01
 8.6700E+00 4.7000E+00 2.0000E-01
 8.7700E+00 4.6800E+00 1.9000E-01
 8.8600E+00 4.7300E+00 2.7000E-01
 8.9600E+00 4.9300E+00 3.1000E-01
 9.0600E+00 4.6600E+00 2.8000E-01
 9.1500E+00 4.7200E+00 2.0000E-01
 9.2500E+00 4.7100E+00 1.8000E-01
 9.3400E+00 4.6600E+00 1.5000E-01
 9.4400E+00 4.7600E+00 1.2000E-01
 9.5300E+00 4.6700E+00 1.2000E-01
 9.6300E+00 4.6200E+00 1.2000E-01
ENDDATA             43
ENDSUBENT           59
ENDENTRY             4
