ENTRY            11980     830802
SUBENT        11980001     830802
BIB                  6          7
INSTITUTE  (1USAMTR)
REFERENCE  (R,IDO-16120,5504)
AUTHOR     (J.E.EVANS)
TITLE      A PRELIMINARY REPORT ON THE MTR CRYSTAL SPECTROMETER.
STATUS     (SCSRS)
HISTORY    (760802T) TRANSLATED FROM SCISRS
           (830802A) CONVERTED TO REACTION FORMALISM
ENDBIB               7
NOCOMMON             0          0
ENDSUBENT           10
SUBENT        11980002     870113
BIB                  3          5
REACTION   (49-IN-0(N,TOT),,SIG)
FACILITY   (SPECC)    CRYSTAL SPECTROMETER
HISTORY    (790731A) DATA CORRECTED.
           (860612A) DATA UNITS CORRECTED.
           (860113A) DATA CORRECTED.
ENDBIB               5
NOCOMMON             0          0
DATA                 5        440
EN         EN-ERR     DATA       DATA-ERR   THICKNESS
MEV        MEV        B          B          G/CM-SQ
 2.510  -08            1.864  +02            0.555
 2.531  -08            1.844  +02            0.555
 2.554  -08            1.775  +02            0.555
 2.576  -08            1.941  +02            0.555
 2.598  -08            1.815  +02            0.555
 2.622  -08            2.090  +02            0.555
 2.645  -08            2.018  +02            0.555
 2.717  -08            1.697  +02            0.555
 2.766  -08            1.819  +02            0.555
 2.791  -08            1.714  +02            0.555
 2.843  -08            1.671  +02            0.555
 2.897  -08            1.737  +02            0.555
 2.951  -08            1.675  +02            0.555
 2.979  -08            1.662  +02            0.555
 3.008  -08            1.686  +02            0.555
 3.066  -08            1.640  +02            0.555
 3.095  -08            1.686  +02            0.555
 3.187  -08            1.709  +02            0.555
 3.219  -08            1.649  +02            0.555
 3.251  -08            1.627  +02            0.555
 3.316  -08            1.692  +02            0.555
 3.350  -08            1.651  +02            0.555
 3.384  -08            1.605  +02            0.555
 3.418  -08            1.631  +02            0.555
 3.454  -08            1.579  +02            0.555
 3.489  -08            1.583  +02            0.555
 3.526  -08            1.625  +02            0.555
 3.562  -08            1.631  +02            0.555
 3.600  -08            1.543  +02            0.555
 3.638  -08            1.592  +02            0.555
 3.676  -08            1.523  +02            0.555
 3.717  -08            1.585  +02            0.555
 3.756  -08            1.514  +02            0.555
 3.796  -08            1.607  +02            0.555
 3.838  -08            1.477  +02            0.555
 3.880  -08            1.603  +02            0.555
 3.923  -08            1.511  +02            0.555
 3.966  -08            1.558  +02            0.555
 4.010  -08            1.511  +02            0.555
 4.055  -08            1.516  +02            0.555
 4.101  -08            1.479  +02            0.555
 4.147  -08 4.7    -10 1.424  +02 4.5    +00 0.555
 4.195  -08            1.516  +02            0.555
 4.243  -08            1.486  +02            0.555
 4.292  -08            1.463  +02            0.555
 4.343  -08            1.509  +02            0.555
 4.393  -08            1.489  +02            0.555
 4.444  -08            1.518  +02            0.555
 4.497  -08            1.436  +02            0.555
 4.551  -08            1.457  +02            0.555
 4.606  -08            1.457  +02            0.555
 4.661  -08            1.525  +02            0.555
 4.717  -08            1.507  +02            0.555
 4.775  -08            1.491  +02            0.555
 4.834  -08            1.387  +02            0.555
 4.894  -08            1.394  +02            0.555
 4.955  -08            1.340  +02            0.555
 5.017  -08            1.392  +02            0.555
 5.081  -08            1.289  +02            0.555
 5.145  -08            1.406  +02            0.555
 5.211  -08            1.382  +02            0.555
 5.278  -08            1.454  +02            0.555
 5.347  -08            1.301  +02            0.555
 5.417  -08            1.380  +02            0.555
 5.488  -08            1.468  +02            0.555
 5.561  -08            1.452  +02            0.555
 5.636  -08            1.410  +02            0.555
 5.711  -08            1.450  +02            0.555
 5.788  -08            1.318  +02            0.555
 5.867  -08            1.311  +02            0.555
 5.947  -08            1.275  +02            0.555
 6.029  -08            1.356  +02            0.555
 6.114  -08            1.285  +02            0.555
 6.200  -08            1.255  +02            0.555
 6.287  -08            1.258  +02            0.555
 6.376  -08            1.260  +02            0.555
 6.468  -08            1.330  +02            0.555
 6.562  -08            1.366  +02            0.555
 6.688  -08            1.309  +02            0.555
 6.729  -08            1.258  +02            0.555
 6.769  -08            1.318  +02            0.555
 6.810  -08            1.289  +02            0.555
 6.851  -08            1.273  +02            0.555
 6.893  -08            1.306  +02            0.555
 6.935  -08            1.246  +02            0.555
 6.977  -08 4.6    -10 1.270  +02 4.9    +00 0.555
 7.020  -08            1.241  +02            0.555
 7.060  -08            1.263  +02            0.555
 7.107  -08            1.251  +02            0.555
 7.152  -08            1.231  +02            0.555
 7.196  -08            1.234  +02            0.555
 7.242  -08            1.221  +02            0.555
 7.287  -08            1.277  +02            0.555
 7.333  -08            1.270  +02            0.555
 7.380  -08            1.224  +02            0.555
 7.426  -08            1.211  +02            0.555
 7.474  -08            1.234  +02            0.555
 7.522  -08            1.234  +02            0.555
 7.570  -08            1.253  +02            0.555
 7.619  -08            1.221  +02            0.555
 7.669  -08            1.219  +02            0.555
 7.719  -08            1.206  +02            0.555
 7.765  -08            1.192  +02            0.555
 7.820  -08            1.199  +02            0.555
 7.872  -08            1.199  +02            0.555
 7.924  -08            1.194  +02            0.555
 7.977  -08            1.202  +02            0.555
 8.030  -08            1.192  +02            0.555
 8.084  -08            1.194  +02            0.555
 8.138  -08            1.187  +02            0.555
 8.193  -08            1.189  +02            0.555
 8.249  -08            1.144  +02            0.555
 8.305  -08            1.167  +02            0.555
 8.419  -08            1.184  +02            0.555
 8.477  -08            1.182  +02            0.555
 8.536  -08            1.172  +02            0.555
 8.595  -08            1.162  +02            0.555
 8.655  -08            1.154  +02            0.555
 8.718  -08            1.169  +02            0.555
 8.776  -08            1.172  +02            0.555
 8.837  -08            1.221  +02            0.555
 8.901  -08            1.149  +02            0.555
 9.159  -08            1.142  +02            0.555
 9.226  -08            1.111  +02            0.555
 9.292  -08            1.134  +02            0.555
 9.361  -08            1.129  +02            0.555
 9.429  -08            1.152  +02            0.555
 9.498  -08            1.109  +02            0.555
 9.569  -08            1.114  +02            0.555
 9.640  -08            1.106  +02            0.555
 9.711  -08            1.111  +02            0.555
 9.785  -08            1.137  +02            0.555
 9.858  -08            1.099  +02            0.555
 9.933  -08            1.111  +02            0.555
 1.001  -07            1.116  +02            0.555
 1.008  -07            1.081  +02            0.555
 1.016  -07            1.152  +02            0.555
 1.024  -07            1.083  +02            0.555
 1.032  -07            1.047  +02            0.555
 1.040  -07            1.083  +02            0.555
 1.048  -07            1.076  +02            0.555
 1.056  -07            1.127  +02            0.555
 1.065  -07            1.081  +02            0.555
 1.073  -07            1.081  +02            0.555
 1.081  -07            1.078  +02            0.555
 1.090  -07            1.078  +02            0.555
 1.099  -07            1.116  +02            0.555
 1.108  -07            1.071  +02            0.555
 1.117  -07            1.081  +02            0.555
 1.126  -07            1.047  +02            0.555
 1.135  -07            1.040  +02            0.555
 1.144  -07            1.058  +02            0.555
 1.153  -07            1.058  +02            0.555
 1.163  -07            1.055  +02            0.555
 1.173  -07            1.068  +02            0.555
 1.182  -07            1.065  +02            0.555
 1.192  -07            1.040  +02            0.555
 1.202  -07            1.027  +02            0.555
 1.213  -07            1.029  +02            0.555
 1.223  -07            1.027  +02            0.555
 1.233  -07            1.019  +02            0.555
 1.244  -07            1.014  +02            0.555
 1.255  -07            1.019  +02            0.555
 1.266  -07            1.029  +02            0.555
 1.277  -07            1.040  +02            0.555
 1.288  -07            1.016  +02            0.555
 1.299  -07            1.014  +02            0.555
 1.311  -07            1.021  +02            0.555
 1.322  -07            1.000  +02            0.555
 1.334  -07            1.019  +02            0.555
 1.346  -07            9.952  +01            0.555
 1.358  -07            1.014  +02            0.555
 1.370  -07            1.000  +02            0.555
 1.383  -07            1.000  +02            0.555
 1.396  -07            1.001  +02            0.555
 1.408  -07            9.978  +01            0.555
 1.421  -07            9.926  +01            0.555
 1.435  -07            9.689  +01            0.555
 1.448  -07            9.689  +01            0.555
 1.464  -07            9.636  +01            0.555
 1.475  -07            9.715  +01            0.555
 1.489  -07            9.743  +01            0.555
 1.504  -07            1.011  +02            0.555
 1.518  -07            9.715  +01            0.555
 1.533  -07            9.715  +01            0.555
 1.547  -07            9.583  +01            0.555
 1.563  -07            9.795  +01            0.555
 1.578  -07            9.610  +01            0.555
 1.593  -07            9.476  +01            0.555
 1.609  -07            9.821  +01            0.555
 1.625  -07            9.636  +01            0.555
 1.641  -07            9.768  +01            0.555
 1.658  -07            9.370  +01            0.555
 1.675  -07            9.663  +01            0.555
 1.692  -07            9.768  +01            0.555
 1.781  -07            9.423  +01            0.555
 1.800  -07            9.476  +01            0.555
 1.819  -07            9.636  +01            0.555
 1.858  -07            9.290  +01            0.555
 1.878  -07            9.344  +01            0.555
 1.898  -07            9.290  +01            0.555
 1.919  -07            9.236  +01            0.555
 1.940  -07            9.530  +01            0.555
 1.961  -07            9.183  +01            0.555
 1.983  -07            9.116  +01            0.555
 2.005  -07            9.450  +01            0.555
 2.027  -07            9.370  +01            0.555
 2.050  -07            9.210  +01            0.555
 2.073  -07            9.263  +01            0.555
 2.097  -07            8.994  +01            0.555
 2.116  -07            9.263  +01            0.555
 2.146  -07            9.263  +01            0.555
 2.171  -07            9.450  +01            0.555
 2.196  -07            9.476  +01            0.555
 2.217  -07            9.183  +01            0.555
 2.248  -07            9.263  +01            0.555
 2.275  -07            9.344  +01            0.555
 2.302  -07            9.075  +01            0.555
 2.330  -07            9.316  +01            0.555
 2.358  -07            9.316  +01            0.555
 2.393  -07            8.887  +01            0.555
 2.417  -07            9.102  +01            0.555
 2.447  -07            9.290  +01            0.555
 2.477  -07            8.833  +01            0.555
 2.508  -07            8.887  +01            0.555
 2.540  -07            9.156  +01            0.555
 2.572  -07            9.022  +01            0.555
 2.605  -07            9.183  +01            0.555
 2.639  -07            9.344  +01            0.555
 2.673  -07            9.020  +01            0.555
 2.708  -07            9.183  +01            0.555
 2.744  -07            8.940  +01            0.555
 2.773  -07            9.263  +01            0.555
 2.817  -07            9.316  +01            0.555
 2.855  -07            8.914  +01            0.555
 2.894  -07            9.397  +01            0.555
 2.933  -07            9.795  +01            0.555
 2.973  -07            9.397  +01            0.555
 3.014  -07            8.833  +01            0.555
 3.056  -07            9.504  +01            0.555
 3.099  -07            9.290  +01            0.555
 3.143  -07            9.450  +01            0.555
 3.188  -07            9.129  +01            0.555
 3.234  -07            9.689  +01            0.555
 3.280  -07            9.423  +01            0.555
 3.328  -07            9.210  +01            0.555
 3.377  -07            9.290  +01            0.555
 3.422  -07            9.290  +01            0.555
 3.478  -07            9.156  +01            0.555
 3.530  -07            9.423  +01            0.555
 3.584  -07            9.370  +01            0.555
 3.638  -07            9.610  +01            0.555
 3.694  -07            9.900  +01            0.555
 3.752  -07            9.689  +01            0.555
 3.810  -07            9.636  +01            0.555
 3.870  -07            9.397  +01            0.555
 3.932  -07            9.663  +01            0.555
 3.995  -07            9.583  +01            0.555
 4.046  -07 6.4    -09 9.742  +01 1.2    -01 0.555
 4.112  -07            9.926  +01            0.555
 4.193  -07            9.742  +01            0.555
 4.263  -07            1.011  +02            0.555
 4.334  -07            9.873  +01            0.555
 4.407  -07            1.000  +02            0.555
 4.482  -07            1.021  +02            0.555
 4.558  -07            9.768  +01            0.555
 4.637  -07            9.768  +01            0.555
 4.718  -07            9.663  +01            0.555
 4.801  -07            1.011  +02            0.555
 4.887  -07            1.008  +02            0.555
 4.974  -07            9.900  +01            0.555
 5.064  -07            9.926  +01            0.555
 5.157  -07            1.019  +02            0.555
 5.253  -07            1.024  +02            0.555
 5.351  -07            1.006  +02            0.555
 5.451  -07            1.029  +02            0.555
 5.555  -07            1.042  +02            0.555
 5.660  -07            1.060  +02            0.555
 5.771  -07            1.076  +02            0.555
 5.882  -07            1.078  +02            0.555
 6.000  -07            1.116  +02            0.555
 6.118  -07            1.114  +02            0.555
 6.242  -07            1.147  +02            0.555
 6.369  -07            1.174  +02            0.555
 6.501  -07            1.164  +02            0.555
 6.635  -07            1.224  +02            0.555
 6.775  -07            1.253  +02            0.555
 6.918  -07            1.277  +02            0.555
 7.070  -07            1.313  +02            0.555
 7.221  -07            1.371  +02            0.555
 7.378  -07            1.373  +02            0.555
 7.543  -07            1.454  +02            0.555
 7.715  -07            1.440  +02            0.555
 7.890  -07            1.583  +02            0.555
 8.068  -07            1.607  +02            0.555
 8.260  -07            1.688  +02            0.555
 8.450  -07            1.752  +02            0.555
 8.655  -07            1.917  +02            0.555
 8.864  -07            1.953  +02            0.555
 9.077  -07            2.177  +02            0.555
 9.300  -07            2.311  +02            0.555
 9.535  -07            2.526  +02            0.555
 9.782  -07            2.780  +02            0.555
 1.003  -06            2.968  +02            0.555
 1.029  -06            3.230  +02            0.555
 1.056  -06            3.630  +02            0.555
 1.085  -06            4.072  +02            0.555
 1.114  -06            4.729  +02            0.555
 1.145  -06            5.520  +02            0.555
 1.176  -06            6.540  +02            0.555
 1.209  -06            8.171  +02            0.555
 1.244  -06            1.391  +03            0.09195
 1.280  -06            2.092  +03            0.09195
 1.319  -06            2.727  +03            0.0202
 1.334  -06            3.334  +03            0.0202
 1.350  -06            4.570  +03            0.0202
 1.366  -06            5.821  +03            0.0202
 1.383  -06            7.897  +03            0.0202
 1.399  -06            1.121  +04            0.0202
 1.416  -06            1.370  +04            0.0202
 1.434  -06            1.760  +04            0.0202
 1.451  -06 4.4    -08 1.990  +04 9.0    +02 0.0202
 1.469  -06            1.988  +04            0.0202
 1.488  -06            1.853  +04            0.0202
 1.506  -06            1.543  +04            0.0202
 1.525  -06            1.151  +04            0.0202
 1.545  -06            8.610  +03            0.0202
 1.565  -06            5.972  +03            0.0202
 1.585  -06            4.009  +03            0.0202
 1.605  -06            3.004  +03            0.0202
 1.626  -06            2.316  +03            0.0202
 1.648  -06            1.542  +03            0.0202
 1.670  -06            1.373  +03            0.0202
 1.692  -06            8.668  +03            0.0202
 1.750  -06            7.032  +02            0.09195
 1.810  -06            3.535  +02            0.09195
 1.874  -06            2.606  +02            0.09195
 1.942  -06            1.937  +02            0.09195
 2.013  -06            1.486  +02            0.546
 2.088  -06            1.139  +02            0.546
 2.167  -06            9.263  +01            0.546
 2.251  -06            7.815  +01            0.546
 2.340  -06            6.012  +01            0.546
 2.435  -06            5.360  +01            0.546
 2.535  -06            4.234  +01            0.546
 2.598  -06            4.135  +01            7.236
 2.642  -06            3.883  +01            7.236
 2.686  -06            3.690  +01            7.236
 2.732  -06            3.453  +01            7.236
 2.779  -06            3.289  +01            7.236
 2.826  -06            3.104  +01            7.236
 2.876  -06            3.063  +01            7.236
 2.926  -06            2.859  +01            7.236
 2.978  -06            2.851  +01            7.236
 3.032  -06            2.745  +01            7.236
 3.086  -06            2.630  +01            7.236
 3.171  -06            2.473  +01            7.236
 3.230  -06            2.513  +01            7.236
 3.290  -06            2.499  +01            7.236
 3.352  -06            2.557  +01            7.236
 3.416  -06            2.672  +01            7.236
 3.549  -06            3.430  +01            7.236
 3.618  -06            7.674  +01            0.546
 3.690  -06            1.422  +02            0.546
 3.764  -06            2.509  +02            0.546
 3.822  -06 1.90   -07 5.846  +02 4.6    +00 0.546
 3.918  -06            3.522  +02            0.546
 3.999  -06            2.124  +02            0.546
 4.082  -06            1.098  +02            0.546
 4.168  -06            5.33   +01            0.546
 4.256  -06            2.939  +01            7.236
 4.348  -06            2.348  +01            7.236
 4.442  -06            1.867  +01            7.236
 4.540  -06            1.742  +01            7.236
 4.641  -06            1.767  +01            7.236
 4.745  -06            1.766  +01            7.236
 4.853  -06            1.623  +01            7.236
 4.964  -06            1.373  +01            7.236
 5.080  -06            1.135  +01            7.236
 5.199  -06            1.078  +01            7.236
 5.323  -06            9.862  +00            7.236
 5.451  -06            9.702  +00            7.236
 5.584  -06            9.217  +00            7.236
 5.721  -06            9.469  +00            7.236
 5.864  -06            9.210  +00            7.236
 6.013  -06            9.249  +00            7.236
 6.167  -06            8.904  +00            7.236
 6.327  -06            8.340  +00            7.236
 6.493  -06            8.518  +00            7.236
 6.666  -06            8.501  +00            7.236
 6.846  -06 4.50   -07 7.678  +00 5.70   -01 7.236
 7.033  -06            8.246  +00            7.236
 7.229  -06            8.668  +00            7.236
 7.432  -06            8.978  +00            7.236
 7.645  -06            9.414  +00            7.236
 7.866  -06            9.275  +00            7.236
 8.097  -06            1.055  +01            7.236
 8.339  -06            1.606  +01            0.546
 8.591  -06            7.421  +01            0.546
 8.856  -06            1.605  +02            0.546
 9.132  -06 6.90   -07 1.835  +02 4.2    +00 0.546
 9.422  -06            1.393  +02            0.546
 9.726  -06            7.226  +01            0.546
 1.004  -05            1.616  +01            7.236
 1.038  -05            1.095  +01            7.236
 1.073  -05            9.388  +00            7.236
 1.110  -05            9.518  +00            7.236
 1.149  -05            1.109  +01            7.236
 1.190  -05            1.467  +01            7.236
 1.233  -05            1.424  +01            7.236
 1.279  -05            1.109  +01            7.236
 1.327  -05 1.20   -06 8.990  +00 3.10   -01 7.236
 1.378  -05            1.010  +01            7.236
 1.432  -05            1.274  +01            7.236
 1.490  -05            1.469  +01            7.236
 1.550  -05            2.221  +01            7.236
 1.615  -05            1.311  +01            7.236
 1.683  -05            7.648  +00            7.236
 1.757  -05            8.059  +00            7.236
 1.835  -05            8.462  +00            7.236
 1.918  -05            5.918  +00            7.236
 2.007  -05            5.643  +00            7.236
 2.103  -05            8.174  +00            7.236
 2.205  -05            1.029  +01            7.236
 2.316  -05 2.80   -06 1.594  +01 7.1    -01 7.236
 2.434  -05            1.498  +01            7.236
 2.562  -05            1.431  +01            7.236
 2.701  -05            1.047  +01            7.236
 2.851  -05            9.104  +00            7.236
 3.014  -05            3.497  +00            7.236
 3.191  -05            8.156  +00            7.236
 3.384  -05            8.117  +00            7.236
 3.596  -05            7.776  +00            7.236
 4.082  -05            1.239  +01            7.236
 4.364  -05            1.448  +01            7.236
 4.676  -05            1.501  +01            7.236
 5.022  -05            9.875  +00            7.236
 5.41   -05 1.00   -05 8.501  +00 8.70   -01 7.236
 5.840  -05            6.970  +00            7.236
 6.327  -05            7.805  +00            7.236
ENDDATA            442
ENDSUBENT          452
ENDENTRY             2
