ENTRY            C0075   20200508   20200917   20200916       C193
SUBENT        C0075001   20200508   20200917   20200916       C193
BIB                 11         17
INSTITUTE  (1USAWGC,1USANOT,2GERKLN)
REFERENCE  (J,NP/A,533,411,199110)
AUTHOR     (R.M.PRIOR,S.E.DARDEN,K.R.NYGA,H.PAETZ GEN.SCHIECK)
TITLE      State of 25Al between 6 and 8 MeV
FACILITY   (ACCEL,1USANOT)
INC-SOURCE (LAMB)
SAMPLE     Magnesium foil enriched to 99.96% 24Mg.  Areal density
            175 microg/cm2.
METHOD     Beam polarization measured periodically by scattering
            from 12C.
DETECTOR   (SOLST) Array of 14 solid-state detectors.
STATUS     (TABLE) Data received by email from R.M. Prior,
            8 September 1999.
           No reply to author proof from R. Prior.
HISTORY    (19990913C) VM
           (20030418A) Reaction SF3 updated.
           (20200506A) OS. REACTION in subs.2,3 corrected
ENDBIB              17
COMMON               3          3
POL-BM     EN-RSL     EN-NRM
NO-DIM     KEV        MEV
  0.60      35.         3.5
ENDCOMMON            3
ENDSUBENT           24
SUBENT        C0075002   20200508   20200917   20200916       C193
BIB                  5         12
REACTION   (12-MG-24(P,EL)12-MG-24,,DA)
MONITOR    (12-MG-24(P,EL)12-MG-24,,DA)
            Data normalized to previous data at 3.5 MeV.
           A renormalization of 10% was made because of
            systematic discrepancies noted in comparison of fits
            to data.
MONIT-REF  (,R.M.PRIOR,T,PRIOR,1968)
ERR-ANALYS (ERR-T) Total error, consisting of statistical
            uncertainties combined in quadrature with 5%
            normalization uncertainty.
           (ERR-1) Normalization uncertainty
HISTORY    (20200506A) REACTION SF5 deleted
ENDBIB              12
COMMON               2          3
EN-NRM     ERR-1
MEV        PER-CENT
 3.5          5.
ENDCOMMON            3
DATA                 4       1462
EN         ANG        DATA       ERR-T
MEV        ADEG       MB/SR      MB/SR
 3.993      35.       1117.5080   56.0155
 3.993      45.        470.2363   23.5815
 3.993      55.        232.9055   11.6913
 3.993      65.        108.7772    5.4835
 3.993      75.         56.2714    2.8390
 3.993      85.         37.1407    1.9044
 3.993      95.         39.9380    2.0250
 3.993     105.         56.0148    2.8301
 3.993     115.         78.6081    3.9583
 3.993     125.        101.3925    5.0971
 3.993     135.        119.6691    6.0096
 3.993     145.        133.7751    6.7141
 3.993     155.        148.2576    7.4371
 3.993     165.        160.3954    8.0851
 4.013      35.       1272.7500   63.7799
 4.013      45.        549.7273   27.5570
 4.013      55.        231.5585   11.6248
 4.013      65.        104.2515    5.2579
 4.013      75.         59.4304    2.9974
 4.013      85.         49.0428    2.5004
 4.013      95.         60.3742    3.0474
 4.013     105.         79.1255    3.9859
 4.013     115.         97.8119    4.9188
 4.013     125.        113.2283    5.6891
 4.013     135.        123.3078    6.1918
 4.013     145.        127.3006    6.3907
 4.013     155.        131.6198    6.6056
 4.013     165.        139.6778    7.0501
 4.033      35.       1285.2120   64.3977
 4.033      45.        515.0625   25.8212
 4.033      55.        223.0012   11.1950
 4.033      65.        111.4798    5.6177
 4.033      75.         83.6638    4.2082
 4.033      85.         78.6768    3.9805
 4.033      95.         90.5738    4.5563
 4.033     105.        101.6224    5.1098
 4.033     115.        102.9631    5.1755
 4.033     125.        101.7103    5.1122
 4.033     135.         93.3267    4.6917
 4.033     145.         84.7238    4.2608
 4.033     155.         77.2003    3.8835
 4.033     165.         73.6459    3.7459
 4.053      35.       1269.9520   63.6357
 4.053      45.        465.4858   23.3430
 4.053      55.        209.6756   10.5294
 4.053      65.        118.1600    5.9523
 4.053      75.         98.2249    4.9364
 4.053      85.         96.8230    4.8882
 4.053      95.        101.8685    5.1211
 4.053     105.        101.1702    5.0876
 4.053     115.         93.4117    4.6984
 4.053     125.         82.0942    4.1320
 4.053     135.         67.5874    3.4052
 4.053     145.         53.7544    2.7130
 4.053     155.         44.0592    2.2268
 4.053     165.         36.0768    1.8678
 4.073      35.       1183.7110   59.3238
 4.073      45.        455.2307   22.8303
 4.073      55.        197.7803    9.9345
 4.073      65.        121.3342    6.1109
 4.073      75.         99.2511    4.9877
 4.073      85.         99.3037    5.0121
 4.073      95.        100.2096    5.0383
 4.073     105.         95.4311    4.8005
 4.073     115.         87.4581    4.4004
 4.073     125.         72.3917    3.6466
 4.073     145.         45.2173    2.2857
 4.073     155.         32.8753    1.6674
 4.073     165.         28.4690    1.4870
 4.093      35.       1146.3840   57.4564
 4.093      45.        442.1272   22.1745
 4.093      55.        206.2610   10.3582
 4.093      65.        125.3423    6.3109
 4.093      75.         97.9515    4.9226
 4.093      85.         98.0001    4.9466
 4.093      95.         99.1388    4.9845
 4.093     105.         93.4164    4.6995
 4.093     115.         83.2693    4.1907
 4.093     125.         69.9983    3.5266
 4.093     135.         55.5255    2.8017
 4.093     145.         42.4221    2.1456
 4.093     155.         32.9417    1.6704
 4.093     165.         26.8230    1.4039
 4.113      35.       1137.5310   57.0130
 4.113      45.        413.4934   20.7423
 4.113      55.        198.8043    9.9851
 4.113      65.        125.0229    6.2946
 4.113      75.        103.6546    5.2078
 4.113      85.         98.2012    4.9565
 4.113      95.         97.4012    4.8976
 4.113     105.         91.2734    4.5921
 4.113     115.         79.6447    4.0094
 4.113     125.         66.2536    3.3391
 4.113     135.         53.1995    2.6852
 4.113     145.         41.5876    2.1038
 4.113     155.         32.6000    1.6533
 4.113     165.         28.1767    1.4713
 4.133      35.       1098.8620   55.0820
 4.133      45.        395.2339   19.8308
 4.133      55.        191.4074    9.6160
 4.133      65.        122.7226    6.1805
 4.133      75.        100.7947    5.0649
 4.133      85.         97.2792    4.9112
 4.133      95.         92.7607    4.6658
 4.133     105.         88.2091    4.4394
 4.133     115.         76.9435    3.8748
 4.133     125.         65.7952    3.3168
 4.133     135.         52.3220    2.6418
 4.133     145.         41.3379    2.0918
 4.133     155.         33.9780    1.7226
 4.133     165.         28.4155    1.4844
 4.153      35.       1062.1430   53.2442
 4.153      45.        416.9653   20.9165
 4.153      55.        198.0575    9.9479
 4.153      65.        122.4221    6.1650
 4.153      75.        102.9602    5.1729
 4.153      85.         93.9325    4.7434
 4.153      95.         91.8899    4.6221
 4.153     105.         86.8518    4.3712
 4.153     115.         76.8686    3.8708
 4.153     125.         64.0538    3.2295
 4.153     135.         52.4782    2.6494
 4.153     145.         41.9287    2.1210
 4.153     155.         34.1535    1.7311
 4.153     165.         29.5142    1.5389
 4.173      35.       1082.1960   54.3882
 4.173      45.        407.8330   20.5301
 4.173      55.        193.3273    9.7578
 4.173      65.        122.1436    6.1958
 4.173      75.        101.4430    5.1228
 4.173      85.         94.2056    4.8045
 4.173      95.         91.4495    4.6281
 4.173     105.         83.5658    4.2364
 4.173     115.         74.9150    3.8010
 4.173     125.         62.8505    3.1967
 4.173     135.         51.7333    2.6384
 4.173     145.         41.5239    2.1262
 4.173     155.         34.5354    1.7742
 4.193      35.       1043.6290   52.4591
 4.193      45.        381.3584   19.2059
 4.193      55.        184.2722    9.3048
 4.193      65.        119.8271    6.0797
 4.193      75.         99.3905    5.0200
 4.193      85.         94.3616    4.8121
 4.193      95.         87.7439    4.4427
 4.193     105.         81.7925    4.1476
 4.193     115.         71.5815    3.6343
 4.193     125.         61.6221    3.1349
 4.193     135.         49.6429    2.5336
 4.193     145.         41.2643    2.1129
 4.193     155.         34.2498    1.7598
 4.193     165.         30.0282    1.6267
 4.213      35.        990.5122   49.8023
 4.213      45.        390.4219   19.6587
 4.213      55.        187.6379    9.4728
 4.213      65.        118.6292    6.0195
 4.213      75.         96.0168    4.8511
 4.213      85.         89.0307    4.5451
 4.213      95.         87.8272    4.4469
 4.213     105.         79.3086    4.0232
 4.213     115.         70.4055    3.5751
 4.213     125.         61.2593    3.1167
 4.213     135.         49.2071    2.5117
 4.213     145.         39.9454    2.0467
 4.213     155.         34.6833    1.7814
 4.213     165.         31.1790    1.6841
 4.233      35.       1000.3600   50.2950
 4.233      45.        374.4019   18.8575
 4.233      55.        182.0957    9.1957
 4.233      65.        113.6261    5.7694
 4.233      75.         96.8045    4.8905
 4.233      85.         84.6805    4.3276
 4.233      95.         83.6948    4.2403
 4.233     105.         78.3638    3.9759
 4.233     125.         58.7742    2.9925
 4.233     135.         49.3008    2.5163
 4.233     145.         39.3639    2.0177
 4.233     155.         33.7039    1.7323
 4.233     165.         30.2996    1.6401
 4.253      35.        952.2468   47.8893
 4.253      45.        349.9121   17.6332
 4.253      55.        172.0298    8.6924
 4.253      65.        112.4874    5.7124
 4.253      75.        95.30140    4.8156
 4.253      85.         88.0912    4.4984
 4.253      95.         82.7666    4.1939
 4.253     105.         75.9944    3.8573
 4.253     115.         67.5041    3.4302
 4.253     125.         57.1463    2.9111
 4.253     135.         46.9767    2.4001
 4.253     145.         39.5863    2.0288
 4.253     155.         32.6649    1.6804
 4.253     165.         29.047     1.5770
 4.273      35.        877.3662   44.1436
 4.273      45.        353.1150   17.7926
 4.273      55.        172.7021    8.7255
 4.273      65.        110.6270    5.6188
 4.273      75.         92.5297    4.6765
 4.273      85.         84.0241    4.2944
 4.273      95.         77.9364    3.9522
 4.273     105.         71.9871    3.6568
 4.273     115.         61.5146    3.1302
 4.273     125.         50.8284    2.5947
 4.273     135.         41.6653    2.1341
 4.273     145.         32.3044    1.6644
 4.273     155.         27.1398    1.4036
 4.273     165.         25.6346    1.4051
 4.293      35.        957.7341   48.1671
 4.293      45.        392.7830   19.7784
 4.293      55.        201.0823   10.1461
 4.293      65.        127.7248    6.4754
 4.293      75.        102.1944    5.1607
 4.293      85.         82.6109    4.2252
 4.293      95.         74.0708    3.7597
 4.293     105.         63.6130    3.2390
 4.293     115.         52.7565    2.6933
 4.293     125.         41.4072    2.1246
 4.293     135.         31.0806    1.6057
 4.293     145.         24.7531    1.2875
 4.293     155.         19.9321    1.0440
 4.293     165.         17.6407    1.0053
 4.313      35.        986.6831   49.6159
 4.313      45.        415.6592   20.9225
 4.313      55.        194.5574    9.8201
 4.313      65.        120.7832    6.1286
 4.313      75.         94.9689    4.7995
 4.313      85.         83.8413    4.2870
 4.313      95.         75.6472    3.8386
 4.313     105.         68.6952    3.4935
 4.313     115.         61.7660    3.1443
 4.313     125.         53.1655    2.7132
 4.313     135.         42.2290    2.1636
 4.313     145.         36.7587    1.8883
 4.313     155.         32.1206    1.6540
 4.313     165.         28.6938    1.5614
 4.333      35.        945.9534   47.4368
 4.333      45.        386.8232   19.4100
 4.333      55.        186.4379    9.3676
 4.333      65.        112.1591    5.6522
 4.333      75.         89.5098    4.5009
 4.333      85.         78.6378    3.9791
 4.333      95.         75.1079    3.7833
 4.333     105.         69.3841    3.4983
 4.333     115.         62.8545    3.1703
 4.333     125.         55.5538    2.8048
 4.333     135.         47.5120    2.4013
 4.333     145.         40.1877    2.0343
 4.333     155.         34.6830    1.7580
 4.333     165.         31.4478    1.6363
 4.353      35.        980.1877   49.1473
 4.353      45.        382.5969   19.1984
 4.353      55.        179.8704    9.0388
 4.353      65.        110.2614    5.5569
 4.353      75.         86.3356    4.3418
 4.353      85.         75.8116    3.8372
 4.353      95.         73.3014    3.6927
 4.353     105.         69.4969    3.5036
 4.353     115.         62.1826    3.1365
 4.353     125.         55.1023    2.7820
 4.353     135.         48.0112    2.4260
 4.353     145.         40.9645    2.0728
 4.353     155.         36.0553    1.8264
 4.353     165.         33.5485    1.7408
 4.373      35.        933.0203   46.7884
 4.373      45.        389.3262   19.5346
 4.373      55.        173.0139    8.6956
 4.373      65.        106.0912    5.3482
 4.373      85.         71.7869    3.6359
 4.373      95.         68.9490    3.4750
 4.373     105.         65.9217    3.3249
 4.373     115.         59.8887    3.0218
 4.373     125.         55.1301    2.7832
 4.373     135.         48.3017    2.4406
 4.373     145.         42.0244    2.1258
 4.373     155.         36.3273    1.8400
 4.373     165.         34.5672    1.7917
 4.393      35.        896.4221   44.9593
 4.393      55.        172.8512    8.6878
 4.393      65.        101.7072    5.1294
 4.393      75.         78.4057    3.9455
 4.393      85.         69.5225    3.5230
 4.393      95.         65.2765    3.2914
 4.393     105.         63.3699    3.1974
 4.393     115.         59.7372    3.0143
 4.393     125.         54.5965    2.7568
 4.393     135.         48.5695    2.4541
 4.393     145.         42.2102    2.1354
 4.393     155.         38.0818    1.9278
 4.393     165.         35.3654    1.8319
 4.413      35.        893.9600   44.8364
 4.413      45.        364.4204   18.2898
 4.413      55.        166.2205    8.3564
 4.413      65.         97.5826    4.9233
 4.413      75.         74.6855    3.7595
 4.413      85.         65.6776    3.3307
 4.413      95.         63.8619    3.2208
 4.413     105.         62.6941    3.1636
 4.413     115.         59.0154    2.9782
 4.413     125.         54.4135    2.7477
 4.413     135.         47.7024    2.4109
 4.413     145.         42.2252    2.1361
 4.413     155.         37.5985    1.9037
 4.413     165.         34.2905    1.7783
 4.433      35.        913.3613   45.8062
 4.433      45.        353.2615   17.7319
 4.433      55.        159.5458    8.0226
 4.433      65.         94.7241    4.7802
 4.433      75.         74.2826    3.7394
 4.433      85.         66.6504    3.3794
 4.433      95.         64.0177    3.2287
 4.433     105.         62.2989    3.1439
 4.433     115.         57.9570    2.9254
 4.433     125.         53.9081    2.7225
 4.433     135.         46.2464    2.3379
 4.433     145.         40.1668    2.0333
 4.433     155.         34.9664    1.7721
 4.433     165.         31.8835    1.6579
 4.453      35.        893.3882   44.8524
 4.453      45.        359.1951   18.0506
 4.453      55.        164.6570    8.2929
 4.453      65.         95.0409    4.8102
 4.453      75.         73.7851    3.7225
 4.453      85.         66.1396    3.3688
 4.453      95.         65.2292    3.2983
 4.453     105.         61.9815    3.1372
 4.453     115.         58.2563    2.9490
 4.453     125.         52.9398    2.6825
 4.453     135.         44.4381    2.2559
 4.453     145.         37.5571    1.9108
 4.453     155.         31.6297    1.6127
 4.453     165.         28.8075    1.5239
 4.473      35.        931.1724   46.7409
 4.473      45.        361.3701   18.1591
 4.473      55.        162.4555    8.1827
 4.473      65.         93.3615    4.7261
 4.473      75.         72.0667    3.6365
 4.473      85.         62.9124    3.2073
 4.473      95.         63.1116    3.1921
 4.473     105.         61.3250    3.1043
 4.473     115.         56.6907    2.8708
 4.473     125.         51.2693    2.5990
 4.473     135.         43.4230    2.2048
 4.473     145.         35.9685    1.8311
 4.473     155.         30.0887    1.5355
 4.473     165.         25.8274    1.3743
 4.493      35.        904.5122   45.4075
 4.493      45.        349.5488   17.5679
 4.493      65.         90.7054    4.5931
 4.493      75.         66.1789    3.3420
 4.493      85.         60.6096    3.0921
 4.493      95.         57.9931    2.9361
 4.493     105.         56.7985    2.8778
 4.493     115.         53.8675    2.7295
 4.493     125.         49.3441    2.5024
 4.493     135.         42.5072    2.1589
 4.493     145.         35.5468    1.8100
 4.493     155.         30.0186    1.5320
 4.493     165.         26.2481    1.3951
 4.513      35.        828.3037   41.5992
 4.513      45.        320.0268   16.0881
 4.513      55.        149.0229    7.5114
 4.513      65.         81.6160    4.1393
 4.513      75.         59.4697    3.0070
 4.513      85.         50.9627    2.6104
 4.513      95.         50.7941    2.5767
 4.513     105.         51.4049    2.6085
 4.513     115.         50.1932    2.5458
 4.513     125.         47.1012    2.3906
 4.513     135.         41.3275    2.1003
 4.513     145.         34.9758    1.7816
 4.513     155.         30.1263    1.5376
 4.513     165.         26.5751    1.4122
 4.533      35.        828.4233   41.6083
 4.533      45.        326.1509   16.4006
 4.533      55.        134.2778    6.7753
 4.533      65.         69.6980    3.5443
 4.533      75.         47.6355    2.4159
 4.533      85.         39.3601    2.0312
 4.533      95.         40.7980    2.0774
 4.533     105.         43.5244    2.2149
 4.533     115.         44.0007    2.2369
 4.533     125.         43.1026    2.1914
 4.533     135.         38.9056    1.9797
 4.533     145.         34.8977    1.7783
 4.533     155.         31.1445    1.5891
 4.533     165.         27.8927    1.4796
 4.553      35.        815.5291   40.9643
 4.553      45.        316.4944   15.9180
 4.553      55.        126.2115    6.3720
 4.553      65.         60.9419    3.1067
 4.553      75.         38.9120    1.9796
 4.553      85.         31.8020    1.6530
 4.553      95.         31.2779    1.6014
 4.553     105.         33.9323    1.7354
 4.553     115.         36.5222    1.8632
 4.553     125.         37.3243    1.9027
 4.553     135.         36.6162    1.8655
 4.553     145.         35.8634    1.8267
 4.553     155.         35.3923    1.8017
 4.553     165.         36.0659    1.8892
 4.573      35.        876.3555   44.0064
 4.573      45.        334.5198   16.8194
 4.573      55.        129.0971    6.5166
 4.573      65.         58.0284    2.9611
 4.573      75.         36.0176    1.8349
 4.573      85.         28.5390    1.4901
 4.573      95.         28.3554    1.4553
 4.573     105.         29.2904    1.5033
 4.573     115.         31.2034    1.5972
 4.573     125.         32.1122    1.6419
 4.573     135.         32.3821    1.6538
 4.573     145.         33.3321    1.7003
 4.573     155.         34.2242    1.7433
 4.573     165.         36.1664    1.8945
 4.593      35.        934.0723   46.8927
 4.593      45.        334.0364   16.7957
 4.593      55.        116.5577    5.8899
 4.593      65.         51.9530    2.6577
 4.593      75.         33.0345    1.6862
 4.593      85.         25.9679    1.3619
 4.593     105.         26.7898    1.3785
 4.593     115.         26.0520    1.3398
 4.593     125.         25.7919    1.3260
 4.593     135.         25.3547    1.3024
 4.593     145.         24.2710    1.2472
 4.593     155.         25.4950    1.3068
 4.593     165.         25.6865    1.3701
 4.613      35.        907.5708   45.4925
 4.613      45.        304.2937   15.2713
 4.613      55.         98.9082    4.9829
 4.613      65.         42.5529    2.1638
 4.613      75.         25.2615    1.2838
 4.613      85.         20.9207    1.0842
 4.613      95.         19.5316    0.9993
 4.613     105.         19.5180    0.9995
 4.613     115.         19.4680    0.9958
 4.613     125.         18.9944    0.9716
 4.613     135.         18.6099    0.9513
 4.613     145.         17.7271    0.9068
 4.613     155.         18.3737    0.9380
 4.613     165.         18.8122    0.9925
 4.633      35.        863.9307   43.3089
 4.633      45.        286.3572   14.3737
 4.633      55.         81.5589    4.1148
 4.633      65.         27.7031    1.4206
 4.633      75.         15.4357    0.7920
 4.633      85.         11.7314    0.6238
 4.633      95.         10.7318    0.5589
 4.633     105.         10.7507    0.5606
 4.633     115.         10.9983    0.5717
 4.633     125.         11.6018    0.6016
 4.633     135.         11.8754    0.6142
 4.633     145.         11.9176    0.6159
 4.633     155.         12.1679    0.6274
 4.633     165.         12.9342    0.6974
 4.653      35.        854.8418   42.8534
 4.653      55.         53.3829    2.7056
 4.653      65.         14.7866    0.7742
 4.653      75.          6.9772    0.3688
 4.653      85.          4.9080    0.2809
 4.653      95.          4.1439    0.2286
 4.653     105.          3.6864    0.2063
 4.653     115.          3.9710    0.2195
 4.653     125.          4.9529    0.2684
 4.653     135.          5.7293    0.3065
 4.653     145.          7.0775    0.3734
 4.653     155.          8.4178    0.4396
 4.653     165.          9.7971    0.5394
 4.673      35.        679.1128   34.0342
 4.673      45.        160.4254    8.0603
 4.673      65.         7.18250    0.3834
 4.673      75.          5.3945    0.2838
 4.673      85.          4.8191    0.2664
 4.673      95.          3.3367    0.1820
 4.673     105.          1.5255    0.0913
 4.673     115.          0.7962    0.0532
 4.673     125.          1.2057    0.0740
 4.673     135.          2.3452    0.1310
 4.673     145.          3.7134    0.1994
 4.673     155.          5.3484    0.2807
 4.673     165.          6.9378    0.3820
 4.693      35.        559.6033   28.0488
 4.693      45.        120.5686    6.0624
 4.693      55.         18.4252    0.9436
 4.693      65.          9.6877    0.5059
 4.693      75.         11.8039    0.6025
 4.693      85.         11.1767    0.5817
 4.693      95.          8.4152    0.4344
 4.693     105.          4.9050    0.2592
 4.693     115.          2.4945    0.1375
 4.693     125.          1.5241    0.0885
 4.693     135.          1.7754    0.1007
 4.693     145.          2.7484    0.1494
 4.693     155.          3.8828    0.2055
 4.693     165.          5.1514    0.2878
 4.713      45.        105.1591    5.2920
 4.713      55.         19.6153    1.0031
 4.713      65.         18.0266    0.9230
 4.713      75.         21.7401    1.0995
 4.713      85.         20.3572    1.0410
 4.713      95.         16.3296    0.8303
 4.713     105.         11.2659    0.5774
 4.713     115.          6.8624    0.3564
 4.713     125.          4.1242    0.2191
 4.713     135.          3.1234    0.1683
 4.713     145.          2.9762    0.1606
 4.713     155.          3.4890    0.1860
 4.713     165.          4.2843    0.2442
 4.733      35.        444.5227   22.2945
 4.733      45.         90.0451    4.5359
 4.733      65.         28.0943    1.4263
 4.733      75.         30.8563    1.5551
 4.733      85.         29.8582    1.5161
 4.733      95.         24.8519    1.2564
 4.733     105.         18.8633    0.9574
 4.733     115.         12.5739    0.6422
 4.733     125.          8.0578    0.4160
 4.733     135.          5.3904    0.2820
 4.733     145.          3.6084    0.1923
 4.733     155.          2.8842    0.1556
 4.733     165.          2.5715    0.1574
 4.753      35.        392.2920   19.6833
 4.753      45.         85.8527    4.3268
 4.753      55.         33.4923    1.6970
 4.753      65.         33.8305    1.7133
 4.753      75.         36.5410    1.8396
 4.753      85.         36.0908    1.8279
 4.753      95.         32.6995    1.6488
 4.753     105.         26.6153    1.3450
 4.753     115.         19.1836    0.9728
 4.753     125.         12.7731    0.6519
 4.753     135.          8.0650    0.4159
 4.753     145.          4.4542    0.2348
 4.753     155.          2.4104    0.1318
 4.753     165.          1.4422    0.0992
 4.773      35.        370.8311   18.6102
 4.773      45.         94.4261    4.7554
 4.773      55.         34.4639    1.7457
 4.773      65.         34.0790    1.7258
 4.773      75.         37.6861    1.8969
 4.773      85.         40.2556    2.0362
 4.773      95.         40.6337    2.0455
 4.773     105.         36.9893    1.8638
 4.773     115.         28.8314    1.4552
 4.773     125.         20.7703    1.0518
 4.773     135.         12.6955    0.6474
 4.773     145.          6.8600    0.3552
 4.773     155.          3.4584    0.1844
 4.773     165.          1.8437    0.1203
 4.793      35.        348.0757   17.4734
 4.793      45.        100.1534    5.0423
 4.793      55.         27.4042    1.3928
 4.793      65.         27.3452    1.3893
 4.793      75.         36.1333    1.8194
 4.793      85.         43.9528    2.2212
 4.793      95.         48.9729    2.4626
 4.793     105.         48.6631    2.4477
 4.793     115.         41.9114    2.1095
 4.793     125.         31.8256    1.6047
 4.793     135.         21.3170    1.0788
 4.793     145.         13.6490    0.6950
 4.793     155.         11.2357    0.5737
 4.793     165.         12.3834    0.6509
 4.813      35.        342.4441   17.2612
 4.813      45.        102.6365    5.2006
 4.813      55.         28.6095    1.4754
 4.813      65.         35.3904    1.8134
 4.813      75.         43.9124    2.2210
 4.813      85.         48.8735    2.4910
 4.813      95.         50.5698    2.5566
 4.813     105.         49.3704    2.4973
 4.813     115.         44.7723    2.2662
 4.813     125.         36.3292    1.8435
 4.813     135.         26.8412    1.3678
 4.813     145.         22.7655    1.1632
 4.813     155.         25.0331    1.2753
 4.813     165.         33.8988    1.7589
 4.833      35.        333.3157   16.8050
 4.833      45.        109.8480    5.5615
 4.833      55.         56.0372    2.8475
 4.833      65.         63.1481    3.2018
 4.833      75.         61.6775    3.1093
 4.833      85.         49.4013    2.5173
 4.833      95.         39.2651    1.9911
 4.833     105.         33.3667    1.6972
 4.833     115.         28.8241    1.4688
 4.833     125.         24.4044    1.2471
 4.833     135.         21.2229    1.0867
 4.833     145.         22.7130    1.1604
 4.833     155.         30.7804    1.5628
 4.833     165.         44.0547    2.2671
 4.854      35.        335.6443   16.9223
 4.854      45.        101.7812    5.1585
 4.854      55.         80.0656    4.0492
 4.854      65.         81.7193    4.1305
 4.854      75.         69.4634    3.4986
 4.854      85.         49.2621    2.5105
 4.854      95.         31.6928    1.6129
 4.854     105.         21.6218    1.1100
 4.854     115.         17.1266    0.8837
 4.854     125.         14.2835    0.7411
 4.854     135.         13.9449    0.7229
 4.854     145.         17.5298    0.9015
 4.854     155.         26.8660    1.3673
 4.854     165.         36.5977    1.8945
 4.874      35.        293.7451   14.8272
 4.874      45.        111.0112    5.6200
 4.874      55.         95.3690    4.8145
 4.874      65.         89.8527    4.5373
 4.874      75.         71.2477    3.5880
 4.874      85.         47.6846    2.4318
 4.874      95.         27.7305    1.4146
 4.874     105.         16.3980    0.8489
 4.874     115.         11.6790    0.6113
 4.874     125.         9.55640    0.5044
 4.874     135.         9.73020    0.5120
 4.874     145.         12.9585    0.6729
 4.874     155.         21.6534    1.1066
 4.874     165.         30.7707    1.6030
 4.894      35.        288.2039   14.5499
 4.894      45.        121.2076    6.1298
 4.894      55.        110.1579    5.5538
 4.894      65.         95.2263    4.8059
 4.894      75.         70.2453    3.5377
 4.894      85.         43.9440    2.2446
 4.894      95.         24.9289    1.2744
 4.894     105.         15.0736    0.7826
 4.894     115.          9.7146    0.5129
 4.894     125.          7.8383    0.4184
 4.894     135.          7.3870    0.3945
 4.894     155.         17.4302    0.8952
 4.894     165.         25.5846    1.3431
 4.914      35.        303.5090   15.3160
 4.914      45.        144.0824    7.2740
 4.914      55.        118.2976    5.9612
 4.914      65.         98.8677    4.9883
 4.914      75.         71.8735    3.6193
 4.914      85.         43.8382    2.2397
 4.914      95.         24.4655    1.2513
 4.914     105.         14.4788    0.7528
 4.914     115.          9.9084    0.5228
 4.914     125.          7.4889    0.4010
 4.914     135.          6.9109    0.3709
 4.914     145.          8.8951    0.4694
 4.914     155.         14.0850    0.7280
 4.914     165.         20.9657    1.1121
 4.934      35.        284.9890   14.3891
 4.934      45.        144.8193    7.3104
 4.934      55.        130.1552    6.5536
 4.934      65.        103.3228    5.2108
 4.934      75.         69.9858    3.5249
 4.934      85.         43.6953    2.2321
 4.934      95.         24.0894    1.2324
 4.934     105.         15.4940    0.8035
 4.934     115.         11.3987    0.5973
 4.934     125.          9.0620    0.4795
 4.934     135.          7.9014    0.4202
 4.934     145.          8.8993    0.4694
 4.934     155.         12.7889    0.6631
 4.934     165.         18.9270    1.0098
 4.954      35.        274.8809   13.8843
 4.954      45.        168.5461    8.4973
 4.954      55.        142.7107    7.1819
 4.954      65.        105.4851    5.3191
 4.954      75.         69.1962    3.4855
 4.954      85.         38.5682    1.9759
 4.954      95.         22.4729    1.1516
 4.954     105.         16.4753    0.8527
 4.954     115.         13.6950    0.7121
 4.954     125.         12.2594    0.6399
 4.954     135.         10.5137    0.5513
 4.954     145.         10.0398    0.5266
 4.954     155.         13.4618    0.6968
 4.954     165.         17.5336    0.9403
 4.974      35.        302.6074   15.2696
 4.974      45.        179.3911    9.0390
 4.974      55.        150.7703    7.5844
 4.974      65.        105.2939    5.3092
 4.974      75.         64.6658    3.2587
 4.974      85.         35.2719    1.8107
 4.974      95.         21.2699    1.0914
 4.974     105.         18.0538    0.9314
 4.974     115.         18.1572    0.9351
 4.974     125.         16.7111    0.8624
 4.974     135.         14.6549    0.7582
 4.974     145.         13.3531    0.6923
 4.974     155.         15.4230    0.7947
 4.974     165.         19.7313    1.0498
 4.994      35.        310.6836   15.6779
 4.994      45.        209.6697   10.5549
 4.994      55.        161.2758    8.1111
 4.994      65.        106.3481    5.3632
 4.994      75.         60.3042    3.0413
 4.994      85.         31.6277    1.6299
 4.994      95.         20.4722    1.0523
 4.994     105.         21.4049    1.0996
 4.994     115.         24.8641    1.2713
 4.994     125.         24.8700    1.2713
 4.994     135.         21.6695    1.1099
 4.994     145.         20.1182    1.0314
 4.994     155.         21.2008    1.0843
 4.994     165.         24.2954    1.2798
 5.014      35.        334.2036   16.8542
 5.014      45.        221.8114   11.1623
 5.014      55.        176.3505    8.8647
 5.014      65.        106.3347    5.3626
 5.014      75.         57.6721    2.9097
 5.014      85.         28.6740    1.4823
 5.014      95.         22.1706    1.1373
 5.014     105.         27.4909    1.4043
 5.014     115.         33.9147    1.7242
 5.014     125.         35.7432    1.8152
 5.014     135.         32.7894    1.6660
 5.014     145.         30.1279    1.5321
 5.014     155.         30.0157    1.5253
 5.014     165.         31.7363    1.6527
 5.034      35.        400.4216   20.1648
 5.034      45.        278.9993   14.0216
 5.034      55.        186.3135    9.3629
 5.034      65.        106.4266    5.3673
 5.034      75.         55.5906    2.8057
 5.034      85.         29.1646    1.5067
 5.034      95.         25.6340    1.3105
 5.034     105.         37.2775    1.8936
 5.034     115.         46.3532    2.3463
 5.034     125.         51.8319    2.6195
 5.034     135.         48.6009    2.4568
 5.034     145.         44.3981    2.2456
 5.034     155.         43.2213    2.1857
 5.034     165.         44.6863    2.3009
 5.054      35.        458.3528   23.0637
 5.054      45.        295.6101   14.8532
 5.054      55.        193.2509    9.7107
 5.054      65.        113.7981    5.7367
 5.054      75.         64.0779    3.2304
 5.054      85.         40.0649    2.0528
 5.054      95.         41.6009    2.1093
 5.054     105.         54.4026    2.7507
 5.054     115.         68.8636    3.4722
 5.054     125.         75.1173    3.7843
 5.054     135.         76.6585    3.8602
 5.054     145.         70.4268    3.5475
 5.054     155.         69.1396    3.4820
 5.054     165.         66.9957    3.4177
 5.074      35.        495.7761   24.9368
 5.074      45.        282.5869   14.2030
 5.074      55.        199.9180   10.0446
 5.074      65.        127.7460    6.4346
 5.074      75.         87.1930    4.3866
 5.074      85.         65.0139    3.3010
 5.074      95.         58.9991    2.9798
 5.074     105.         64.2706    3.2443
 5.074     115.         74.6331    3.7610
 5.074     125.         82.7407    4.1658
 5.074     135.         83.8017    4.2175
 5.074     145.         80.4807    4.0506
 5.074     155.         78.2355    3.9372
 5.074     165.         71.1642    3.6269
 5.094      35.        504.2703   25.3609
 5.094      45.        291.8293   14.6649
 5.094      55.        199.0342   10.0004
 5.094      65.        142.0121    7.1478
 5.094      75.        109.3278    5.4934
 5.094      85.         83.6830    4.2343
 5.094      95.         68.4780    3.4535
 5.094     105.         65.1199    3.2869
 5.094     115.         69.5381    3.5062
 5.094     125.         75.943     3.8259
 5.094     135.         79.4462    3.9997
 5.094     145.         76.7366    3.8633
 5.094     155.         70.8845    3.5695
 5.094     165.         64.4843    3.2926
 5.114      35.        506.6355   25.4787
 5.114      45.        276.1477   13.8805
 5.114      55.        200.3863   10.0678
 5.114      65.        151.7494    7.6345
 5.114      75.        120.9843    6.0761
 5.114      85.         93.4660    4.7233
 5.114      95.         72.3209    3.6456
 5.114     105.         60.4849    3.0549
 5.114     115.         62.7962    3.1691
 5.114     125.         67.8589    3.4217
 5.114     135.         70.4562    3.5501
 5.114     145.         67.3588    3.3943
 5.114     155.         62.1294    3.1317
 5.114     165.         53.2484    2.7305
 5.134      35.        488.0776   24.5488
 5.134      45.        267.3179   13.4380
 5.134      55.        205.3870   10.3171
 5.134      65.        155.3951    7.8160
 5.134      75.        124.8619    6.2697
 5.134      85.         94.2901    4.7639
 5.134      95.         71.2817    3.5933
 5.134     105.         60.6405    3.0622
 5.134     115.         59.3564    2.9964
 5.134     125.         62.3888    3.1476
 5.134     135.         64.3378    3.2436
 5.134     145.         59.7001    3.0111
 5.134     155.         52.1116    2.6306
 5.134     165.         40.8946    2.1116
 5.154      35.        486.9473   24.4910
 5.154      45.        292.7673   14.7098
 5.154      55.        205.3438   10.3143
 5.154      65.        155.2089    7.8064
 5.154      75.        119.2478    5.9886
 5.154      85.         88.1418    4.4561
 5.154      95.         69.5190    3.5049
 5.154     105.         59.3284    2.9962
 5.154     115.         58.6861    2.9628
 5.154     125.         61.2056    3.0881
 5.154     135.         60.4057    3.0469
 5.154     145.         53.3232    2.6918
 5.154     155.         41.8068    2.1151
 5.154     165.         28.7851    1.5051
 5.174      35.        560.8281   28.1857
 5.174      45.        296.2095   14.8822
 5.174      55.        194.9671    9.7956
 5.174      65.        142.6013    7.1761
 5.174      75.        108.9443    5.4735
 5.174      85.         86.3480    4.3664
 5.174      95.         68.0985    3.4341
 5.174     105.         57.8494    2.9227
 5.174     115.         54.7984    2.7685
 5.174     125.         54.1699    2.7366
 5.174     135.         51.0402    2.5787
 5.174     145.         43.1226    2.1819
 5.174     155.         32.5244    1.6508
 5.174     165.         21.4653    1.1389
 5.194      35.        584.0056   29.3421
 5.194      55.        185.7981    9.3364
 5.194      65.        146.7723    7.3838
 5.194      75.        129.8582    6.5188
 5.194      85.        108.7432    5.4856
 5.194      95.         87.7947    4.4183
 5.194     105.         65.6223    3.3108
 5.194     115.         50.5683    2.5564
 5.194     125.         41.1855    2.0868
 5.194     135.         35.6169    1.8071
 5.194     145.         30.6144    1.5561
 5.194     155.         26.5567    1.3521
 5.194     165.         22.3659    1.1829
 5.214      35.        539.1504   27.0972
 5.214      45.        259.0142   13.0201
 5.214      55.        162.5767    8.1748
 5.214      65.        138.4433    6.9668
 5.214      75.        124.8018    6.2657
 5.214      85.        108.2132    5.4583
 5.214      95.         89.9390    4.5251
 5.214     105.         69.6646    3.5122
 5.214     115.         55.0272    2.7790
 5.214     125.         43.5812    2.2061
 5.214     135.         36.4343    1.8475
 5.214     145.         29.6198    1.5061
 5.214     155.         22.6815    1.1580
 5.214     165.         15.0140    0.8136
 5.234      35.        417.4063   21.0127
 5.234      45.        171.3989    8.6407
 5.234      55.        130.4857    6.5712
 5.234      65.        125.9300    6.3420
 5.234      75.        115.0150    5.7767
 5.234      85.        100.1118    5.0543
 5.234      95.         74.7077    3.7642
 5.234     105.         55.1126    2.7852
 5.234     115.         42.4726    2.1516
 5.234     125.         36.2264    1.8387
 5.234     135.         33.5026    1.7013
 5.234     145.         31.2359    1.5873
 5.234     155.         28.2765    1.4380
 5.234     165.         25.1942    1.3244
 5.254      35.        260.0635   13.1447
 5.254      45.        142.2832    7.1845
 5.254      55.        147.5047    7.4220
 5.254      65.        137.8687    6.9388
 5.254      75.        115.6330    5.8076
 5.254      95.         54.3402    2.7457
 5.254     105.         30.7723    1.5681
 5.254     115.         19.5139    1.0038
 5.254     125.         21.2394    1.0896
 5.254     135.         28.1848    1.4355
 5.254     145.         37.0926    1.8802
 5.254     155.         44.2499    2.2370
 5.254     165.         48.8909    2.5105
 5.274      35.        239.9263   12.1382
 5.274      55.        181.8602    9.1399
 5.274      65.        156.9258    7.8918
 5.274      75.        124.4175    6.2469
 5.274      85.         79.6508    4.0312
 5.274      95.         42.2191    2.1396
 5.274     105.         16.0211    0.8302
 5.274     115.         7.23640    0.3894
 5.274     125.         13.8166    0.7181
 5.274     135.         28.3320    1.4428
 5.274     145.         43.4031    2.1956
 5.274     155.         57.1401    2.8815
 5.274     165.         65.1078    3.3215
 5.294      35.        288.4595   14.5655
 5.294      45.        228.0750   11.4748
 5.294      55.        206.5256   10.3733
 5.294      65.        170.2724    8.5592
 5.294      75.        126.2991    6.3411
 5.294      85.         79.2382    4.0106
 5.294      95.         37.0616    1.8816
 5.294     105.         11.7245    0.6154
 5.294     115.          4.1982    0.2366
 5.294     125.         12.7557    0.6652
 5.294     135.         29.8824    1.5205
 5.294     145.         47.0503    2.3782
 5.294     155.         62.8488    3.1670
 5.294     165.         75.3547    3.8342
 5.314      35.        310.3420   15.6582
 5.314      45.        253.8851   12.7645
 5.314      55.        229.0249   11.4978
 5.314      65.        176.0266    8.8465
 5.314      75.        126.4569    6.3486
 5.314      85.         77.6699    3.9315
 5.314      95.         36.9997    1.8785
 5.314     105.         11.0296    0.5804
 5.314     115.          4.3418    0.2436
 5.314     125.         13.7463    0.7145
 5.314     135.         30.7818    1.5652
 5.314     145.         49.6212    2.5065
 5.314     155.         65.3047    3.2894
 5.334      35.        342.5981   17.2736
 5.334      45.        265.5173   13.3475
 5.334      55.        232.8178   11.6883
 5.334      65.        173.7185    8.7318
 5.334      75.        121.9839    6.1254
 5.334      85.         75.1362    3.8057
 5.334      95.         37.3235    1.8949
 5.334     105.         12.3375    0.6463
 5.334     115.          5.2230    0.2883
 5.334     125.         14.4235    0.7487
 5.334     135.         32.6421    1.6587
 5.334     145.         51.9472    2.6230
 5.334     155.         69.9422    3.5218
 5.334     165.         86.5527    4.3945
 5.354      35.        392.6912   19.7773
 5.354      45.        298.5410   14.9981
 5.354      55.        236.3823   11.8662
 5.354      65.        181.7172    9.1315
 5.354      75.        129.9919    6.5258
 5.354      85.         80.2946    4.0634
 5.354      95.         37.0860    1.8829
 5.354     105.         12.2853    0.6437
 5.354     115.          5.3528    0.2947
 5.354     125.         14.3855    0.7468
 5.354     135.         31.3594    1.5943
 5.354     145.         49.5379    2.5026
 5.354     155.         66.2008    3.3346
 5.354     165.         79.2566    4.0293
 5.374      35.        413.0752   20.7989
 5.374      45.        323.1582   16.2301
 5.374      55.        270.4397   13.5698
 5.374      65.        200.2924   10.0611
 5.374      75.        134.3443    6.7437
 5.374      85.         75.5225    3.8256
 5.374      95.         32.3538    1.6467
 5.374     105.         10.2370    0.5414
 5.374     115.          7.6200    0.4089
 5.374     125.         17.8234    0.9190
 5.374     135.         32.1241    1.6330
 5.374     145.         45.3100    2.2916
 5.374     155.         57.1681    2.8833
 5.374     165.         64.8821    3.3116
 5.394      35.        424.6648   21.3797
 5.394      45.        335.4126   16.8436
 5.394      55.        278.4692   13.9715
 5.394      65.        198.3587    9.9649
 5.394      75.        131.2529    6.5894
 5.394      85.         72.8727    3.6936
 5.394      95.         32.7121    1.6650
 5.394     105.         11.4900    0.6043
 5.394     115.          9.2045    0.4885
 5.394     125.         19.8949    1.0229
 5.394     135.         34.5522    1.7546
 5.394     145.         48.4759    2.4501
 5.394     155.         61.9429    3.1223
 5.394     165.         70.1927    3.5778
 5.414      35.        471.4355   23.7177
 5.414      45.        338.2559   16.9855
 5.414      55.        277.2263   13.9094
 5.414      65.        195.6210    9.8278
 5.414      75.        129.7586    6.5146
 5.414      85.         72.0999    3.6548
 5.414      95.         32.4034    1.6495
 5.414     105.         11.9327    0.6262
 5.414     115.         10.1078    0.5338
 5.414     125.         20.5061    1.0536
 5.414     135.         36.6341    1.8589
 5.414     145.         49.8321    2.5179
 5.414     155.         63.6254    3.2063
 5.414     165.         73.3296    3.7343
 5.434      35.        466.7227   23.4787
 5.434      45.        371.9443   18.6683
 5.434      55.        280.3237   14.0632
 5.434      65.        194.9605    9.7934
 5.434      75.        125.8663    6.3194
 5.434      85.         70.1737    3.5573
 5.434      95.         30.7364    1.5655
 5.434     105.         12.1237    0.6353
 5.434     115.         11.0134    0.5783
 5.434     125.         21.7622    1.1154
 5.434     135.         37.1224    1.8825
 5.434     145.         51.0374    2.5775
 5.434     155.         64.2318    3.2360
 5.434     165.         71.9367    3.6630
 5.454      35.        459.6299   23.1248
 5.454      45.        364.5474   18.2988
 5.454      55.        280.0718   14.0508
 5.454      65.        189.9145    9.5415
 5.454      75.        121.4241    6.0975
 5.454      85.         64.8441    3.2909
 5.454      95.         29.7427    1.5160
 5.454     105.         12.3601    0.6473
 5.454     115.         11.4949    0.6027
 5.454     125.         22.8935    1.1725
 5.454     135.         38.2724    1.9402
 5.454     145.         51.7607    2.6138
 5.454     155.         64.2652    3.2380
 5.454     165.         74.9604    3.8145
 5.474      35.        473.5710   23.8220
 5.474      45.        364.4507   18.2941
 5.474      55.        281.3398   14.1144
 5.474      65.        187.5286    9.4224
 5.474      75.        117.8432    5.9185
 5.474      85.         65.4071    3.3193
 5.474      95.         27.9832    1.4279
 5.474     105.         12.1160    0.6351
 5.474     115.         12.3744    0.6468
 5.474     125.         23.7561    1.2155
 5.474     135.         38.1166    1.9324
 5.474     145.         52.8349    2.6677
 5.474     155.         65.8930    3.3192
 5.474     165.         77.1143    3.9224
 5.494      35.        499.8875   25.1394
 5.494      55.        281.0781   14.1018
 5.494      65.        182.5391    9.1732
 5.494      75.        111.6040    5.6068
 5.494      85.         59.5876    3.0286
 5.494      95.         26.2594    1.3421
 5.494     105.         11.4671    0.6030
 5.494     115.         12.8600    0.6713
 5.494     125.         23.8968    1.2228
 5.494     135.         38.5829    1.9560
 5.494     145.         52.1529    2.6338
 5.494     155.         67.0308    3.3765
 5.494     165.         77.0956    3.9222
 5.514      35.        511.8909   25.7399
 5.514      45.        388.7534   19.5101
 5.514      55.        274.7124   13.7834
 5.514      65.        173.2911    8.7111
 5.514      75.        104.6463    5.2588
 5.514      85.         54.2464    2.7615
 5.514      95.         25.0716    1.2826
 5.514     105.         11.6504    0.6123
 5.514     115.         12.6469    0.6607
 5.514     125.         22.9924    1.1775
 5.514     135.         38.8229    1.9680
 5.514     145.         53.9464    2.7233
 5.514     155.         71.2583    3.5878
 5.514     165.         82.9565    4.2153
 5.534      35.        513.2900   25.8108
 5.534      45.        390.0500   19.5754
 5.534      55.        280.4626   14.0714
 5.534      65.        175.1251    8.8031
 5.534      75.        102.9588    5.1745
 5.534      85.         51.7246    2.6358
 5.534      95.         20.9781    1.0782
 5.534     105.          9.2139    0.4902
 5.534     115.         13.8085    0.7189
 5.534     135.         40.7028    2.0622
 5.534     145.         54.8516    2.7690
 5.534     155.         68.6148    3.4559
 5.534     165.         78.7258    4.0043
 5.554      35.        548.2683   27.5571
 5.554      45.        388.6987   19.5065
 5.554      55.        283.7913   14.2369
 5.554      65.        171.0278    8.5973
 5.554      75.         98.5804    4.9553
 5.554      85.         47.5281    2.4252
 5.554      95.         20.0009    1.0288
 5.554     105.         10.3544    0.5468
 5.554     115.         16.1260    0.8343
 5.554     125.         28.2207    1.4389
 5.554     135.         42.9794    2.1756
 5.554     145.         56.0703    2.8294
 5.554     155.         68.1585    3.4326
 5.554     165.         78.3681    3.9854
 5.574      35.        586.9583   29.4962
 5.574      45.        441.1260   22.1300
 5.574      55.        291.6846   14.6331
 5.574      65.        172.1781    8.6564
 5.574      75.         94.6972    4.7620
 5.574      85.         45.3544    2.3180
 5.574      95.         19.0405    0.9816
 5.574     105.         12.2923    0.6448
 5.574     115.         19.3330    0.9957
 5.574     125.         32.3208    1.6447
 5.574     135.         47.6628    2.4105
 5.574     145.         60.3592    3.0444
 5.574     155.         74.4781    3.7492
 5.574     165.         84.3970    4.2886
 5.594      35.        622.5444   31.2759
 5.594      45.        443.0664   22.2273
 5.594      55.        289.2961   14.5137
 5.594      65.        167.3577    8.4154
 5.594      75.         90.0968    4.5320
 5.594      85.         43.0394    2.2023
 5.594      95.         20.2211    1.0407
 5.594     115.         24.8335    1.2707
 5.594     125.         38.7272    3.0000
 5.594     135.         54.6618    2.7606
 5.594     145.         67.3663    3.3950
 5.594     155.         81.3065    4.0908
 5.594     165.         91.7644    4.6571
 5.614      35.        675.6099   33.9299
 5.614      45.        422.5168   21.2004
 5.614      55.        276.9917   13.8990
 5.614      65.        158.5081    7.9731
 5.614      75.         86.6897    4.3619
 5.614      85.         43.9609    2.2486
 5.614      95.         22.7845    1.1688
 5.614     105.         19.6563    1.0134
 5.614     115.         27.2345    1.3910
 5.614     135.         50.1208    2.5336
 5.614     145.         60.3421    3.0438
 5.614     155.         73.0206    3.6764
 5.614     165.         82.7962    4.2087
 5.634      35.        566.4380   28.4686
 5.634      45.        399.9565   20.0708
 5.634      55.        247.4818   12.4225
 5.634      65.        139.7975    7.0367
 5.634      75.         76.2322    3.8383
 5.634      85.         36.4592    1.8724
 5.634      95.         17.6279    0.9105
 5.634     105.         12.2341    0.6415
 5.634     115.         15.9065    0.8240
 5.634     125.         21.1540    1.0858
 5.634     135.         27.3972    1.3968
 5.634     145.         32.2908    1.6406
 5.634     155.         38.4005    1.9450
 5.634     165.         42.5236    2.1935
 5.654      35.        556.2380   27.9576
 5.654      45.        397.6123   19.9530
 5.654      55.        248.1413   12.4550
 5.654      65.        136.7260    6.8828
 5.654      75.         69.2798    3.4906
 5.654      85.         30.4573    1.5718
 5.654      95.         13.4571    0.7016
 5.654     105.         10.3794    0.5485
 5.654     115.         14.4645    0.7517
 5.654     125.         19.1475    0.9854
 5.654     135.         22.6264    1.1580
 5.654     145.         25.3515    1.2935
 5.654     155.         27.5609    1.4029
 5.654     165.         29.7813    1.5557
 5.674      35.        612.0266   30.7464
 5.674      45.        405.7969   20.3620
 5.674      55.        255.5239   12.8239
 5.674      65.        135.3554    6.8142
 5.674      75.        66.41620    3.3473
 5.674      95.         12.4113    0.6492
 5.674     105.         12.1301    0.6361
 5.674     115.         17.6016    0.9086
 5.674     125.         22.3920    1.1475
 5.674     135.         24.4921    1.2514
 5.674     145.         24.5840    1.2550
 5.674     155.         25.1183    1.2807
 5.674     165.         26.0782    1.3700
 5.694      35.        626.3047   31.4613
 5.694      45.        404.3188   20.2886
 5.694      55.        258.5195   12.9742
 5.694      65.        130.7719    6.5853
 5.694      75.         62.4675    3.1502
 5.694      85.         25.5305    1.3259
 5.694      95.         13.5940    0.7086
 5.694     105.         15.3019    0.7953
 5.694     115.         21.1433    1.0860
 5.694     125.         26.0366    1.3303
 5.694     135.         26.3757    1.3458
 5.694     145.         24.4137    1.2469
 5.694     155.         23.1038    1.1800
 5.694     165.         20.9683    1.1150
 5.714      35.        648.6741   32.5806
 5.714      45.        446.8164   22.4140
 5.714      55.        257.7883   12.9377
 5.714      65.        130.0822    6.5511
 5.714      75.         60.4377    3.0487
 5.714      85.         26.3054    1.3647
 5.714      95.         15.9426    0.8264
 5.714     105.         19.4486    1.0028
 5.714     115.         26.1584    1.3370
 5.714     125.         29.1244    1.4847
 5.714     135.         27.2366    1.3889
 5.714     145.         23.7492    1.2136
 5.714     155.         19.9768    1.0238
 5.714     165.         15.3334    0.8327
 5.734      35.        705.6768   35.4310
 5.734      45.        451.7273   22.6594
 5.734      55.        265.6414   13.3303
 5.734      65.        134.5050    6.7721
 5.734      75.         63.7925    3.2164
 5.734      85.         29.5736    1.5279
 5.734      95.         19.9866    1.0287
 5.734     105.         22.7694    1.1689
 5.734     115.         28.9406    1.4759
 5.734     125.         30.8129    1.5691
 5.734     135.         28.3378    1.4439
 5.734     145.         22.4350    1.1479
 5.734     155.         16.6285    0.8562
 5.734     165.         10.7553    0.6027
 5.754      35.        717.0305   35.9964
 5.754      45.        446.8975   22.4171
 5.754      55.        269.8425   13.5399
 5.754      65.        134.4750    6.7702
 5.754      75.         67.4507    3.3991
 5.754      85.         33.2162    1.7098
 5.754      95.         24.2701    1.2424
 5.754     105.         26.0917    1.3348
 5.754     115.         31.0799    1.5828
 5.754     125.         32.7110    1.6638
 5.754     135.         29.4552    1.4995
 5.754     145.         23.4028    1.1960
 5.754     165.         10.6108    0.5948
 5.774      35.        727.2512   36.5072
 5.774      45.        477.0537   23.9248
 5.774      55.        259.4451   13.0200
 5.774      65.        131.9837    6.6453
 5.774      75.         68.1783    3.4354
 5.774      85.         37.5741    1.9276
 5.774      95.         27.7927    1.4187
 5.774     105.         29.5757    1.5088
 5.774     115.         33.7925    1.7183
 5.774     125.         35.3352    1.7950
 5.774     135.         31.2396    1.5887
 5.774     145.         25.1335    1.2826
 5.774     155.         17.4929    0.8992
 5.774     165.         9.61840    0.5446
 5.794      35.        739.7920   37.1364
 5.794      45.        453.3455   22.7401
 5.794      55.        250.1158   12.5540
 5.794      65.        130.7699    6.5852
 5.794      75.         68.3706    3.4451
 5.794      85.         39.0278    2.0008
 5.794      95.         29.2911    1.4939
 5.794     105.         30.1205    1.5363
 5.794     115.         34.0090    1.7293
 5.794     125.         33.9113    1.7239
 5.794     135.         31.8243    1.6184
 5.794     145.         26.0650    1.3295
 5.794     155.         18.3031    0.9403
 5.794     165.         10.7736    0.6037
 5.814      35.        761.9590   38.2471
 5.814      45.        431.5410   21.6514
 5.814      55.        253.0054   12.6995
 5.814      65.        130.7566    6.5856
 5.814      75.         68.6880    3.4617
 5.814      85.         39.1590    2.0085
 5.814      95.         29.9616    1.5279
 5.814     105.         29.5629    1.5091
 5.814     115.         32.9868    1.6788
 5.814     125.         33.9672    1.7273
 5.814     135.         30.8084    1.5680
 5.814     145.         25.0633    1.2799
 5.814     155.         18.7521    0.9627
 5.814     165.         12.2624    0.6792
 5.834      35.        761.5520   38.2244
 5.834      45.        430.0571   21.5759
 5.834      55.        251.4345   12.6201
 5.834      65.        131.1126    6.6028
 5.834      75.         72.8099    3.6674
 5.834      85.         43.0218    2.2011
 5.834      95.         30.5836    1.5586
 5.834     105.         28.8016    1.4707
 5.834     115.         30.5991    1.5589
 5.834     125.         30.9097    1.5739
 5.834     135.         28.8931    1.4716
 5.834     145.         24.1906    1.2356
 5.834     155.         18.7557    0.9626
 5.834     165.         13.2256    0.7266
 5.854      35.        764.3120   38.3616
 5.854      45.        462.9900   23.2220
 5.854      55.        254.1317   12.7548
 5.854      65.        135.0524    6.7992
 5.854      75.         74.4344    3.7484
 5.854      85.         42.8226    2.1906
 5.854      95.         28.6292    1.4608
 5.854     105.         25.4685    1.3037
 5.854     115.         27.5566    1.4067
 5.854     125.         28.8529    1.4709
 5.854     135.         26.9478    1.3742
 5.854     145.         22.8727    1.1697
 5.854     155.         18.1172    0.9306
 5.854     165.         12.1477    0.6721
 5.874      35.        832.3228   41.7630
 5.874      45.        467.0847   23.4272
 5.874      55.        261.0505   13.1007
 5.874      65.        133.7745    6.7355
 5.874      75.         71.0084    3.5773
 5.874      85.         36.5215    1.8757
 5.874      95.         22.3260    1.1456
 5.874     105.         18.4132    0.9509
 5.874     115.         21.7422    1.1160
 5.874     125.         25.7416    1.3155
 5.874     135.         27.2112    1.3877
 5.874     145.         23.8623    1.2194
 5.874     155.         20.0875    1.0294
 5.874     165.         13.5960    0.7459
 5.894      35.        827.5352   41.5242
 5.894      45.        428.5166   21.4990
 5.894      55.        231.3073   11.6138
 5.894      65.        109.1708    5.5054
 5.894      75.         51.1893    2.5863
 5.894      85.         21.4973    1.1240
 5.894      95.         11.7008    0.6141
 5.894     105.         14.6048    0.7604
 5.894     115.         25.1887    1.2884
 5.894     125.         32.6852    1.6628
 5.894     135.         37.3698    1.8958
 5.894     145.         36.6361    1.8582
 5.894     155.         33.4679    1.6985
 5.894     165.         28.6566    1.5003
 5.914      35.        675.6553   33.9299
 5.914      45.        358.1042   17.9782
 5.914      55.        168.9435    8.4954
 5.914      65.         79.1438    4.0040
 5.914      75.         39.5010    2.0017
 5.914      85.         23.1842    1.2086
 5.914      95.         23.1723    1.1879
 5.914     105.         33.1127    1.6861
 5.914     115.         45.8076    2.3195
 5.914     125.         55.4685    2.8020
 5.914     135.         58.8522    2.9699
 5.914     145.         57.5816    2.9055
 5.914     155.         53.0477    2.6776
 5.914     165.         48.7537    2.5056
 5.934      35.        639.3428   32.1137
 5.934      45.        327.0918   16.4273
 5.934      55.        174.4604    8.7710
 5.934      65.         93.0906    4.7012
 5.934      75.         55.9887    2.8260
 5.934      85.         39.8606    2.0425
 5.934      95.         39.4482    2.0018
 5.934     105.         45.5625    2.3087
 5.934     115.         54.3988    2.7491
 5.934     125.         60.3432    3.0456
 5.934     135.         60.9628    3.0753
 5.934     145.         56.2056    2.8367
 5.934     155.         52.8504    2.6677
 5.934     165.         46.4976    2.3926
 5.954      35.        623.1421   31.3046
 5.954      45.        323.9077   16.2687
 5.954      55.        187.7063    9.4338
 5.954      65.        104.6521    5.2794
 5.954      75.         65.3888    3.2964
 5.954      85.         48.1963    2.4598
 5.954      95.         44.1037    2.2349
 5.954     105.         46.8380    2.3726
 5.954     115.         52.5465    2.6565
 5.954     125.         56.7153    2.8644
 5.954     135.         55.8782    2.8212
 5.954     145.         51.4343    2.5982
 5.954     155.         47.1226    2.3815
 5.954     165.         39.0117    2.0186
 5.974      35.        620.5181   31.1738
 5.974      45.        364.1304   18.2799
 5.974      55.        192.8850    9.6928
 5.974      65.        109.0151    5.4980
 5.974      75.         68.5674    3.4554
 5.974      85.         50.4061    2.5703
 5.974      95.         45.6490    2.3123
 5.974     105.         46.6122    2.3612
 5.974     115.         48.1833    2.4384
 5.974     125.         54.3116    2.7443
 5.974     135.         54.2824    2.7415
 5.974     145.         49.3204    2.4926
 5.974     155.         44.4926    2.2500
 5.974     165.         36.5932    1.8977
 5.994      35.        639.3489   32.1154
 5.994      45.        352.6238   17.7047
 5.994      55.        195.8614    9.8417
 5.994      65.        110.4295    5.5686
 5.994      75.         71.8706    3.6205
 5.994      85.         52.1398    2.6573
 5.994      95.         46.8779    2.3736
 5.994     105.         46.3913    2.3503
 5.994     115.         49.1471    2.4866
 5.994     125.         50.4155    2.5494
 5.994     135.         50.7181    2.5632
 5.994     145.         46.1263    2.3327
 5.994     155.         41.4634    2.0986
 5.994     165.         34.4516    1.7907
 6.014      35.        635.2583   31.9100
 6.014      45.        342.9165   17.2190
 6.014      55.        198.3935    9.9681
 6.014      65.        110.8796    5.5907
 6.014      75.         73.3287    3.6932
 6.014      85.         55.3943    2.8197
 6.014      95.         47.3169    2.3953
 6.014     105.         45.9094    2.3260
 6.014     115.         47.2812    2.3931
 6.014     125.         50.1605    2.5366
 6.014     135.         49.5479    2.5047
 6.014     145.         46.7932    2.3661
 6.014     155.         44.3042    2.2405
 6.014     165.         39.2757    2.0316
 6.034      35.        633.8503   31.8386
 6.034      45.        333.2151   16.7332
 6.034      55.        187.9844    9.4472
 6.034      65.        104.6022    5.2767
 6.034      75.         68.5795    3.4556
 6.034      85.         54.9046    2.7948
 6.034      95.         47.4246    2.4006
 6.034     105.         44.0255    2.2316
 6.034     115.         44.5265    2.2553
 6.034     125.         45.4648    2.3015
 6.034     135.         48.7172    2.4629
 6.034     145.         49.6721    2.5099
 6.034     155.         50.1271    2.5314
 6.034     165.         48.1272    2.4738
 6.054      35.        647.9097   32.5441
 6.054      45.        344.5225   17.3001
 6.054      55.        183.9182    9.2450
 6.054      65.        101.8743    5.1413
 6.054      75.         66.0338    3.3288
 6.054      85.         49.3568    2.5183
 6.054      95.         41.1933    2.0892
 6.054     105.         35.4643    1.8042
 6.054     115.         33.8328    1.7211
 6.054     125.         34.0261    1.7299
 6.054     135.         38.3455    1.9446
 6.054     145.         42.6662    2.1597
 6.054     155.         48.1995    2.4352
 6.054     165.         53.4120    2.7389
 6.075      35.        619.2520   31.1126
 6.075      45.        342.2896   17.1892
 6.075      55.        202.0649   10.1528
 6.075      65.        115.9933    5.8477
 6.075      75.         73.6850    3.7118
 6.075      85.         48.2435    2.4631
 6.075      95.         34.9058    1.7753
 6.075     105.         28.9942    1.4808
 6.075     115.         30.2660    1.5429
 6.075     125.         30.6497    1.5615
 6.075     135.         33.6991    1.7126
 6.075     145.         35.2576    1.7898
 6.075     155.         38.7275    1.9621
 6.075     165.         40.2332    2.0807
 6.095      35.        590.7988   29.6875
 6.095      45.        329.4309   16.5450
 6.095      55.        201.6139   10.1294
 6.095      65.        117.2649    5.9105
 6.095      75.         70.8516    3.5696
 6.095      85.         43.5828    2.2292
 6.095      95.         31.4556    1.6023
 6.095     105.         27.0732    1.3844
 6.095     115.         29.4575    1.5020
 6.095     125.         32.6082    1.6588
 6.095     135.         35.4293    1.7984
 6.095     145.         35.2777    1.7900
 6.095     155.         33.6996    1.7101
 6.095     165.         33.2439    1.7296
ENDDATA           1464
ENDSUBENT         1485
SUBENT        C0075003   20200508   20200917   20200916       C193
BIB                  3          4
REACTION   (12-MG-24(P,EL)12-MG-24,,POL/DA,,ANA)
ERR-ANALYS (DATA-ERR) Statistical uncertainties combined in
            quadrature with beam polarization uncertainty.
HISTORY    (20200506A) REACTION SF5 deleted
ENDBIB               4
NOCOMMON             0          0
DATA                 4       1463
EN         ANG        DATA       DATA-ERR
MEV        ADEG       NO-DIM     NO-DIM
 3.993      35.       -0.3101     0.0079
 3.993      45.       -0.4738     0.0111
 3.993      55.       -0.4947     0.0118
 3.993      65.       -0.4179     0.0119
 3.993      75.       -0.2741     0.0102
 3.993      85.       -0.2410     0.0151
 3.993      95.       -0.4501     0.0140
 3.993     105.       -0.6360     0.0159
 3.993     115.       -0.6532     0.0155
 3.993     125.       -0.5913     0.0140
 3.993     135.       -0.5216     0.0124
 3.993     145.       -0.4234     0.0105
 3.993     155.       -0.3146     0.0084
 3.993     165.       -0.1886     0.0090
 4.013      35.       -0.3091     0.0080
 4.013      45.       -0.3417     0.0087
 4.013      55.       -0.1871     0.0070
 4.013      65.        0.0592     0.0085
 4.013      75.        0.2328     0.0098
 4.013      85.       -0.0606     0.0128
 4.013      95.       -0.5368     0.0144
 4.013     105.       -0.8857     0.0205
 4.013     115.       -0.9648     0.0218
 4.013     125.       -0.9246     0.0209
 4.013     135.       -0.8472     0.0192
 4.013     145.       -0.7031     0.0162
 4.013     155.       -0.5488     0.0131
 4.013     165.       -0.3474     0.0115
 4.033      35.       -0.1791     0.0058
 4.033      45.       -0.0851     0.0051
 4.033      55.        0.1429     0.0067
 4.033      65.        0.3862     0.0117
 4.033      75.        0.3081     0.0098
 4.033      85.       -0.0883     0.0103
 4.033      95.       -0.4616     0.0124
 4.033     105.       -0.7183     0.0172
 4.033     115.       -0.8737     0.0203
 4.033     125.       -0.9735     0.0223
 4.033     135.       -0.9705     0.0223
 4.033     145.       -0.9028     0.0210
 4.033     155.       -0.7583     0.0181
 4.033     165.       -0.5331     0.0166
 4.053      35.       -0.0911     0.0047
 4.053      45.        0.0241     0.0050
 4.053      55.        0.2229     0.0077
 4.053      65.        0.3127     0.0103
 4.053      75.        0.1310     0.0071
 4.053      85.       -0.1454     0.0095
 4.053      95.       -0.4136     0.0111
 4.053     105.       -0.4934     0.0125
 4.053     115.       -0.6536     0.0155
 4.053     125.       -0.7579     0.0177
 4.053     135.       -0.8335     0.0193
 4.053     145.       -0.8532     0.0199
 4.053     155.       -0.8005     0.0192
 4.053     165.       -0.5880     0.0206
 4.073      35.       -0.0364     0.0044
 4.073      45.        0.0724     0.0051
 4.073      55.        0.2077     0.0075
 4.073      65.        0.2169     0.0089
 4.073      75.        0.0706     0.0065
 4.073      85.       -0.1431     0.0092
 4.073      95.       -0.3095     0.0094
 4.073     105.       -0.4075     0.0111
 4.073     115.       -0.5394     0.0135
 4.073     125.       -0.6257     0.0153
 4.073     145.       -0.7100     0.0175
 4.073     155.       -0.7896     0.0195
 4.073     165.       -0.5100     0.0210
 4.093      35.        0.0032     0.0044
 4.093      45.        0.1180     0.0056
 4.093      55.        0.2045     0.0074
 4.093      65.        0.1930     0.0086
 4.093      75.       -0.0478     0.0066
 4.093      85.       -0.1258     0.0093
 4.093      95.       -0.2734     0.0089
 4.093     105.       -0.3922     0.0109
 4.093     115.       -0.4830     0.0125
 4.093     125.       -0.5444     0.0139
 4.093     135.       -0.6044     0.0153
 4.093     145.       -0.6066     0.0159
 4.093     155.       -0.5817     0.0161
 4.093     165.       -0.4262     0.0212
 4.113      35.        0.0057     0.0045
 4.113      45.        0.0884     0.0056
 4.113      55.        0.1791     0.0073
 4.113      65.        0.1347     0.0083
 4.113      75.       -0.0113     0.0064
 4.113      85.       -0.1710     0.0097
 4.113      95.       -0.2614     0.0089
 4.113     105.       -0.3546     0.0105
 4.113     115.       -0.4376     0.0120
 4.113     125.       -0.4994     0.0134
 4.113     135.       -0.5256     0.0143
 4.113     145.       -0.5396     0.0151
 4.113     155.       -0.4955     0.0151
 4.113     165.       -0.3683     0.0209
 4.133      35.        0.0169     0.0046
 4.133      45.        0.0847     0.0057
 4.133      55.        0.1184     0.0068
 4.133      65.        0.0590     0.0078
 4.133      75.       -0.0594     0.0066
 4.133      85.       -0.1674     0.0096
 4.133      95.       -0.2670     0.0090
 4.133     105.       -0.3295     0.0101
 4.133     115.       -0.3948     0.0113
 4.133     125.       -0.4206     0.0120
 4.133     135.       -0.4536     0.0130
 4.133     145.       -0.4288     0.0133
 4.133     155.       -0.4031     0.0136
 4.133     165.       -0.2647     0.0200
 4.153      35.        0.0142     0.0047
 4.153      45.        0.0629     0.0057
 4.153      55.        0.0938     0.0070
 4.153      65.        0.0475     0.0079
 4.153      75.       -0.0606     0.0067
 4.153      85.       -0.1657     0.0108
 4.153      95.       -0.2582     0.0115
 4.153     105.       -0.3010     0.0129
 4.153     115.       -0.3760     0.0152
 4.153     125.       -0.3918     0.0160
 4.153     135.       -0.3974     0.0165
 4.153     145.       -0.3995     0.0171
 4.153     155.       -0.3562     0.0163
 4.153     165.       -0.2572     0.0208
 4.173      35.        0.0091     0.0065
 4.173      45.        0.0748     0.0077
 4.173      55.        0.0698     0.0090
 4.173      65.        0.0397     0.0110
 4.173      75.       -0.0667     0.0093
 4.173      85.       -0.1779     0.0136
 4.173      95.       -0.2351     0.0115
 4.173     105.       -0.2685     0.0124
 4.173     115.       -0.3105     0.0131
 4.173     125.       -0.3341     0.0141
 4.173     135.       -0.3466     0.0150
 4.173     145.       -0.3184     0.0158
 4.173     155.       -0.3055     0.0165
 4.193      35.        0.006      0.0066
 4.193      45.        0.0582     0.0078
 4.193      55.        0.0194     0.0090
 4.193      65.       -0.0054     0.0110
 4.193      75.       -0.0836     0.0094
 4.193      85.       -0.1851     0.0135
 4.193      95.       -0.2428     0.0117
 4.193     105.       -0.2346     0.0121
 4.193     115.       -0.2986     0.0132
 4.193     125.       -0.3276     0.0141
 4.193     135.       -0.3324     0.0150
 4.193     145.       -0.3264     0.0158
 4.193     155.       -0.2565     0.0161
 4.193     165.       -0.2252     0.0269
 4.213      35.        0.0038     0.0067
 4.213      45.        0.0544     0.0076
 4.213      55.        0.0261     0.0088
 4.213      65.       -0.0163     0.0109
 4.213      75.       -0.0976     0.0095
 4.213      85.       -0.188      0.0138
 4.213      95.       -0.2528     0.0117
 4.213     105.       -0.2396     0.0122
 4.213     115.       -0.2802     0.0129
 4.213     125.       -0.3197     0.0140
 4.213     135.       -0.2958     0.0146
 4.213     145.       -0.2836     0.0155
 4.213     155.       -0.2281     0.0157
 4.213     165.       -0.2029     0.0260
 4.233      35.       -0.0079     0.0067
 4.233      45.        0.0436     0.0078
 4.233      55.        0.0471     0.0091
 4.233      65.        0.0027     0.0113
 4.233      75.       -0.1105     0.0097
 4.233      85.       -0.1759     0.0142
 4.233      95.       -0.2143     0.0117
 4.233     105.       -0.1919     0.0120
 4.233     125.       -0.2951     0.0142
 4.233     135.       -0.298      0.0149
 4.233     145.       -0.2708     0.0158
 4.233     155.       -0.2362     0.0162
 4.233     165.       -0.1957     0.0268
 4.253      35.        0.0155     0.0070
 4.253      45.        0.0376     0.0082
 4.253      55.        0.037      0.0095
 4.253      65.        0.0054     0.0115
 4.253      75.       -0.0706     0.0096
 4.253      85.       -0.1254     0.0138
 4.253      95.       -0.1805     0.0116
 4.253     105.       -0.1829     0.0122
 4.253     115.       -0.2288     0.0130
 4.253     125.       -0.2516     0.0140
 4.253     135.       -0.2706     0.0151
 4.253     145.       -0.2632     0.0159
 4.253     155.       -0.2095     0.0164
 4.253     165.       -0.1125     0.0275
 4.273      35.        0.0342     0.0072
 4.273      45.        0.0640     0.0082
 4.273      55.        0.0796     0.0095
 4.273      65.        0.0609     0.0116
 4.273      75.       -0.0114     0.0095
 4.273      85.       -0.0342     0.0136
 4.273      95.       -0.0794     0.0110
 4.273     105.       -0.0989     0.0117
 4.273     115.       -0.1600     0.0127
 4.273     125.       -0.2101     0.0141
 4.273     135.       -0.2264     0.0152
 4.273     145.       -0.2204     0.0167
 4.273     155.       -0.1912     0.0175
 4.273     165.       -0.1067     0.0288
 4.293      35.        0.0440     0.0069
 4.293      45.        0.0892     0.0079
 4.293      55.        0.0881     0.0088
 4.293      65.        0.0067     0.0106
 4.293      75.       -0.0956     0.0093
 4.293      85.       -0.1904     0.0144
 4.293      95.       -0.2626     0.0127
 4.293     105.       -0.2620     0.0136
 4.293     115.       -0.3553     0.0154
 4.293     125.       -0.3337     0.0164
 4.293     135.       -0.3991     0.0186
 4.293     145.       -0.3682     0.0197
 4.293     155.       -0.3363     0.0209
 4.293     165.       -0.2100     0.0346
 4.313      35.        0.0334     0.0068
 4.313      45.       -0.0559     0.0175
 4.313      55.       -0.0447     0.0088
 4.313      65.       -0.1279     0.0114
 4.313      75.       -0.2367     0.0110
 4.313      85.       -0.3533     0.0159
 4.313      95.       -0.3903     0.0144
 4.313     105.       -0.3653     0.0146
 4.313     115.       -0.4042     0.0154
 4.313     125.       -0.4135     0.0161
 4.313     135.       -0.4050     0.0169
 4.313     145.       -0.3810     0.0172
 4.313     155.       -0.3462     0.0174
 4.313     165.       -0.2040     0.0273
 4.333      35.        0.0348     0.0049
 4.333      45.       -0.0796     0.0156
 4.333      55.       -0.0523     0.0164
 4.333      65.       -0.1432     0.0085
 4.333      75.       -0.2357     0.0083
 4.333      85.       -0.3008     0.0116
 4.333      95.       -0.3184     0.0101
 4.333     105.       -0.3303     0.0106
 4.333     115.       -0.3624     0.0112
 4.333     125.       -0.3517     0.0114
 4.333     135.       -0.3405     0.0116
 4.333     145.       -0.3411     0.0121
 4.333     155.       -0.2894     0.0120
 4.333     165.       -0.1649     0.0185
 4.353      35.        0.0002     0.0048
 4.353      45.       -0.0198     0.0054
 4.353      55.       -0.0646     0.0065
 4.353      65.       -0.1259     0.0085
 4.353      75.       -0.2179     0.0082
 4.353      85.       -0.2473     0.0112
 4.353      95.       -0.2878     0.0098
 4.353     105.       -0.3062     0.0103
 4.353     115.       -0.3310     0.0108
 4.353     125.       -0.3369     0.0112
 4.353     135.       -0.3420     0.0116
 4.353     145.       -0.3217     0.0118
 4.353     155.       -0.2856     0.0118
 4.353     165.       -0.2109     0.0181
 4.373      35.       -0.0117     0.0048
 4.373      45.       -0.0585     0.0054
 4.373      55.       -0.0666     0.0066
 4.373      65.       -0.1565     0.0087
 4.373      85.       -0.2795     0.0116
 4.373      95.       -0.3290     0.0104
 4.373     105.       -0.2673     0.0099
 4.373     115.       -0.3170     0.0106
 4.373     125.       -0.3567     0.0113
 4.373     135.       -0.3286     0.0112
 4.373     145.       -0.3228     0.0116
 4.373     155.       -0.2769     0.0115
 4.373     165.       -0.2239     0.0175
 4.393      35.       -0.0072     0.0050
 4.393      55.       -0.0879     0.0068
 4.393      65.       -0.1493     0.0090
 4.393      75.       -0.1901     0.0082
 4.393      85.       -0.2584     0.0117
 4.393      95.       -0.2893     0.0102
 4.393     105.       -0.3246     0.0108
 4.393     115.       -0.3626     0.0113
 4.393     125.       -0.3834     0.0118
 4.393     135.       -0.3624     0.0118
 4.393     145.       -0.3519     0.0121
 4.393     155.       -0.2909     0.0116
 4.393     165.       -0.2138     0.0177
 4.413      35.        0.0140     0.0050
 4.413      45.       -0.0718     0.0157
 4.413      55.       -0.0672     0.0068
 4.413      65.       -0.0916     0.0087
 4.413      75.       -0.2021     0.0084
 4.413      85.       -0.2487     0.0118
 4.413      95.       -0.3079     0.0104
 4.413     105.       -0.3492     0.0110
 4.413     115.       -0.4339     0.0121
 4.413     125.       -0.4282     0.0122
 4.413     135.       -0.4474     0.0127
 4.413     145.       -0.4151     0.0126
 4.413     155.       -0.3677     0.0123
 4.413     165.       -0.2301     0.0179
 4.433      35.       -0.0096     0.0050
 4.433      45.       -0.0031     0.0056
 4.433      55.       -0.0093     0.0068
 4.433      65.       -0.0469     0.0088
 4.433      75.       -0.1255     0.0079
 4.433      85.       -0.2512     0.0118
 4.433      95.       -0.3267     0.0106
 4.433     105.       -0.3877     0.0116
 4.433     115.       -0.4417     0.0123
 4.433     125.       -0.4859     0.0131
 4.433     135.       -0.5136     0.0138
 4.433     145.       -0.4819     0.0137
 4.433     155.       -0.4217     0.0133
 4.433     165.       -0.3187     0.0190
 4.453      35.        0.0450     0.0158
 4.453      45.       -0.0333     0.0165
 4.453      55.        0.0325     0.0077
 4.453      65.       -0.0158     0.0100
 4.453      75.       -0.0906     0.0088
 4.453      85.       -0.1954     0.0129
 4.453      95.       -0.2854     0.0110
 4.453     105.       -0.3959     0.0125
 4.453     115.       -0.4690     0.0134
 4.453     125.       -0.5184     0.0143
 4.453     135.       -0.5766     0.0155
 4.453     145.       -0.5392     0.0156
 4.453     155.       -0.4449     0.0151
 4.453     165.       -0.4082     0.0228
 4.473      35.        0.0415     0.0057
 4.473      45.        0.0695     0.0065
 4.473      55.        0.0646     0.0078
 4.473      65.       -0.0057     0.0100
 4.473      75.       -0.0939     0.0088
 4.473      85.       -0.1974     0.0132
 4.473      95.       -0.2760     0.0112
 4.473     105.       -0.3633     0.0124
 4.473     115.       -0.4806     0.0141
 4.473     125.       -0.4960     0.0146
 4.473     135.       -0.5083     0.0152
 4.473     145.       -0.4897     0.0155
 4.473     155.       -0.4462     0.0156
 4.473     165.       -0.2871     0.0235
 4.493      35.        0.0555     0.0058
 4.493      45.        0.0778     0.0066
 4.493      65.        0.0132     0.0101
 4.493      75.       -0.0880     0.0091
 4.493      85.       -0.1938     0.0133
 4.493      95.       -0.2841     0.0116
 4.493     105.       -0.3783     0.0128
 4.493     115.       -0.4263     0.0135
 4.493     125.       -0.4695     0.0143
 4.493     135.       -0.4991     0.0150
 4.493     145.       -0.5089     0.0158
 4.493     155.       -0.4411     0.0155
 4.493     165.       -0.2750     0.0230
 4.513      35.        0.1688     0.0070
 4.513      45.        0.2019     0.0079
 4.513      55.        0.1812     0.0089
 4.513      65.        0.0851     0.0108
 4.513      75.       -0.0128     0.0094
 4.513      85.       -0.1663     0.0143
 4.513      95.       -0.2267     0.0117
 4.513     105.       -0.4051     0.0138
 4.513     115.       -0.4771     0.0147
 4.513     125.       -0.5077     0.0153
 4.513     135.       -0.5368     0.0160
 4.513     145.       -0.5280     0.0164
 4.513     155.       -0.4439     0.0158
 4.513     165.       -0.2837     0.0231
 4.533      35.        0.1028     0.0066
 4.533      45.        0.1328     0.0075
 4.533      55.        0.1339     0.0093
 4.533      65.       -0.0064     0.0120
 4.533      75.       -0.1370     0.0114
 4.533      85.       -0.2584     0.0173
 4.533      95.       -0.3101     0.0142
 4.533     105.       -0.3771     0.0148
 4.533     115.       -0.4392     0.0153
 4.533     125.       -0.4044     0.0149
 4.533     135.       -0.4331     0.0155
 4.533     145.       -0.3693     0.0151
 4.533     155.       -0.3134     0.0148
 4.533     165.       -0.1861     0.0231
 4.553      35.        0.1582     0.0071
 4.553      45.        0.1578     0.0078
 4.553      55.        0.0987     0.0091
 4.553      65.       -0.1004     0.0127
 4.553      75.       -0.2597     0.0132
 4.553      85.       -0.3247     0.0192
 4.553      95.       -0.3157     0.0155
 4.553     105.       -0.2854     0.0149
 4.553     115.       -0.2911     0.0143
 4.553     125.       -0.2570     0.0137
 4.553     135.       -0.2106     0.0132
 4.553     145.       -0.1623     0.0128
 4.553     155.       -0.0984     0.0123
 4.553     165.       -0.0172     0.0197
 4.573      35.        0.1725     0.0070
 4.573      45.        0.0799     0.0069
 4.573      55.        0.0100     0.0087
 4.573      65.       -0.2060     0.0136
 4.573      75.       -0.3132     0.0140
 4.573      85.       -0.2697     0.0197
 4.573      95.       -0.1532     0.0150
 4.573     105.       -0.1120     0.0148
 4.573     115.       -0.0543     0.0139
 4.573     125.       -0.0615     0.0135
 4.573     135.       -0.0054     0.0131
 4.573     145.       -0.0150     0.0127
 4.573     155.        0.0356     0.0123
 4.573     165.       -0.0004     0.0197
 4.593      35.        0.0656     0.0059
 4.593      45.        0.0085     0.0068
 4.593      55.       -0.1245     0.0097
 4.593      65.       -0.3287     0.0153
 4.593      75.       -0.3994     0.0154
 4.593      85.       -0.2763     0.0208
 4.593     105.        0.0027     0.0156
 4.593     115.        0.0619     0.0154
 4.593     125.        0.1031     0.0155
 4.593     135.        0.1734     0.0155
 4.593     145.        0.1724     0.0156
 4.593     155.        0.1810     0.0149
 4.593     165.        0.1354     0.0239
 4.613      35.        0.0866     0.0049
 4.613      45.        0.0171     0.0056
 4.613      55.       -0.1372     0.0084
 4.613      65.       -0.3378     0.0135
 4.613      75.       -0.4223     0.0141
 4.613      85.       -0.2547     0.0181
 4.613      95.       -0.1201     0.0142
 4.613     105.       -0.0252     0.0143
 4.613     115.        0.0664     0.0140
 4.613     125.        0.1587     0.0143
 4.613     135.        0.2639     0.0146
 4.613     145.        0.3371     0.0152
 4.613     155.        0.3534     0.0148
 4.613     165.        0.2427     0.0221
 4.633      35.        0.0494     0.0047
 4.633      45.       -0.0224     0.0057
 4.633      55.       -0.1687     0.0092
 4.633      65.       -0.4484     0.0166
 4.633      75.       -0.5172     0.0174
 4.633      85.       -0.2906     0.0236
 4.633      95.       -0.1678     0.0189
 4.633     105.        0.0243     0.0190
 4.633     115.        0.1283     0.0184
 4.633     125.        0.2752     0.0182
 4.633     135.        0.4313     0.0185
 4.633     145.        0.5310     0.0190
 4.633     155.        0.5307     0.0185
 4.633     165.        0.4095     0.0263
 4.653      35.        0.0492     0.0100
 4.653      55.       -0.1564     0.0111
 4.653      65.       -0.5362     0.0217
 4.653      75.       -0.5691     0.0235
 4.653      85.       -0.1870     0.0359
 4.653      95.       -0.0837     0.0301
 4.653     105.        0.0203     0.0325
 4.653     115.        0.1962     0.0305
 4.653     125.        0.4721     0.0275
 4.653     135.        0.6580     0.0259
 4.653     145.        0.7035     0.0240
 4.653     155.        0.6348     0.0219
 4.653     165.        0.4133     0.0300
 4.673      35.        0.0372     0.0044
 4.673      45.       -0.0291     0.0063
 4.673      55.       -0.3028     0.0200
 4.673      65.       -0.7804     0.0258
 4.673      75.       -0.2760     0.0212
 4.673      85.        0.0668     0.0302
 4.673      95.        0.1520     0.0279
 4.673     105.        0.0465     0.0419
 4.673     115.       -0.0933     0.0565
 4.673     125.        0.5768     0.0440
 4.673     135.        0.8593     0.0317
 4.673     145.        0.8095     0.0267
 4.673     155.        0.6193     0.0222
 4.673     165.        0.4399     0.0296
 4.693      35.        0.0756     0.0100
 4.693      45.       -0.0455     0.0100
 4.693      55.       -0.5572     0.0169
 4.693      65.       -0.5211     0.0207
 4.693      75.       -0.0868     0.0132
 4.693      85.        0.0652     0.0185
 4.693      95.        0.0843     0.0164
 4.693     105.       -0.0719     0.0218
 4.693     115.       -0.4248     0.0299
 4.693     125.       -0.7397     0.0364
 4.693     135.       -0.1942     0.0341
 4.693     145.        0.0744     0.0270
 4.693     155.        0.2372     0.0224
 4.693     165.        0.1487     0.0318
 4.713      45.       -0.2639     0.0087
 4.713      55.       -0.6860     0.0178
 4.713      65.       -0.4096     0.0156
 4.713      75.       -0.1211     0.0100
 4.713      85.       -0.0300     0.0138
 4.713      95.       -0.0485     0.0118
 4.713     105.       -0.1192     0.0146
 4.713     115.       -0.3437     0.0188
 4.713     125.       -0.5654     0.0240
 4.713     135.       -0.6968     0.0267
 4.713     145.       -0.4034     0.0264
 4.713     155.       -0.2186     0.0237
 4.713     165.       -0.1211     0.0350
 4.733      35.       -0.0004     0.0050
 4.733      45.       -0.2816     0.0094
 4.733      65.       -0.3390     0.0127
 4.733      75.       -0.1730     0.0087
 4.733      85.       -0.1108     0.0115
 4.733      95.       -0.1166     0.0098
 4.733     105.       -0.1549     0.0115
 4.733     115.       -0.2444     0.0139
 4.733     125.       -0.4182     0.0177
 4.733     135.       -0.5499     0.0212
 4.733     145.       -0.5975     0.0247
 4.733     155.       -0.5690     0.0265
 4.733     165.       -0.3507     0.0446
 4.753      35.        0.0122     0.0053
 4.753      45.       -0.2885     0.0096
 4.753      55.       -0.4887     0.0135
 4.753      65.       -0.3348     0.0118
 4.753      75.       -0.2201     0.0084
 4.753      85.       -0.1575     0.0106
 4.753      95.       -0.1328     0.0086
 4.753     105.       -0.1773     0.0098
 4.753     115.       -0.1696     0.0111
 4.753     125.       -0.2415     0.0136
 4.753     135.       -0.3191     0.0168
 4.753     145.       -0.4188     0.0219
 4.753     155.       -0.5741     0.0284
 4.753     165.       -0.5553     0.0572
 4.773      35.       -0.0287     0.0100
 4.773      45.       -0.1812     0.0100
 4.773      55.       -0.4526     0.0130
 4.773      65.       -0.3796     0.0123
 4.773      75.       -0.2214     0.0084
 4.773      85.       -0.1248     0.0101
 4.773      95.       -0.1093     0.0078
 4.773     105.       -0.1273     0.0083
 4.773     115.       -0.1627     0.0093
 4.773     125.       -0.2037     0.0109
 4.773     135.       -0.2712     0.0137
 4.773     145.       -0.3452     0.0181
 4.773     155.       -0.5138     0.0245
 4.773     165.       -0.4229     0.0526
 4.793      35.        0.2323     0.0100
 4.793      45.        0.2351     0.0100
 4.793      55.       -0.4605     0.0142
 4.793      65.       -0.2684     0.0125
 4.793      75.        0.0509     0.0076
 4.793      85.        0.1773     0.0099
 4.793      95.        0.1256     0.0072
 4.793     105.        0.0207     0.0070
 4.793     115.       -0.0704     0.0075
 4.793     125.       -0.2256     0.0093
 4.793     135.       -0.3514     0.0118
 4.793     145.       -0.5265     0.0152
 4.793     155.       -0.5408     0.0161
 4.793     165.       -0.3534     0.0213
 4.813      35.        0.3494     0.0118
 4.813      45.       -0.0750     0.0107
 4.813      55.       -0.6472     0.0219
 4.813      65.       -0.0364     0.0144
 4.813      75.        0.3990     0.0137
 4.813      85.        0.5645     0.0184
 4.813      95.        0.4656     0.0148
 4.813     105.        0.2515     0.0115
 4.813     115.        0.0416     0.0101
 4.813     125.       -0.2285     0.0123
 4.813     135.       -0.5532     0.0181
 4.813     145.       -0.7604     0.0223
 4.813     155.       -0.6321     0.0195
 4.813     165.       -0.3756     0.0196
 4.833      35.        0.2135     0.0093
 4.833      45.       -0.6883     0.0169
 4.833      55.       -0.6347     0.0169
 4.833      65.       -0.0060     0.0108
 4.833      75.        0.3767     0.0112
 4.833      85.        0.6295     0.0174
 4.833      95.        0.7287     0.0179
 4.833     105.        0.5180     0.0156
 4.833     115.        0.1786     0.0131
 4.833     125.       -0.3306     0.0149
 4.833     135.       -0.7988     0.0206
 4.833     145.       -0.9607     0.0226
 4.833     155.       -0.7035     0.0177
 4.833     165.       -0.3944     0.0172
 4.854      35.        0.0127     0.0082
 4.854      45.       -0.6441     0.0164
 4.854      55.       -0.5253     0.0142
 4.854      65.       -0.0889     0.0096
 4.854      75.        0.1857     0.0086
 4.854      85.        0.4172     0.0148
 4.854      95.        0.6274     0.0170
 4.854     105.        0.6155     0.0186
 4.854     115.        0.3535     0.0174
 4.854     125.       -0.2767     0.0182
 4.854     135.       -0.8671     0.0231
 4.854     145.       -0.9848     0.0236
 4.854     155.       -0.7061     0.0181
 4.854     165.       -0.3895     0.0183
 4.874      35.       -0.0905     0.0089
 4.874      45.       -0.6569     0.0165
 4.874      55.       -0.4480     0.0126
 4.874      65.       -0.1381     0.0094
 4.874      75.        0.0764     0.0078
 4.874      85.        0.2588     0.0137
 4.874      95.        0.4540     0.0155
 4.874     105.        0.6170     0.0203
 4.874     115.        0.4565     0.0210
 4.874     125.       -0.1155     0.0215
 4.874     135.       -0.8597     0.0251
 4.874     145.       -0.9852     0.0249
 4.874     155.       -0.7094     0.0191
 4.874     165.       -0.378      0.0196
 4.894      35.       -0.1393     0.0093
 4.894      45.       -0.7153     0.0169
 4.894      55.       -0.4975     0.0128
 4.894      65.       -0.2069     0.0097
 4.894      75.       -0.0400     0.0078
 4.894      85.        0.0857     0.0135
 4.894      95.        0.2693     0.0145
 4.894     105.        0.4791     0.0196
 4.894     115.        0.6178     0.0237
 4.894     125.        0.2362     0.0241
 4.894     135.       -0.5490     0.0252
 4.894     155.       -0.6422     0.0190
 4.894     165.       -0.3531     0.0212
 4.914      35.       -0.2502     0.0101
 4.914      45.       -0.7448     0.0174
 4.914      55.       -0.5076     0.0130
 4.914      65.       -0.2725     0.0103
 4.914      75.       -0.1316     0.0082
 4.914      85.       -0.0047     0.0135
 4.914      95.        0.1789     0.0143
 4.914     105.        0.3922     0.0196
 4.914     115.        0.6085     0.0238
 4.914     125.        0.4298     0.0255
 4.914     135.       -0.1358     0.0252
 4.914     145.       -0.6087     0.0239
 4.914     155.       -0.5833     0.0199
 4.914     165.       -0.3467     0.0235
 4.934      35.       -0.3556     0.0114
 4.934      45.       -0.6576     0.0156
 4.934      55.       -0.5143     0.0127
 4.934      65.       -0.3065     0.0104
 4.934      75.       -0.1883     0.0087
 4.934      85.       -0.1236     0.0137
 4.934      95.        0.0094     0.0140
 4.934     105.        0.2938     0.0185
 4.934     115.        0.5337     0.0220
 4.934     125.        0.5944     0.0242
 4.934     135.        0.1678     0.0236
 4.934     145.       -0.3177     0.0223
 4.934     155.       -0.4313     0.0192
 4.934     165.       -0.3011     0.0245
 4.954      35.       -0.4301     0.0124
 4.954      45.       -0.7229     0.0163
 4.954      55.       -0.5017     0.0123
 4.954      65.       -0.3091     0.0103
 4.954      75.       -0.2207     0.0089
 4.954      85.       -0.2107     0.0149
 4.954      95.       -0.1305     0.0146
 4.954     105.        0.0842     0.0172
 4.954     115.        0.3942     0.0195
 4.954     125.        0.5123     0.0210
 4.954     135.        0.3400     0.0210
 4.954     145.       -0.0919     0.0205
 4.954     155.       -0.3323     0.0182
 4.954     165.       -0.2553     0.0252
 4.974      35.       -0.5133     0.0135
 4.974      45.       -0.7398     0.0168
 4.974      55.       -0.4715     0.0119
 4.974      65.       -0.3038     0.0104
 4.974      75.       -0.2256     0.0093
 4.974      85.       -0.2891     0.0161
 4.974      95.       -0.3081     0.0160
 4.974     105.       -0.0583     0.0166
 4.974     115.        0.2903     0.0170
 4.974     125.        0.4692     0.0186
 4.974     135.        0.3275     0.0183
 4.974     145.        0.0090     0.0179
 4.974     155.       -0.3040     0.0172
 4.974     165.       -0.2326     0.0240
 4.994      35.       -0.5981     0.0143
 4.994      45.       -0.5835     0.0134
 4.994      55.       -0.3964     0.0103
 4.994      65.       -0.2209     0.0093
 4.994      75.       -0.2003     0.0092
 4.994      85.       -0.4035     0.0172
 4.994      95.       -0.5189     0.0175
 4.994     105.       -0.2967     0.0158
 4.994     115.        0.1253     0.0137
 4.994     125.        0.2771     0.0143
 4.994     135.        0.2614     0.0147
 4.994     145.        0.0326     0.0143
 4.994     155.       -0.1845     0.0140
 4.994     165.       -0.2326     0.0213
 5.014      35.       -0.6894     0.0157
 5.014      45.       -0.6276     0.0142
 5.014      55.       -0.3389     0.0094
 5.014      65.       -0.1353     0.0089
 5.014      75.       -0.1732     0.0094
 5.014      85.       -0.5329     0.0192
 5.014      95.       -0.8282     0.0209
 5.014     105.       -0.4425     0.0158
 5.014     115.       -0.0235     0.0119
 5.014     125.        0.2037     0.0121
 5.014     135.        0.2232     0.0124
 5.014     145.        0.0654     0.0121
 5.014     155.       -0.1293     0.0120
 5.014     165.       -0.1441     0.0191
 5.034      35.       -0.6735     0.0151
 5.034      45.       -0.4427     0.0108
 5.034      55.       -0.1940     0.0075
 5.034      65.        0.0186     0.0084
 5.034      75.       -0.0378     0.0088
 5.034      85.       -0.6445     0.0199
 5.034      95.       -0.9866     0.0224
 5.034     105.       -0.5477     0.0154
 5.034     115.       -0.0949     0.0102
 5.034     125.        0.1481     0.0098
 5.034     135.        0.1891     0.0101
 5.034     145.        0.0780     0.0099
 5.034     155.       -0.0619     0.0097
 5.034     165.       -0.1435     0.0159
 5.054      35.       -0.5901     0.0135
 5.054      45.       -0.2936     0.0085
 5.054      55.        0.0938     0.0066
 5.054      65.        0.3167     0.0102
 5.054      75.        0.1452     0.0087
 5.054      85.       -0.5857     0.0177
 5.054      95.       -0.9744     0.0212
 5.054     105.       -0.6101     0.0150
 5.054     115.       -0.1613     0.0089
 5.054     125.        0.1041     0.0081
 5.054     135.        0.2068     0.0086
 5.054     145.        0.1322     0.0082
 5.054     155.        0.0334     0.0077
 5.054     165.       -0.0656     0.0130
 5.074      35.       -0.4331     0.0109
 5.074      45.       -0.0351     0.0065
 5.074      55.        0.3455     0.0092
 5.074      65.        0.4550     0.0117
 5.074      75.        0.1048     0.0074
 5.074      85.       -0.5291     0.0149
 5.074      95.       -0.9489     0.0201
 5.074     105.       -0.7045     0.0160
 5.074     115.       -0.1902     0.0088
 5.074     125.        0.1254     0.0079
 5.074     135.        0.2599     0.0088
 5.074     145.        0.2544     0.0088
 5.074     155.        0.1555     0.0078
 5.074     165.        0.0718     0.0126
 5.094      35.       -0.2509     0.0085
 5.094      45.        0.1788     0.0073
 5.094      55.        0.4217     0.0103
 5.094      65.        0.3566     0.0101
 5.094      75.        0.0078     0.0064
 5.094      85.       -0.5289     0.0141
 5.094      95.       -0.8987     0.0190
 5.094     105.       -0.7674     0.0170
 5.094     115.       -0.2538     0.0096
 5.094     125.        0.1495     0.0084
 5.094     135.        0.3367     0.0099
 5.094     145.        0.3660     0.0103
 5.094     155.        0.2654     0.0092
 5.094     165.        0.1507     0.0136
 5.114      35.       -0.1272     0.0073
 5.114      45.        0.1892     0.0075
 5.114      55.        0.3454     0.0091
 5.114      65.        0.2191     0.0082
 5.114      75.       -0.1125     0.0064
 5.114      85.       -0.5316     0.0136
 5.114      95.       -0.8769     0.0185
 5.114     105.       -0.7666     0.0170
 5.114     115.       -0.2412     0.0098
 5.114     125.        0.1913     0.0090
 5.114     135.        0.4104     0.0111
 5.114     145.        0.4496     0.0117
 5.114     155.        0.4133     0.0113
 5.114     165.        0.2710     0.0152
 5.134      35.       -0.0478     0.0070
 5.134      45.        0.1559     0.0073
 5.134      55.        0.2403     0.0077
 5.134      65.        0.1051     0.0073
 5.134      75.       -0.2091     0.0071
 5.134      85.       -0.5825     0.0143
 5.134      95.       -0.8524     0.0181
 5.134     105.       -0.7354     0.0165
 5.134     115.       -0.2190     0.0098
 5.134     125.        0.2455     0.0098
 5.134     135.        0.4695     0.0121
 5.134     145.        0.5524     0.0134
 5.134     155.        0.5342     0.0134
 5.134     165.        0.4469     0.0181
 5.154      35.       -0.0114     0.0070
 5.154      45.        0.1583     0.0071
 5.154      55.        0.1302     0.0067
 5.154      65.       -0.0539     0.0071
 5.154      75.       -0.3255     0.0087
 5.154      85.       -0.6563     0.0156
 5.154      95.       -0.8495     0.0181
 5.154     105.       -0.6682     0.0155
 5.154     115.       -0.1656     0.0095
 5.154     125.        0.2398     0.0098
 5.154     135.        0.4525     0.0121
 5.154     145.        0.5686     0.0139
 5.154     155.        0.6053     0.0150
 5.154     165.        0.5787     0.0216
 5.174      35.        0.0525     0.0100
 5.174      45.        0.0606     0.0100
 5.174      55.       -0.0521     0.0100
 5.174      65.       -0.2726     0.0100
 5.174      75.       -0.4863     0.0111
 5.174      85.       -0.6487     0.0153
 5.174      95.       -0.6354     0.0145
 5.174     105.       -0.3940     0.0117
 5.174     115.        0.0247     0.0092
 5.174     125.        0.2757     0.0105
 5.174     135.        0.3342     0.0111
 5.174     145.        0.2453     0.0108
 5.174     155.        0.1222     0.0113
 5.174     165.       -0.0448     0.0226
 5.194      35.       -0.0625     0.0100
 5.194      55.       -0.3538     0.0094
 5.194      65.       -0.4281     0.0109
 5.194      75.       -0.4778     0.0109
 5.194      85.       -0.5238     0.0131
 5.194      95.       -0.5458     0.0128
 5.194     105.       -0.4627     0.0123
 5.194     115.       -0.1674     0.0101
 5.194     125.        0.1253     0.0108
 5.194     135.        0.3123     0.0125
 5.194     145.        0.3291     0.0132
 5.194     155.        0.2667     0.0132
 5.194     165.        0.2007     0.0223
 5.214      35.       -0.1381     0.0071
 5.214      45.       -0.2655     0.0085
 5.214      55.       -0.3534     0.0098
 5.214      65.       -0.3308     0.0098
 5.214      75.       -0.3432     0.0089
 5.214      85.       -0.3952     0.0115
 5.214      95.       -0.4192     0.0109
 5.214     105.       -0.4645     0.0123
 5.214     115.       -0.3386     0.0113
 5.214     125.       -0.1463     0.0106
 5.214     135.       -0.0263     0.0109
 5.214     145.        0.0053     0.0119
 5.214     155.        0.0348     0.0133
 5.214     165.       -0.0215     0.0269
 5.234      35.       -0.1318     0.0079
 5.234      45.       -0.2399     0.0094
 5.234      55.       -0.1040     0.0079
 5.234      65.        0.0105     0.0077
 5.234      75.        0.0429     0.0061
 5.234      85.       -0.0099     0.0089
 5.234      95.       -0.0900     0.0181
 5.234     105.       -0.3490     0.0216
 5.234     115.       -0.4785     0.0139
 5.234     125.       -0.5377     0.0251
 5.234     135.       -0.6520     0.0167
 5.234     145.       -0.7108     0.0177
 5.234     155.       -0.7134     0.0179
 5.234     165.       -0.6052     0.0228
 5.254      35.       -0.2965     0.0111
 5.254      45.       -0.1240     0.0094
 5.254      55.        0.1264     0.0076
 5.254      65.        0.1995     0.0084
 5.254      75.        0.2066     0.0074
 5.254      95.        0.0734     0.0094
 5.254     105.       -0.1447     0.0129
 5.254     115.       -0.6201     0.0191
 5.254     125.       -0.7862     0.0205
 5.254     135.       -0.7291     0.0185
 5.254     145.       -0.6116     0.0159
 5.254     155.       -0.4828     0.0134
 5.254     165.       -0.3240     0.0161
 5.274      35.       -0.1396     0.0103
 5.274      55.        0.1364     0.0071
 5.274      65.        0.1661     0.0077
 5.274      75.        0.1486     0.0066
 5.274      85.        0.0775     0.0102
 5.274      95.        0.0259     0.0106
 5.274     105.       -0.1816     0.0178
 5.274     115.       -0.6969     0.0273
 5.274     125.       -0.4254     0.0197
 5.274     135.       -0.2545     0.0134
 5.274     145.       -0.1708     0.0105
 5.274     155.       -0.1369     0.0089
 5.274     165.       -0.1214     0.0132
 5.294      35.       -0.1070     0.0093
 5.294      45.       -0.0066     0.0072
 5.294      55.        0.0684     0.0063
 5.294      65.        0.0761     0.0069
 5.294      75.        0.0448     0.0059
 5.294      85.       -0.0078     0.0101
 5.294      95.       -0.1654     0.0119
 5.294     105.       -0.3883     0.0217
 5.294     115.       -0.2834     0.0336
 5.294     125.        0.2276     0.0195
 5.294     135.        0.1571     0.0126
 5.294     145.        0.1335     0.0099
 5.294     155.        0.0771     0.0082
 5.294     165.        0.0350     0.0122
 5.314      35.       -0.1206     0.0089
 5.314      45.       -0.0702     0.0068
 5.314      55.       -0.0092     0.0057
 5.314      65.       -0.0094     0.0064
 5.314      75.       -0.0435     0.0058
 5.314      85.       -0.1275     0.0103
 5.314      95.       -0.2985     0.0127
 5.314     105.       -0.5676     0.0230
 5.314     115.        0.3655     0.0324
 5.314     125.        0.6225     0.0214
 5.314     135.        0.4292     0.0146
 5.314     145.        0.2862     0.0109
 5.314     155.        0.1963     0.0088
 5.334      35.       -0.1495     0.0088
 5.334      45.       -0.1133     0.0070
 5.334      55.       -0.0701     0.0059
 5.334      65.       -0.0818     0.0068
 5.334      75.       -0.1223     0.0064
 5.334      85.       -0.2482     0.0114
 5.334      95.       -0.4214     0.0139
 5.334     105.       -0.7159     0.0232
 5.334     115.        0.5258     0.0304
 5.334     125.        0.8234     0.0229
 5.334     135.        0.5607     0.0158
 5.334     145.        0.3849     0.0118
 5.334     155.        0.2241     0.0088
 5.334     165.        0.1041     0.0115
 5.354      35.       -0.0634     0.0077
 5.354      45.       -0.0506     0.0062
 5.354      55.       -0.0751     0.0058
 5.354      65.       -0.1557     0.0071
 5.354      75.       -0.2862     0.0081
 5.354      85.       -0.4370     0.0131
 5.354      95.       -0.6611     0.0170
 5.354     105.       -0.8265     0.0240
 5.354     115.        0.5786     0.0296
 5.354     125.        0.6824     0.0212
 5.354     135.        0.3682     0.0136
 5.354     145.        0.2088     0.0100
 5.354     155.        0.1186     0.0081
 5.354     165.        0.0721     0.0117
 5.374      35.       -0.0151     0.0075
 5.374      45.       -0.0913     0.0063
 5.374      55.       -0.1325     0.0059
 5.374      65.       -0.1637     0.0069
 5.374      75.       -0.2419     0.0074
 5.374      85.       -0.3349     0.0121
 5.374      95.       -0.5248     0.0155
 5.374     105.       -0.5391     0.0232
 5.374     115.        0.8648     0.0271
 5.374     125.        0.8189     0.0214
 5.374     135.        0.5725     0.0158
 5.374     145.        0.4034     0.0123
 5.374     155.        0.2972     0.0102
 5.374     165.        0.1726     0.0134
 5.394      35.       -0.1057     0.0077
 5.394      45.       -0.1695     0.0067
 5.394      55.       -0.1838     0.0064
 5.394      65.       -0.1818     0.0071
 5.394      75.       -0.2380     0.0073
 5.394      85.       -0.3203     0.0120
 5.394      95.       -0.4462     0.0145
 5.394     105.       -0.4407     0.0216
 5.394     115.        0.7379     0.0246
 5.394     125.        0.8345     0.0209
 5.394     135.        0.6668     0.0166
 5.394     145.        0.4590     0.0127
 5.394     155.        0.3595     0.0106
 5.394     165.        0.1682     0.0128
 5.414      35.       -0.1449     0.0075
 5.414      45.       -0.2231     0.0073
 5.414      55.       -0.2232     0.0068
 5.414      65.       -0.2171     0.0074
 5.414      75.       -0.2607     0.0076
 5.414      85.       -0.3180     0.0120
 5.414      95.       -0.4527     0.0145
 5.414     105.       -0.3894     0.0210
 5.414     115.        0.7202     0.0237
 5.414     125.        0.8331     0.0206
 5.414     135.        0.6492     0.0161
 5.414     145.        0.4757     0.0128
 5.414     155.        0.3523     0.0104
 5.414     165.        0.2238     0.0128
 5.434      35.       -0.1601     0.0077
 5.434      45.       -0.2250     0.0071
 5.434      55.       -0.2320     0.0069
 5.434      65.       -0.2319     0.0076
 5.434      75.       -0.2663     0.0078
 5.434      85.       -0.3435     0.0124
 5.434      95.       -0.4302     0.0146
 5.434     105.       -0.2961     0.0204
 5.434     115.        0.7221     0.0231
 5.434     125.        0.8031     0.0202
 5.434     135.        0.6115     0.0157
 5.434     145.        0.4762     0.0128
 5.434     155.        0.3231     0.0100
 5.434     165.        0.1899     0.0127
 5.454      35.       -0.1930     0.0080
 5.454      45.       -0.2587     0.0076
 5.454      55.       -0.2443     0.0071
 5.454      65.       -0.2460     0.0079
 5.454      75.       -0.2742     0.0080
 5.454      85.       -0.3045     0.0124
 5.454      95.       -0.4225     0.0148
 5.454     105.       -0.2708     0.0203
 5.454     115.        0.6301     0.0223
 5.454     125.        0.7120     0.0190
 5.454     135.        0.5757     0.0152
 5.454     145.        0.4681     0.0127
 5.454     155.        0.3263     0.0101
 5.454     165.        0.1779     0.0125
 5.474      35.       -0.2020     0.0080
 5.474      45.       -0.2567     0.0076
 5.474      55.       -0.2482     0.0072
 5.474      65.       -0.2375     0.0078
 5.474      75.       -0.2523     0.0078
 5.474      85.       -0.3078     0.0124
 5.474      95.       -0.3791     0.0147
 5.474     105.       -0.2746     0.0205
 5.474     115.        0.5692     0.0213
 5.474     125.        0.6593     0.0183
 5.474     135.        0.5152     0.0144
 5.474     145.        0.3953     0.0117
 5.474     155.        0.2705     0.0094
 5.474     165.        0.1494     0.0122
 5.494      35.       -0.2275     0.0082
 5.494      55.       -0.2832     0.0076
 5.494      65.       -0.2724     0.0083
 5.494      75.       -0.2856     0.0084
 5.494      85.       -0.3135     0.0131
 5.494      95.       -0.3559     0.0150
 5.494     105.       -0.2088     0.0211
 5.494     115.        0.5026     0.0208
 5.494     125.        0.5417     0.0170
 5.494     135.        0.4601     0.0137
 5.494     145.        0.3531     0.0113
 5.494     155.        0.2748     0.0094
 5.494     165.        0.1696     0.0124
 5.514      35.       -0.2332     0.0083
 5.514      45.       -0.3211     0.0085
 5.514      55.       -0.2987     0.0081
 5.514      65.       -0.2860     0.0088
 5.514      75.       -0.2796     0.0086
 5.514      85.       -0.2747     0.0134
 5.514      95.       -0.3063     0.0151
 5.514     105.       -0.2197     0.0212
 5.514     115.        0.3368     0.0203
 5.514     125.        0.4080     0.0162
 5.514     135.        0.3306     0.0125
 5.514     145.        0.2608     0.0103
 5.514     155.        0.2203     0.0088
 5.514     165.        0.1149     0.0119
 5.534      35.       -0.2996     0.0088
 5.534      45.       -0.3706     0.0090
 5.534      55.       -0.3306     0.0083
 5.534      65.       -0.3219     0.0089
 5.534      75.       -0.2754     0.0083
 5.534      85.       -0.3049     0.0134
 5.534      95.       -0.3484     0.0159
 5.534     105.       -0.2355     0.0228
 5.534     115.        0.2812     0.0185
 5.534     135.        0.3455     0.0120
 5.534     145.        0.2846     0.0101
 5.534     155.        0.2516     0.0089
 5.534     165.        0.1426     0.0118
 5.554      35.       -0.3470     0.0096
 5.554      45.       -0.3992     0.0098
 5.554      55.       -0.3889     0.0095
 5.554      65.       -0.3712     0.0100
 5.554      75.       -0.3539     0.0097
 5.554      85.       -0.4060     0.0150
 5.554      95.       -0.4311     0.0172
 5.554     105.       -0.2784     0.0220
 5.554     115.        0.0959     0.0169
 5.554     125.        0.2451     0.0134
 5.554     135.        0.2297     0.0109
 5.554     145.        0.2164     0.0096
 5.554     155.        0.1809     0.0084
 5.554     165.        0.1141     0.0119
 5.574      35.       -0.3544     0.0098
 5.574      45.       -0.4330     0.0105
 5.574      55.       -0.4228     0.0103
 5.574      65.       -0.4009     0.0107
 5.574      75.       -0.3881     0.0106
 5.574      85.       -0.4126     0.0158
 5.574      95.       -0.4597     0.0183
 5.574     105.       -0.3920     0.0215
 5.574     115.       -0.0010     0.0159
 5.574     125.        0.0990     0.0123
 5.574     135.        0.1179     0.0101
 5.574     145.        0.1228     0.0089
 5.574     155.        0.1210     0.0079
 5.574     165.        0.0905     0.0118
 5.594      35.       -0.4144     0.0106
 5.594      45.       -0.5161     0.0119
 5.594      55.       -0.5208     0.0120
 5.594      65.       -0.5064     0.0125
 5.594      75.       -0.5360     0.0131
 5.594      85.       -0.5499     0.0176
 5.594      95.       -0.6310     0.0197
 5.594     115.       -0.0502     0.0142
 5.594     125.       -0.0030     0.0200
 5.594     135.        0.0688     0.0094
 5.594     145.        0.0771     0.0084
 5.594     155.        0.0922     0.0075
 5.594     165.        0.0557     0.0114
 5.614      35.       -0.3936     0.0097
 5.614      45.       -0.5291     0.0116
 5.614      55.       -0.5301     0.0117
 5.614      65.       -0.4899     0.0118
 5.614      75.       -0.4443     0.0112
 5.614      85.       -0.3668     0.0153
 5.614      95.       -0.2104     0.0152
 5.614     105.       -0.1398     0.0164
 5.614     115.       -0.0376     0.0135
 5.614     135.       -0.0091     0.0096
 5.614     145.       -0.0114     0.0086
 5.614     155.        0.0043     0.0076
 5.614     165.       -0.0081     0.0118
 5.634      35.       -0.5457     0.0126
 5.634      45.       -0.5663     0.0125
 5.634      55.       -0.4920     0.0113
 5.634      65.       -0.3660     0.0104
 5.634      75.       -0.2293     0.0089
 5.634      85.       -0.0417     0.0151
 5.634      95.        0.1738     0.0170
 5.634     105.        0.0970     0.0204
 5.634     115.       -0.0367     0.0175
 5.634     125.       -0.0777     0.0150
 5.634     135.       -0.0819     0.0129
 5.634     145.       -0.0445     0.0117
 5.634     155.       -0.0304     0.0105
 5.634     165.       -0.0301     0.0164
 5.654      35.       -0.5342     0.0126
 5.654      45.       -0.4975     0.0115
 5.654      55.       -0.3802     0.0096
 5.654      65.       -0.2297     0.0089
 5.654      75.       -0.0577     0.0081
 5.654      85.        0.1175     0.0167
 5.654      95.        0.1631     0.0194
 5.654     105.       -0.3573     0.0229
 5.654     115.       -0.4888     0.0203
 5.654     125.       -0.4563     0.0179
 5.654     135.       -0.3907     0.0160
 5.654     145.       -0.3493     0.0148
 5.654     155.       -0.2478     0.0133
 5.654     165.       -0.1872     0.0199
 5.674      35.       -0.4981     0.0116
 5.674      45.       -0.4418     0.0103
 5.674      55.       -0.3110     0.0083
 5.674      65.       -0.1634     0.0081
 5.674      75.        0.0056     0.0080
 5.674      95.       -0.0029     0.0195
 5.674     105.       -0.5401     0.0218
 5.674     115.       -0.6289     0.0196
 5.674     125.       -0.5833     0.0177
 5.674     135.       -0.5178     0.0163
 5.674     145.       -0.4216     0.0152
 5.674     155.       -0.3327     0.0141
 5.674     165.       -0.2264     0.0208
 5.694      35.       -0.4896     0.0116
 5.694      45.       -0.3954     0.0096
 5.694      55.       -0.2480     0.0074
 5.694      65.       -0.0852     0.0078
 5.694      75.        0.1124     0.0086
 5.694      85.        0.2176     0.0183
 5.694      95.       -0.1925     0.0191
 5.694     105.       -0.6180     0.0209
 5.694     115.       -0.6577     0.0192
 5.694     125.       -0.5994     0.0174
 5.694     135.       -0.5203     0.0162
 5.694     145.       -0.4798     0.0160
 5.694     155.       -0.4425     0.0157
 5.694     165.       -0.3624     0.0237
 5.714      35.       -0.4662     0.0111
 5.714      45.       -0.3675     0.0090
 5.714      55.       -0.1987     0.0068
 5.714      65.       -0.0240     0.0077
 5.714      75.        0.1355     0.0089
 5.714      85.        0.1770     0.0180
 5.714      95.       -0.2439     0.0180
 5.714     105.       -0.6329     0.0196
 5.714     115.       -0.5938     0.0175
 5.714     125.       -0.4812     0.0156
 5.714     135.       -0.4452     0.0153
 5.714     145.       -0.4414     0.0158
 5.714     155.       -0.4424     0.0165
 5.714     165.       -0.4311     0.0276
 5.734      35.       -0.4010     0.0099
 5.734      45.       -0.2859     0.0077
 5.734      55.       -0.1249     0.0060
 5.734      65.        0.0892     0.0077
 5.734      75.        0.2652     0.0097
 5.734      85.        0.3172     0.0174
 5.734      95.       -0.0762     0.0155
 5.734     105.       -0.4347     0.0167
 5.734     115.       -0.3491     0.0143
 5.734     125.       -0.2190     0.0129
 5.734     135.       -0.1643     0.0128
 5.734     145.       -0.1375     0.0140
 5.734     155.       -0.1668     0.0159
 5.734     165.       -0.1775     0.0320
 5.754      35.       -0.3808     0.0097
 5.754      45.       -0.2408     0.0071
 5.754      55.       -0.0383     0.0053
 5.754      65.        0.1921     0.0083
 5.754      75.        0.3956     0.0113
 5.754      85.        0.4158     0.0171
 5.754      95.       -0.0423     0.0138
 5.754     105.       -0.3872     0.0154
 5.754     115.       -0.3147     0.0135
 5.754     125.       -0.1676     0.0121
 5.754     135.       -0.0243     0.0120
 5.754     145.        0.0582     0.0133
 5.754     165.        0.1068     0.0317
 5.774      35.       -0.3528     0.0095
 5.774      45.       -0.1832     0.0063
 5.774      55.        0.0174     0.0055
 5.774      65.        0.2898     0.0097
 5.774      75.        0.4785     0.0129
 5.774      85.        0.3643     0.0163
 5.774      95.       -0.1310     0.0133
 5.774     105.       -0.4472     0.0157
 5.774     115.       -0.3442     0.0137
 5.774     125.       -0.1320     0.0117
 5.774     135.        0.0290     0.0118
 5.774     145.        0.1738     0.0134
 5.774     155.        0.2799     0.0161
 5.774     165.        0.3807     0.0338
 5.794      35.       -0.2601     0.0078
 5.794      45.       -0.1355     0.0058
 5.794      55.        0.1149     0.0060
 5.794      65.        0.3443     0.0103
 5.794      75.        0.5175     0.0133
 5.794      85.        0.3440     0.0156
 5.794      95.       -0.1115     0.0127
 5.794     105.       -0.4405     0.0153
 5.794     115.       -0.3075     0.0131
 5.794     125.       -0.0781     0.0116
 5.794     135.        0.1103     0.0118
 5.794     145.        0.2746     0.0137
 5.794     155.        0.4439     0.0169
 5.794     165.        0.5151     0.0317
 5.814      35.       -0.2565     0.0078
 5.814      45.       -0.0954     0.0057
 5.814      55.        0.1624     0.0066
 5.814      65.        0.3961     0.0113
 5.814      75.        0.5211     0.0135
 5.814      85.        0.3190     0.0158
 5.814      95.       -0.1606     0.0132
 5.814     105.       -0.4809     0.0162
 5.814     115.       -0.3370     0.0138
 5.814     125.       -0.0388     0.0118
 5.814     135.        0.2494     0.0131
 5.814     145.        0.4486     0.0159
 5.814     155.        0.6747     0.0198
 5.814     165.        0.7476     0.0314
 5.834      35.       -0.2252     0.0073
 5.834      45.       -0.0332     0.0052
 5.834      55.        0.1948     0.0069
 5.834      65.        0.3933     0.0111
 5.834      75.        0.4858     0.0127
 5.834      85.        0.2752     0.0146
 5.834      95.       -0.1999     0.0130
 5.834     105.       -0.4011     0.0152
 5.834     115.       -0.2612     0.0134
 5.834     125.        0.0695     0.0122
 5.834     135.        0.3489     0.0141
 5.834     145.        0.5704     0.0174
 5.834     155.        0.7242     0.0203
 5.834     165.        0.7955     0.0302
 5.854      35.       -0.1937     0.0069
 5.854      45.       -0.0088     0.0051
 5.854      55.        0.2261     0.0074
 5.854      65.        0.4166     0.0116
 5.854      75.        0.4759     0.0126
 5.854      85.        0.2525     0.0147
 5.854      95.       -0.2013     0.0136
 5.854     105.       -0.4293     0.0164
 5.854     115.       -0.1685     0.0136
 5.854     125.        0.1620     0.0131
 5.854     135.        0.4657     0.0159
 5.854     145.        0.6922     0.0194
 5.854     155.        0.8484     0.0224
 5.854     165.        0.8114     0.0316
 5.874      35.       -0.1927     0.0066
 5.874      45.       -0.0389     0.0051
 5.874      55.        0.1908     0.0067
 5.874      65.        0.3596     0.0105
 5.874      75.        0.4558     0.0121
 5.874      85.        0.2721     0.0158
 5.874      95.       -0.1745     0.0150
 5.874     105.       -0.3985     0.0180
 5.874     115.        0.0075     0.0147
 5.874     125.        0.4007     0.0154
 5.874     135.        0.7144     0.0187
 5.874     145.        0.8552     0.0211
 5.874     155.        1.0108     0.0237
 5.874     165.        1.0187     0.0306
 5.894      35.       -0.1515     0.0061
 5.894      45.       -0.0118     0.0052
 5.894      55.        0.1975     0.0070
 5.894      65.        0.3906     0.0113
 5.894      75.        0.5598     0.0143
 5.894      85.        0.4673     0.0208
 5.894      95.       -0.0093     0.0202
 5.894     105.        0.0928     0.0184
 5.894     115.        0.5039     0.0165
 5.894     125.        0.7712     0.0188
 5.894     135.        0.9126     0.0206
 5.894     145.        0.9648     0.0214
 5.894     155.        0.9335     0.0210
 5.894     165.        0.7480     0.0231
 5.914      35.       -0.1683     0.0068
 5.914      45.       -0.0104     0.0057
 5.914      55.        0.2511     0.0084
 5.914      65.        0.5378     0.0143
 5.914      75.        0.7172     0.0173
 5.914      85.        0.5046     0.0203
 5.914      95.        0.0989     0.0143
 5.914     105.        0.2049     0.0127
 5.914     115.        0.4629     0.0135
 5.914     125.        0.6632     0.0159
 5.914     135.        0.8057     0.0181
 5.914     145.        0.8394     0.0186
 5.914     155.        0.8129     0.0182
 5.914     165.        0.6281     0.0188
 5.934      35.       -0.1604     0.0068
 5.934      45.        0.0603     0.0060
 5.934      55.        0.3422     0.0095
 5.934      65.        0.6000     0.0147
 5.934      75.        0.6528     0.0154
 5.934      85.        0.4098     0.0159
 5.934      95.        0.0804     0.0110
 5.934     105.        0.0584     0.0103
 5.934     115.        0.2492     0.0104
 5.934     125.        0.4584     0.0124
 5.934     135.        0.6413     0.0151
 5.934     145.        0.7333     0.0167
 5.934     155.        0.7461     0.0170
 5.934     165.        0.5922     0.0185
 5.954      35.       -0.1500     0.0069
 5.954      45.        0.0857     0.0063
 5.954      55.        0.3518     0.0096
 5.954      65.        0.6037     0.0147
 5.954      75.        0.6371     0.0150
 5.954      85.        0.3662     0.0147
 5.954      95.        0.0128     0.0105
 5.954     105.       -0.0549     0.0104
 5.954     115.        0.1725     0.0101
 5.954     125.        0.4250     0.0123
 5.954     135.        0.6285     0.0152
 5.954     145.        0.7542     0.0174
 5.954     155.        0.7962     0.0182
 5.954     165.        0.6436     0.0203
 5.974      35.       -0.1262     0.0067
 5.974      45.        0.0985     0.0060
 5.974      55.        0.3708     0.0098
 5.974      65.        0.6019     0.0145
 5.974      75.        0.5959     0.0142
 5.974      85.        0.3209     0.0141
 5.974      95.       -0.0006     0.0103
 5.974     105.       -0.0446     0.0104
 5.974     115.        0.0719     0.0100
 5.974     125.        0.3758     0.0118
 5.974     135.        0.6384     0.0154
 5.974     145.        0.7918     0.0180
 5.974     155.        0.8372     0.0189
 5.974     165.        0.7216     0.0214
 5.994      35.       -0.1160     0.0066
 5.994      45.        0.0850     0.0061
 5.994      55.        0.3727     0.0098
 5.994      65.        0.5937     0.0144
 5.994      75.        0.6141     0.0145
 5.994      85.        0.3168     0.0140
 5.994      95.       -0.0069     0.0103
 5.994     105.       -0.0889     0.0106
 5.994     115.        0.1033     0.0101
 5.994     125.        0.4232     0.0127
 5.994     135.        0.6985     0.0166
 5.994     145.        0.8560     0.0193
 5.994     155.        0.9102     0.0203
 5.994     165.        0.7838     0.0226
 6.014      35.       -0.1359     0.0066
 6.014      45.        0.0650     0.0060
 6.014      55.        0.3637     0.0095
 6.014      65.        0.5585     0.0137
 6.014      75.        0.5709     0.0136
 6.014      85.        0.3066     0.0133
 6.014      95.       -0.0744     0.0101
 6.014     105.       -0.2006     0.0110
 6.014     115.        0.0244     0.0099
 6.014     125.        0.3693     0.0119
 6.014     135.        0.6616     0.0158
 6.014     145.        0.8530     0.0190
 6.014     155.        0.9222     0.0202
 6.014     165.        0.713      0.0207
 6.034      35.       -0.1658     0.0068
 6.034      45.        0.0791     0.0060
 6.034      55.        0.3521     0.0093
 6.034      65.        0.5743     0.0138
 6.034      75.        0.5013     0.0124
 6.034      85.        0.1715     0.0123
 6.034      95.       -0.2096     0.0106
 6.034     105.       -0.2781     0.0116
 6.034     115.       -0.0125     0.0100
 6.034     125.        0.3856     0.0123
 6.034     135.        0.7608     0.0172
 6.034     145.        0.9189     0.0198
 6.034     155.        0.8881     0.0192
 6.034     165.        0.7147     0.0194
 6.054      35.       -0.1271     0.0065
 6.054      45.        0.1662     0.0067
 6.054      55.        0.4468     0.0110
 6.054      65.        0.5218     0.0133
 6.054      75.        0.3596     0.0107
 6.054      85.       -0.0507     0.0128
 6.054      95.       -0.4319     0.0136
 6.054     105.       -0.3627     0.0136
 6.054     115.        0.0068     0.0117
 6.054     125.        0.4801     0.0148
 6.054     135.        0.7844     0.0185
 6.054     145.        0.8618     0.0194
 6.054     155.        0.7342     0.0170
 6.054     165.        0.5102     0.0171
 6.075      35.        0.0120     0.0061
 6.075      45.        0.2700     0.0079
 6.075      55.        0.4600     0.0111
 6.075      65.        0.5237     0.0131
 6.075      75.        0.3943     0.0109
 6.075      85.        0.0835     0.0128
 6.075      95.       -0.1671     0.0120
 6.075     105.       -0.2248     0.0135
 6.075     115.        0.1074     0.0124
 6.075     125.        0.3791     0.0140
 6.075     135.        0.6411     0.0166
 6.075     145.        0.6374     0.0164
 6.075     155.        0.5708     0.0150
 6.075     165.        0.4009     0.0178
 6.095      35.        0.0531     0.0065
 6.095      45.        0.2899     0.0087
 6.095      55.        0.4786     0.0122
 6.095      65.        0.5611     0.0146
 6.095      75.        0.4847     0.0131
 6.095      85.        0.2129     0.0144
 6.095      95.       -0.0010     0.0126
 6.095     105.       -0.1395     0.0139
 6.095     115.        0.1460     0.0131
 6.095     125.        0.4354     0.0150
 6.095     135.        0.6019     0.0169
 6.095     145.        0.7060     0.0186
 6.095     155.        0.6615     0.0178
 6.095     165.        0.4858     0.0206
ENDDATA           1465
ENDSUBENT         1474
ENDENTRY             3
