ENTRY            D0876   20180212   20180316   20180313       D113
SUBENT        D0876001   20180212   20180316   20180313       D113
BIB                 11         29
TITLE      Implementation of TTIK method and time of flight for
            resonance reaction studies at heavy ion accelerator
            DC-60
AUTHOR     (A.K.Nurmukhanbetova, V.Z.Goldberg, D.K.Nauruzbayev,
            G.V.Rogachev, M.S.Golovkov, N.A.Mynbayev, S.Artemov,
            A.Karakhodjaev, K.Kuterbekov, A.Rakhymzhanov,
            Zh.Berdibek, I.Ivanov, A.Tikhonov, V.I.Zherebchevsky,
            S.Yu.Torilov, R.E.Tribble)
INSTITUTE  (1USATAM,4ZZZDUB,4UZ UZB,4KASATN,4KASKAZ,4RUSSUL)
           (4KASKAS) Nazarbayev University, Astana
           (4RUSRUS) Dubna State University, Dubna
REFERENCE  (J,NIM/A,847,125,2017)
FACILITY   (CYCLO,4KASATN) DC-60 cyclotron
SAMPLE     Scattering chamber filled with H2 or He which pressure
            is adjusted to stop the ion beam at 30-50 mm in front
            of the central detector.
METHOD     (TTM,TOF)
DETECTOR   (SI) 15 Si detectors with an active area of 10x10 mm2
            and 350 um thickness at the back end of the chamber
            to detect particles at different angles including
            zero degrees.
           (SI) 8 monitor detectors placed around the entrance
            window at a distance of 80 mm from it to detect ions
            of the beam elastically scattered from entrance foil
            at 21deg (lab.).
ERR-ANALYS (ERR-S) Statistical uncertainty
STATUS     (APRVD) Approved by Dosbol Nauruzbayev (2018-02-13)
HISTORY    (20180202R) Received by e-mail from D.Nauruzbayev
           (20180203C) N.Kenzhebayev
ENDBIB              29
NOCOMMON             0          0
ENDSUBENT           32
SUBENT        D0876002   20180212   20180316   20180313       D113
BIB                  2          2
REACTION   ((1-H-1(7-N-15,EL)1-H-1,,DA)=(7-N-15(P,EL)7-N-15,,DA))
STATUS     (TABLE) Fig.4 of Nucl.Instrum.Methods.A847(2017)125
ENDBIB               2
COMMON               1          3
ANG-CM
ADEG
 180.
ENDCOMMON            3
DATA                 3        459
E-EXC-CMP  DATA-CM    ERR-S
MEV        MB/SR      MB/SR
    12.5391   351.6588     0.6150
    12.5413   351.3999     0.6168
    12.5435   345.8853     0.6112
    12.5457   342.4550     0.6083
    12.5480   340.3689     0.6075
    12.5502   336.9160     0.6048
    12.5524   335.2186     0.6049
    12.5547   329.8727     0.5985
    12.5569   324.8849     0.5937
    12.5591   322.8110     0.5931
    12.5614   321.1278     0.5932
    12.5636   317.5280     0.5916
    12.5659   316.0786     0.5916
    12.5681   311.5956     0.5872
    12.5703   306.6593     0.5811
    12.5726   303.0409     0.5792
    12.5748   298.8619     0.5755
    12.5771   297.2542     0.5751
    12.5793   293.4213     0.5716
    12.5816   289.1567     0.5676
    12.5838   288.7433     0.5701
    12.5861   286.3284     0.5691
    12.5883   281.0791     0.5625
    12.5905   277.5088     0.5589
    12.5928   275.1617     0.5580
    12.5950   273.0210     0.5576
    12.5973   268.0631     0.5516
    12.5996   264.1117     0.5466
    12.6018   262.6243     0.5468
    12.6041   261.0458     0.5466
    12.6063   258.4890     0.5438
    12.6086   253.8682     0.5377
    12.6109   255.1127     0.5436
    12.6131   249.7938     0.5362
    12.6154   247.1503     0.5339
    12.6176   244.4757     0.5316
    12.6199   241.8779     0.5297
    12.6222   240.1358     0.5296
    12.6244   238.1828     0.5278
    12.6267   234.3915     0.5225
    12.6290   233.8701     0.5254
    12.6312   227.5014     0.5156
    12.6335   227.9817     0.5180
    12.6358   223.3497     0.5118
    12.6381   223.0417     0.5139
    12.6403   220.0450     0.5102
    12.6426   216.5572     0.5059
    12.6449   214.6745     0.5049
    12.6472   213.1979     0.5049
    12.6494   211.1316     0.5034
    12.6517   209.4568     0.5022
    12.6540   208.3325     0.5021
    12.6563   205.0414     0.4979
    12.6585   201.0130     0.4923
    12.6608   198.3138     0.4892
    12.6631   198.4053     0.4911
    12.6654   195.0240     0.4869
    12.6676   191.5263     0.4818
    12.6699   191.5804     0.4841
    12.6722   187.9958     0.4793
    12.6745   186.5153     0.4788
    12.6768   184.4961     0.4767
    12.6790   182.6221     0.4755
    12.6813   181.4155     0.4747
    12.6836   178.4290     0.4704
    12.6859   176.7397     0.4678
    12.6882   173.7481     0.4647
    12.6904   172.8333     0.4646
    12.6927   171.0821     0.4630
    12.6950   169.2450     0.4608
    12.6973   165.5559     0.4546
    12.6996   165.2170     0.4556
    12.7019   162.1454     0.4517
    12.7042   160.5495     0.4511
    12.7065   158.7225     0.4488
    12.7088   157.5044     0.4485
    12.7110   153.7156     0.4408
    12.7133   151.3681     0.4376
    12.7156   150.0957     0.4375
    12.7179   148.6072     0.4355
    12.7202   147.6370     0.4358
    12.7225   143.5058     0.4275
    12.7248   143.6572     0.4318
    12.7271   140.9767     0.4256
    12.7294   139.5860     0.4253
    12.7317   136.9970     0.4214
    12.7340   136.3025     0.4221
    12.7363   134.2742     0.4191
    12.7386   132.0626     0.4153
    12.7409   130.0228     0.4121
    12.7432   127.3166     0.4078
    12.7456   125.5006     0.4066
    12.7479   123.1926     0.4010
    12.7502   123.3668     0.4048
    12.7525   119.5550     0.3969
    12.7548   119.7314     0.3988
    12.7571   118.0782     0.3962
    12.7594   116.2025     0.3930
    12.7617   116.6327     0.3956
    12.7640   116.0350     0.3947
    12.7663   117.1728     0.3985
    12.7686   116.5025     0.3953
    12.7709   117.7422     0.3973
    12.7732   121.2027     0.4050
    12.7755   123.0487     0.4063
    12.7779   130.3280     0.4222
    12.7802   136.6767     0.4321
    12.7825   142.7458     0.4397
    12.7848   151.3740     0.4549
    12.7871   160.7385     0.4691
    12.7894   170.2584     0.4849
    12.7917   178.6963     0.4968
    12.7940   185.3356     0.5059
    12.7963   190.6603     0.5131
    12.7987   195.3041     0.5203
    12.8010   197.9044     0.5254
    12.8033   199.1990     0.5272
    12.8056   198.2995     0.5273
    12.8079   197.0355     0.5270
    12.8102   193.2799     0.5220
    12.8126   190.3677     0.5181
    12.8149   187.2266     0.5138
    12.8172   181.7414     0.5062
    12.8195   179.9176     0.5059
    12.8218   175.5404     0.5002
    12.8241   173.6488     0.4999
    12.8264   168.1727     0.4899
    12.8288   166.9325     0.4904
    12.8311   162.9087     0.4846
    12.8334   159.4284     0.4794
    12.8357   155.1889     0.4730
    12.8380   152.8816     0.4703
    12.8403   151.3339     0.4689
    12.8427   147.5991     0.4625
    12.8450   146.0735     0.4617
    12.8473   142.3745     0.4558
    12.8496   142.1306     0.4569
    12.8519   139.8572     0.4543
    12.8543   136.9012     0.4495
    12.8566   135.4592     0.4474
    12.8589   133.1842     0.4436
    12.8612   131.2763     0.4405
    12.8635   130.3510     0.4414
    12.8659   128.9262     0.4390
    12.8682   125.9738     0.4340
    12.8705   124.6931     0.4321
    12.8728   122.7671     0.4288
    12.8751   120.6270     0.4250
    12.8775   120.4730     0.4263
    12.8798   119.2049     0.4250
    12.8821   118.0229     0.4229
    12.8844   115.9383     0.4196
    12.8868   115.7822     0.4213
    12.8891   112.1588     0.4129
    12.8914   112.8665     0.4165
    12.8937   110.8574     0.4128
    12.8961   109.5861     0.4104
    12.8984   108.4033     0.4085
    12.9007   106.5364     0.4052
    12.9031   104.5222     0.4013
    12.9054   105.2413     0.4048
    12.9077   102.8532     0.4006
    12.9101   101.8811     0.3987
    12.9124   101.5308     0.3982
    12.9147    99.9316     0.3955
    12.9171    99.3854     0.3944
    12.9194    97.0896     0.3902
    12.9217    96.4847     0.3906
    12.9241    95.4515     0.3890
    12.9264    93.6824     0.3836
    12.9287    93.8524     0.3863
    12.9311    92.9094     0.3844
    12.9334    91.6611     0.3818
    12.9357    91.6689     0.3831
    12.9381    90.6499     0.3810
    12.9404    90.0493     0.3806
    12.9428    90.4873     0.3842
    12.9451    91.0375     0.3837
    12.9474    90.9664     0.3836
    12.9498    93.2142     0.3894
    12.9521    97.7653     0.4003
    12.9544    99.8910     0.4033
    12.9568   105.9961     0.4166
    12.9591   110.7291     0.4269
    12.9615   113.6462     0.4342
    12.9638   108.8692     0.4233
    12.9661    99.6632     0.4064
    12.9685    86.6615     0.3803
    12.9708    74.2551     0.3520
    12.9731    64.1175     0.3257
    12.9755    59.7229     0.3164
    12.9778    57.8114     0.3113
    12.9801    57.0066     0.3092
    12.9825    56.7623     0.3076
    12.9848    56.7279     0.3099
    12.9872    56.5030     0.3100
    12.9895    56.2222     0.3078
    12.9918    56.3218     0.3088
    12.9942    56.2045     0.3100
    12.9965    56.1139     0.3097
    12.9988    55.6301     0.3084
    13.0012    56.0024     0.3116
    13.0035    55.9391     0.3104
    13.0059    56.0602     0.3113
    13.0082    56.0089     0.3103
    13.0105    56.3450     0.3130
    13.0129    56.4628     0.3138
    13.0152    57.3944     0.3164
    13.0175    57.8257     0.3180
    13.0199    57.9883     0.3190
    13.0222    59.5590     0.3233
    13.0246    59.9679     0.3244
    13.0269    61.4063     0.3286
    13.0292    63.3318     0.3359
    13.0316    64.8643     0.3400
    13.0339    65.9079     0.3415
    13.0363    67.2593     0.3447
    13.0386    71.1711     0.3573
    13.0409    73.4419     0.3629
    13.0433    76.0983     0.3695
    13.0456    78.8014     0.3760
    13.0480    82.9504     0.3871
    13.0503    85.4933     0.3929
    13.0526    89.6345     0.4023
    13.0550    93.4596     0.4108
    13.0573    98.8952     0.4259
    13.0597   102.7050     0.4325
    13.0620   107.2240     0.4429
    13.0643   110.5273     0.4484
    13.0667   117.1579     0.4649
    13.0690   122.1770     0.4753
    13.0714   127.4186     0.4854
    13.0737   131.1847     0.4925
    13.0761   136.5769     0.5040
    13.0784   141.8523     0.5141
    13.0807   147.3920     0.5241
    13.0831   153.0435     0.5340
    13.0854   156.4981     0.5400
    13.0878   161.5198     0.5508
    13.0901   166.6291     0.5614
    13.0925   168.1297     0.5620
    13.0948   171.5149     0.5676
    13.0972   177.3766     0.5798
    13.0995   181.1421     0.5876
    13.1019   181.8762     0.5870
    13.1042   184.0872     0.5906
    13.1066   185.9615     0.5937
    13.1089   190.8583     0.6066
    13.1113   192.2329     0.6088
    13.1136   191.5001     0.6055
    13.1160   193.6470     0.6084
    13.1183   193.4889     0.6102
    13.1207   195.3033     0.6164
    13.1230   195.6029     0.6169
    13.1254   195.8937     0.6167
    13.1277   193.9187     0.6117
    13.1301   196.2870     0.6198
    13.1324   196.7648     0.6217
    13.1348   196.3483     0.6211
    13.1372   196.5683     0.6214
    13.1395   195.3170     0.6194
    13.1419   198.2177     0.6298
    13.1442   195.8032     0.6247
    13.1466   194.3357     0.6210
    13.1489   193.2941     0.6193
    13.1513   194.7984     0.6240
    13.1536   194.7761     0.6275
    13.1560   193.7855     0.6259
    13.1583   193.1247     0.6242
    13.1607   189.9085     0.6170
    13.1630   189.6759     0.6167
    13.1654   191.7808     0.6260
    13.1677   190.5016     0.6239
    13.1701   189.4166     0.6221
    13.1724   189.0222     0.6215
    13.1748   187.4529     0.6189
    13.1771   189.4493     0.6266
    13.1794   186.9664     0.6216
    13.1818   186.4498     0.6207
    13.1841   185.9745     0.6199
    13.1865   184.3979     0.6173
    13.1888   185.9545     0.6253
    13.1912   185.9978     0.6251
    13.1935   185.3825     0.6226
    13.1959   184.7107     0.6214
    13.1982   184.5184     0.6211
    13.2006   183.8599     0.6200
    13.2029   186.1263     0.6295
    13.2052   186.1944     0.6292
    13.2076   185.5608     0.6269
    13.2099   185.9171     0.6272
    13.2123   186.6556     0.6285
    13.2146   189.8152     0.6397
    13.2170   191.4040     0.6430
    13.2193   192.4711     0.6448
    13.2217   192.4762     0.6424
    13.2240   195.3734     0.6470
    13.2264   195.3734     0.6470
    13.2287   203.2270     0.6668
    13.2311   204.0056     0.6673
    13.2334   205.4043     0.6678
    13.2358   205.2502     0.6675
    13.2381   204.0691     0.6656
    13.2405   205.9561     0.6742
    13.2428   202.2411     0.6698
    13.2452   191.9953     0.6513
    13.2475   180.4475     0.6302
    13.2499   166.3184     0.6050
    13.2522   153.0036     0.5803
    13.2546   143.4072     0.5680
    13.2570   131.8342     0.5438
    13.2593   121.7892     0.5214
    13.2617   116.7334     0.5105
    13.2640   110.9701     0.4977
    13.2664   108.3674     0.4918
    13.2687   107.2200     0.4887
    13.2711   108.1851     0.4963
    13.2734   107.5022     0.4935
    13.2758   106.0593     0.4901
    13.2782   107.1964     0.4928
    13.2805   107.2855     0.4925
    13.2829   107.9330     0.4962
    13.2852   109.6850     0.5023
    13.2876   109.7862     0.5025
    13.2899   108.4959     0.4995
    13.2923   109.6367     0.5022
    13.2947   110.4739     0.5041
    13.2970   109.8414     0.5026
    13.2994   112.3133     0.5123
    13.3018   110.7664     0.5088
    13.3041   111.5819     0.5106
    13.3065   111.3693     0.5101
    13.3088   109.0828     0.5032
    13.3112   111.2455     0.5088
    13.3136   109.1086     0.5030
    13.3159   111.5441     0.5148
    13.3183   111.7983     0.5154
    13.3207   111.5544     0.5143
    13.3230   110.5498     0.5105
    13.3254   109.8943     0.5090
    13.3278   108.7296     0.5063
    13.3301   110.8748     0.5172
    13.3325   111.2496     0.5185
    13.3348   109.8286     0.5152
    13.3372   108.9466     0.5112
    13.3396   109.3112     0.5121
    13.3419   108.3829     0.5099
    13.3443   107.4738     0.5077
    13.3467   109.6982     0.5195
    13.3490   109.5702     0.5192
    13.3514   108.1391     0.5140
    13.3538   107.8697     0.5132
    13.3561   107.6353     0.5127
    13.3585   108.0333     0.5136
    13.3608   106.7537     0.5106
    13.3632   107.9440     0.5201
    13.3656   108.2222     0.5208
    13.3679   107.0209     0.5160
    13.3703   107.0607     0.5161
    13.3726   105.0879     0.5113
    13.3750   106.1925     0.5140
    13.3774   104.2724     0.5075
    13.3797   104.6269     0.5127
    13.3821   106.1055     0.5188
    13.3844   104.6496     0.5152
    13.3868   106.2500     0.5191
    13.3892   104.8373     0.5157
    13.3915   103.9233     0.5118
    13.3939   103.8229     0.5125
    13.3962   103.0477     0.5094
    13.3986   105.0069     0.5213
    13.4010   105.3201     0.5221
    13.4033   104.5281     0.5201
    13.4057   104.1196     0.5175
    13.4080   102.7767     0.5139
    13.4104   102.0444     0.5120
    13.4128   101.0860     0.5096
    13.4151   101.4815     0.5092
    13.4175   103.9134     0.5240
    13.4198   102.7924     0.5196
    13.4222   103.4362     0.5210
    13.4246   101.2374     0.5154
    13.4269   100.7651     0.5142
    13.4293   101.1849     0.5153
    13.4317    99.3796     0.5095
    13.4340    98.7052     0.5073
    13.4364   100.8342     0.5200
    13.4387   102.1429     0.5234
    13.4411   101.5154     0.5218
    13.4435   101.2767     0.5212
    13.4458    99.0242     0.5135
    13.4482    97.4238     0.5094
    13.4505    98.5129     0.5122
    13.4529    97.6421     0.5099
    13.4553    98.6941     0.5163
    13.4576    99.1690     0.5213
    13.4600    98.5597     0.5182
    13.4624    97.2383     0.5147
    13.4647    97.1975     0.5146
    13.4671    96.5579     0.5123
    13.4694    96.2844     0.5104
    13.4718    95.4078     0.5081
    13.4742    94.0279     0.5044
    13.4765    97.0361     0.5203
    13.4789    97.7196     0.5222
    13.4812    96.3859     0.5186
    13.4836    95.8279     0.5171
    13.4860    95.8372     0.5157
    13.4883    94.1834     0.5109
    13.4907    93.5544     0.5091
    13.4931    93.7899     0.5098
    13.4954    92.6714     0.5068
    13.4978    95.0940     0.5205
    13.5002    95.1069     0.5198
    13.5025    93.8229     0.5163
    13.5049    92.8513     0.5136
    13.5072    93.4536     0.5138
    13.5096    92.9504     0.5131
    13.5120    90.9755     0.5066
    13.5143    90.9952     0.5067
    13.5167    90.6228     0.5056
    13.5191    90.9429     0.5125
    13.5214    89.0605     0.5096
    13.5238    84.7735     0.4955
    13.5262    81.9694     0.4872
    13.5285    77.0785     0.4724
    13.5309    71.3971     0.4547
    13.5333    64.4607     0.4306
    13.5356    57.8567     0.4079
    13.5380    50.3035     0.3804
    13.5404    43.4346     0.3541
    13.5427    37.1369     0.3324
    13.5451    30.0803     0.2988
    13.5475    24.3055     0.2689
    13.5498    19.1260     0.2378
    13.5522    14.1634     0.2046
    13.5545    11.4590     0.1840
    13.5569     8.8787     0.1620
    13.5593     6.6270     0.1399
    13.5616     5.2556     0.1242
    13.5640     3.9806     0.1086
    13.5664     3.2720     0.0997
    13.5687     2.7155     0.0909
    13.5711     2.4379     0.0858
    13.5735     2.1449     0.0805
    13.5758     1.7793     0.0733
    13.5782     1.6343     0.0703
    13.5806     1.7008     0.0717
    13.5829     1.3925     0.0648
    13.5853     1.4288     0.0655
    13.5877     1.2455     0.0612
    13.5901     1.4254     0.0666
    13.5924     1.3663     0.0652
    13.5948     1.2792     0.0631
    13.5972     1.2647     0.0625
    13.5995     1.1317     0.0592
    13.6019     1.1565     0.0598
    13.6043     1.1534     0.0597
    13.6066     0.9802     0.0551
ENDDATA            461
ENDSUBENT          472
SUBENT        D0876003   20180212   20180316   20180313       D113
BIB                  2          3
REACTION   ((1-H-1(7-N-15,A)6-C-12,PAR,DA,RSD)=
           (7-N-15(P,A)6-C-12,PAR,DA))
STATUS     (TABLE) Fig.4 of Nucl.Instrum.Methods.A847(2017)125
ENDBIB               3
COMMON               2          3
E-LVL      ANG-CM
MEV        ADEG
 0.         180.
ENDCOMMON            3
DATA                 3       1270
E-EXC-CMP  DATA-CM    ERR-S
MEV        MB/SR      MB/SR
    12.3899     0.0122     0.0122
    12.3907     0.0368     0.0212
    12.3914     0.0613     0.0274
    12.3921     0.2084     0.0506
    12.3928     0.1472     0.0425
    12.3935     0.3928     0.0694
    12.3943     0.4667     0.0757
    12.3950     0.6388     0.0886
    12.3957     0.8849     0.1043
    12.3964     1.5984     0.1402
    12.3972     1.6113     0.1408
    12.3979     2.2029     0.1647
    12.3986     2.8320     0.1867
    12.3993     3.8560     0.2180
    12.4001     5.0166     0.2487
    12.4008     5.8948     0.2696
    12.4015     6.4901     0.2830
    12.4022     7.1114     0.2963
    12.4030     8.3720     0.3218
    12.4037     8.6333     0.3270
    12.4044     9.5654     0.3445
    12.4052     9.5305     0.3441
    12.4059    10.2690     0.3573
    12.4066    10.7471     0.3656
    12.4073    11.0515     0.3709
    12.4081    10.5716     0.3628
    12.4088    11.0132     0.3704
    12.4095    11.0938     0.3719
    12.4103    10.1269     0.3554
    12.4110    11.3301     0.3760
    12.4117    11.1114     0.3725
    12.4125    12.0666     0.3882
    12.4132    11.8105     0.3842
    12.4140    11.7418     0.3832
    12.4147    12.4362     0.3945
    12.4154    12.3176     0.3927
    12.4162    12.8246     0.3986
    12.4169    11.7979     0.3767
    12.4176    12.0219     0.3748
    12.4184    11.5750     0.3626
    12.4191    11.8100     0.3694
    12.4199    12.7841     0.3901
    12.4206    12.9468     0.3986
    12.4213    13.8985     0.4168
    12.4221    13.3082     0.4022
    12.4228    13.0693     0.3932
    12.4236    13.0968     0.3884
    12.4243    13.5569     0.3922
    12.4251    13.2257     0.3875
    12.4258    13.9279     0.3978
    12.4265    13.7671     0.3956
    12.4273    14.1270     0.4009
    12.4280    14.7035     0.4091
    12.4288    14.8023     0.4105
    12.4295    14.3775     0.4047
    12.4302    14.7751     0.4104
    12.4310    14.8767     0.4120
    12.4317    14.7273     0.4100
    12.4325    14.5788     0.4083
    12.4332    15.6291     0.4232
    12.4340    15.4668     0.4214
    12.4347    15.7525     0.4257
    12.4355    16.4870     0.4357
    12.4362    16.0474     0.4300
    12.4370    15.9415     0.4287
    12.4377    16.3548     0.4343
    12.4385    16.8857     0.4415
    12.4392    16.7244     0.4395
    12.4400    16.8171     0.4409
    12.4407    17.5113     0.4500
    12.4415    18.2296     0.4593
    12.4422    17.3852     0.4487
    12.4430    17.8147     0.4544
    12.4437    17.7111     0.4532
    12.4445    18.8841     0.4682
    12.4453    18.5605     0.4643
    12.4460    17.6785     0.4533
    12.4468    18.5167     0.4641
    12.4475    18.5064     0.4641
    12.4483    18.0302     0.4583
    12.4490    18.8132     0.4683
    12.4498    18.1745     0.4604
    12.4505    18.2703     0.4618
    12.4513    17.7239     0.4551
    12.4520    18.6621     0.4671
    12.4528    17.8113     0.4566
    12.4536    18.9503     0.4711
    12.4543    18.9289     0.4710
    12.4551    18.6609     0.4678
    12.4558    19.7422     0.4814
    12.4566    17.7924     0.4571
    12.4574    18.3301     0.4638
    12.4581    17.9876     0.4593
    12.4589    19.2976     0.4755
    12.4596    18.1309     0.4610
    12.4604    19.2470     0.4751
    12.4612    18.8037     0.4698
    12.4619    18.6300     0.4678
    12.4627    17.8937     0.4587
    12.4635    17.8740     0.4586
    12.4642    18.3607     0.4650
    12.4650    18.0922     0.4618
    12.4657    18.3414     0.4651
    12.4665    17.9182     0.4599
    12.4673    17.5888     0.4558
    12.4680    18.5504     0.4683
    12.4688    18.8751     0.4726
    12.4696    18.1699     0.4639
    12.4703    17.4642     0.4517
    12.4711    17.1076     0.4411
    12.4719    17.3575     0.4386
    12.4726    16.0826     0.4169
    12.4734    16.0806     0.4170
    12.4742    16.5816     0.4236
    12.4750    16.4226     0.4218
    12.4757    17.1632     0.4314
    12.4765    15.9734     0.4163
    12.4773    16.2479     0.4201
    12.4781    16.1641     0.4192
    12.4788    16.6458     0.4256
    12.4796    15.5930     0.4121
    12.4804    16.3148     0.4217
    12.4811    15.7949     0.4151
    12.4819    15.6029     0.4128
    12.4827    15.7493     0.4149
    12.4834    16.3117     0.4224
    12.4842    16.0977     0.4199
    12.4850    15.0064     0.4056
    12.4858    14.8566     0.4037
    12.4866    15.1129     0.4074
    12.4873    15.4246     0.4118
    12.4881    16.1000     0.4209
    12.4889    15.8514     0.4179
    12.4897    14.9072     0.4054
    12.4904    14.7117     0.4029
    12.4912    15.6537     0.4158
    12.4920    15.5516     0.4145
    12.4928    15.1430     0.4088
    12.4936    14.8121     0.4042
    12.4943    14.7374     0.4030
    12.4951    14.6856     0.4025
    12.4959    14.3686     0.3984
    12.4967    15.6762     0.4163
    12.4975    14.9293     0.4065
    12.4982    14.9572     0.4071
    12.4990    14.7078     0.4039
    12.4998    14.6571     0.4034
    12.5006    14.6719     0.4038
    12.5014    14.6201     0.4033
    12.5022    14.8242     0.4063
    12.5030    14.5284     0.4025
    12.5037    14.5334     0.4028
    12.5045    14.4155     0.4014
    12.5053    15.2024     0.4124
    12.5061    14.0868     0.3972
    12.5069    14.7063     0.4060
    12.5077    14.8526     0.4082
    12.5085    14.5280     0.4036
    12.5092    14.9993     0.4099
    12.5100    14.5743     0.4039
    12.5108    14.4157     0.4018
    12.5116    14.1409     0.3982
    12.5124    14.1911     0.3992
    12.5132    13.8814     0.3950
    12.5140    14.4597     0.4034
    12.5148    13.9917     0.3970
    12.5156    14.8733     0.4089
    12.5164    13.5247     0.3850
    12.5172    13.0768     0.3739
    12.5180    12.7763     0.3652
    12.5187    12.8153     0.3648
    12.5195    12.9858     0.3674
    12.5203    12.6988     0.3636
    12.5211    12.6403     0.3629
    12.5219    12.3105     0.3584
    12.5227    12.2411     0.3576
    12.5235    13.0707     0.3697
    12.5243    12.3096     0.3586
    12.5251    12.2905     0.3582
    12.5259    12.4279     0.3601
    12.5267    12.6750     0.3638
    12.5275    12.9418     0.3678
    12.5283    12.1836     0.3571
    12.5291    11.6955     0.3501
    12.5299    12.5591     0.3630
    12.5307    12.3322     0.3599
    12.5315    12.3153     0.3599
    12.5323    12.7839     0.3669
    12.5331    12.1889     0.3585
    12.5339    12.2786     0.3600
    12.5347    12.0532     0.3567
    12.5355    12.2558     0.3595
    12.5363    12.2051     0.3587
    12.5371    12.2010     0.3587
    12.5379    12.3961     0.3618
    12.5387    12.0949     0.3576
    12.5396    12.3752     0.3619
    12.5404    12.2746     0.3607
    12.5412    12.6725     0.3667
    12.5420    11.6475     0.3518
    12.5428    11.9605     0.3568
    12.5436    12.5939     0.3663
    12.5444    11.5754     0.3514
    12.5452    11.9336     0.3571
    12.5460    12.3037     0.3628
    12.5468    12.2679     0.3625
    12.5476    12.1599     0.3609
    12.5484    12.3765     0.3640
    12.5492    12.2076     0.3614
    12.5501    12.0397     0.3590
    12.5509    12.2376     0.3621
    12.5517    12.5112     0.3664
    12.5525    12.3450     0.3642
    12.5533    12.2215     0.3626
    12.5541    11.8607     0.3575
    12.5549    11.9413     0.3589
    12.5557    11.4908     0.3480
    12.5566    11.0633     0.3370
    12.5574    10.8375     0.3292
    12.5582    11.0745     0.3320
    12.5590    11.0015     0.3311
    12.5598    10.9883     0.3312
    12.5606    10.7741     0.3281
    12.5615    10.3086     0.3212
    12.5623    10.9944     0.3319
    12.5631    11.3814     0.3380
    12.5639    10.9759     0.3321
    12.5647    11.0928     0.3342
    12.5656    10.9620     0.3323
    12.5664    11.0251     0.3332
    12.5672    11.3698     0.3382
    12.5680    11.0541     0.3334
    12.5688    10.9190     0.3316
    12.5696    10.4204     0.3242
    12.5705    11.4255     0.3397
    12.5713    11.2824     0.3379
    12.5721    11.0072     0.3340
    12.5729    11.1779     0.3369
    12.5738    10.7959     0.3310
    12.5746    10.9004     0.3325
    12.5754    11.3593     0.3393
    12.5762    10.3359     0.3238
    12.5771    10.5462     0.3273
    12.5779    11.1846     0.3374
    12.5787    10.6003     0.3287
    12.5795    11.1161     0.3369
    12.5804    11.1427     0.3375
    12.5812    10.9233     0.3342
    12.5820    11.6931     0.3457
    12.5828    11.8489     0.3479
    12.5837    10.9647     0.3347
    12.5845    11.4132     0.3418
    12.5853    10.4790     0.3278
    12.5862    10.4141     0.3270
    12.5870    11.0481     0.3371
    12.5878    11.0349     0.3372
    12.5886    11.4879     0.3442
    12.5895    10.9549     0.3360
    12.5903    11.4524     0.3434
    12.5911    10.8311     0.3333
    12.5920    10.3840     0.3226
    12.5928    10.4673     0.3203
    12.5936    10.3800     0.3161
    12.5945    10.2743     0.3186
    12.5953    10.8112     0.3311
    12.5961    11.0450     0.3389
    12.5970    11.0171     0.3384
    12.5978    11.5293     0.3461
    12.5986    11.8807     0.3511
    12.5994    11.1735     0.3366
    12.6003    10.9051     0.3288
    12.6011    10.0771     0.3126
    12.6020    10.1716     0.3142
    12.6028    10.4907     0.3194
    12.6036    10.5187     0.3201
    12.6045    10.5633     0.3207
    12.6053    10.2745     0.3162
    12.6061     9.7359     0.3077
    12.6070    10.5421     0.3205
    12.6078    10.4923     0.3200
    12.6086    10.0317     0.3132
    12.6095    10.5390     0.3213
    12.6103    10.2337     0.3169
    12.6112    10.4582     0.3206
    12.6120    10.5804     0.3224
    12.6128    10.7603     0.3250
    12.6137    10.7438     0.3247
    12.6145     9.7688     0.3098
    12.6154     9.8181     0.3109
    12.6162    10.6752     0.3245
    12.6170    10.9348     0.3284
    12.6179    10.0905     0.3153
    12.6187    10.6652     0.3241
    12.6196    10.2513     0.3180
    12.6204    10.3711     0.3202
    12.6213    10.9268     0.3290
    12.6221    11.0258     0.3308
    12.6229    10.6976     0.3261
    12.6238    10.2286     0.3192
    12.6246    10.6104     0.3250
    12.6255    10.2755     0.3197
    12.6263    10.5429     0.3238
    12.6272    10.2855     0.3202
    12.6280    10.2368     0.3197
    12.6289    10.3882     0.3223
    12.6297    11.0813     0.3328
    12.6305    10.2756     0.3203
    12.6314    10.5147     0.3240
    12.6322    10.5170     0.3244
    12.6331    10.9606     0.3315
    12.6339     9.9067     0.3139
    12.6348     9.8410     0.3093
    12.6356    10.2547     0.3123
    12.6365     9.8484     0.3047
    12.6373    10.1532     0.3092
    12.6382     9.6010     0.3006
    12.6390    10.3450     0.3122
    12.6399     9.5632     0.3005
    12.6407     9.9039     0.3061
    12.6416     9.7093     0.3031
    12.6424     9.9493     0.3067
    12.6433    10.2457     0.3112
    12.6441    10.4346     0.3143
    12.6450    10.4745     0.3152
    12.6458    10.3436     0.3136
    12.6467    10.3264     0.3136
    12.6475     9.8320     0.3064
    12.6484     9.9381     0.3083
    12.6493    10.1348     0.3113
    12.6501    10.3389     0.3143
    12.6510    10.1671     0.3117
    12.6518     9.9388     0.3085
    12.6527     9.6328     0.3040
    12.6535    10.5886     0.3190
    12.6544    10.6495     0.3198
    12.6552    10.5951     0.3189
    12.6561    10.2092     0.3131
    12.6569     9.5757     0.3036
    12.6578    10.1739     0.3132
    12.6587     9.7672     0.3070
    12.6595    10.5330     0.3187
    12.6604    10.4784     0.3178
    12.6612    10.3509     0.3161
    12.6621     9.8531     0.3088
    12.6630     9.8367     0.3089
    12.6638    10.6064     0.3207
    12.6647    10.4354     0.3180
    12.6655    10.6036     0.3204
    12.6664    10.7257     0.3227
    12.6673    10.0217     0.3123
    12.6681    10.3694     0.3179
    12.6690    10.1685     0.3147
    12.6698    10.4837     0.3195
    12.6707    10.2894     0.3166
    12.6716    10.6756     0.3229
    12.6724    10.5349     0.3212
    12.6733     9.8924     0.3087
    12.6742    10.1300     0.3091
    12.6750    10.3549     0.3094
    12.6759    10.0253     0.3044
    12.6767    10.1394     0.3060
    12.6776    10.2520     0.3081
    12.6785    10.0939     0.3094
    12.6793    10.2672     0.3159
    12.6802    10.7006     0.3247
    12.6811    10.6023     0.3192
    12.6819    10.0675     0.3073
    12.6828     9.7808     0.3014
    12.6837    10.0926     0.3065
    12.6845    10.3871     0.3113
    12.6854    10.5970     0.3145
    12.6863    10.2550     0.3093
    12.6871    10.2957     0.3099
    12.6880    10.1432     0.3079
    12.6889    10.2376     0.3098
    12.6897    10.2528     0.3103
    12.6906    10.5659     0.3149
    12.6915    10.7286     0.3172
    12.6924    10.5185     0.3143
    12.6932    10.2247     0.3103
    12.6941    10.8449     0.3199
    12.6950    10.7302     0.3182
    12.6958    11.1015     0.3236
    12.6967    10.9384     0.3212
    12.6976    10.9479     0.3217
    12.6984    10.7681     0.3195
    12.6993    11.0775     0.3243
    12.7002    10.3218     0.3129
    12.7011    10.5625     0.3165
    12.7019    10.8622     0.3211
    12.7028    10.5764     0.3173
    12.7037    10.8905     0.3224
    12.7046    10.6881     0.3194
    12.7054    10.9490     0.3232
    12.7063    10.9245     0.3228
    12.7072    11.1727     0.3269
    12.7081    10.9619     0.3242
    12.7089    10.5315     0.3180
    12.7098    10.4008     0.3159
    12.7107    10.9415     0.3239
    12.7116    10.8874     0.3230
    12.7124    11.1877     0.3274
    12.7133    11.0921     0.3260
    12.7142    10.8259     0.3225
    12.7151    11.2325     0.3289
    12.7159    11.0200     0.3238
    12.7168    10.1696     0.3075
    12.7177    10.7838     0.3130
    12.7186    10.6842     0.3116
    12.7194    10.9846     0.3163
    12.7203    11.2681     0.3208
    12.7212    10.8238     0.3143
    12.7221     9.9239     0.3009
    12.7230    10.6710     0.3121
    12.7238    10.5555     0.3109
    12.7247    10.5863     0.3118
    12.7256    11.2223     0.3210
    12.7265    11.4090     0.3236
    12.7274    10.6651     0.3129
    12.7282    11.2760     0.3222
    12.7291    11.2905     0.3229
    12.7300    11.2478     0.3224
    12.7309    11.0846     0.3200
    12.7318    11.6141     0.3274
    12.7327    11.3657     0.3243
    12.7335    11.0190     0.3198
    12.7344    11.6557     0.3293
    12.7353    10.5058     0.3125
    12.7362    11.6151     0.3285
    12.7371    10.9365     0.3191
    12.7380    11.5208     0.3280
    12.7388    11.2642     0.3248
    12.7397    11.8757     0.3334
    12.7406    11.5138     0.3282
    12.7415    12.3488     0.3398
    12.7424    11.7255     0.3310
    12.7433    11.5417     0.3283
    12.7442    11.8982     0.3337
    12.7451    11.2757     0.3254
    12.7459    11.6033     0.3304
    12.7468    11.8792     0.3343
    12.7477    12.0138     0.3361
    12.7486    12.1682     0.3385
    12.7495    12.5914     0.3449
    12.7504    12.6571     0.3463
    12.7513    12.1778     0.3396
    12.7522    12.0953     0.3383
    12.7530    12.3563     0.3422
    12.7539    12.2599     0.3413
    12.7548    12.5444     0.3458
    12.7557    12.0436     0.3358
    12.7566    12.3521     0.3362
    12.7575    11.7480     0.3251
    12.7584    11.7507     0.3250
    12.7593    11.4300     0.3205
    12.7602    11.6247     0.3235
    12.7611    12.1965     0.3319
    12.7620    11.6854     0.3253
    12.7628    12.4214     0.3353
    12.7637    12.4781     0.3360
    12.7646    12.1430     0.3318
    12.7655    13.3010     0.3479
    12.7664    12.2520     0.3343
    12.7673    11.7167     0.3269
    12.7682    12.6035     0.3389
    12.7691    12.5786     0.3385
    12.7700    12.5811     0.3384
    12.7709    12.8292     0.3417
    12.7718    12.5877     0.3390
    12.7727    12.7712     0.3421
    12.7736    12.6970     0.3413
    12.7745    13.1673     0.3475
    12.7754    12.9863     0.3450
    12.7763    13.0267     0.3461
    12.7772    12.3242     0.3372
    12.7781    12.8921     0.3452
    12.7790    12.9223     0.3455
    12.7798    13.5987     0.3543
    12.7807    12.6965     0.3423
    12.7816    12.7912     0.3435
    12.7825    13.5017     0.3530
    12.7834    13.5888     0.3548
    12.7843    13.7789     0.3579
    12.7852    13.9532     0.3602
    12.7861    13.5836     0.3553
    12.7870    13.4626     0.3538
    12.7879    14.1099     0.3629
    12.7888    14.0597     0.3629
    12.7897    14.1246     0.3637
    12.7906    14.2014     0.3646
    12.7915    13.9133     0.3608
    12.7924    14.7384     0.3713
    12.7933    14.2167     0.3645
    12.7942    14.1567     0.3607
    12.7951    13.4977     0.3490
    12.7960    13.5593     0.3480
    12.7969    14.2397     0.3565
    12.7978    14.3250     0.3576
    12.7987    13.7022     0.3503
    12.7997    14.0456     0.3553
    12.8006    14.1875     0.3574
    12.8015    14.5760     0.3621
    12.8024    13.8940     0.3535
    12.8033    14.3094     0.3586
    12.8042    13.7272     0.3512
    12.8051    14.5565     0.3620
    12.8060    14.8294     0.3661
    12.8069    14.7207     0.3653
    12.8078    14.9214     0.3677
    12.8087    14.5333     0.3628
    12.8096    14.9694     0.3681
    12.8105    14.2833     0.3595
    12.8114    15.7191     0.3773
    12.8123    14.7985     0.3668
    12.8132    14.9110     0.3689
    12.8141    14.4698     0.3633
    12.8151    15.6388     0.3776
    12.8160    15.5579     0.3766
    12.8169    14.7393     0.3664
    12.8178    14.9649     0.3692
    12.8187    15.5620     0.3772
    12.8196    14.8420     0.3691
    12.8205    15.4742     0.3771
    12.8214    16.4217     0.3884
    12.8223    15.3648     0.3756
    12.8232    16.3416     0.3882
    12.8241    16.0672     0.3857
    12.8250    16.4555     0.3905
    12.8260    16.0861     0.3860
    12.8269    16.6242     0.3923
    12.8278    16.1904     0.3870
    12.8287    16.2564     0.3877
    12.8296    16.0680     0.3862
    12.8305    16.2982     0.3897
    12.8314    16.7179     0.3928
    12.8323    16.6027     0.3871
    12.8332    16.2356     0.3799
    12.8342    16.3958     0.3856
    12.8351    16.9793     0.3964
    12.8360    17.4121     0.4002
    12.8369    16.7830     0.3894
    12.8378    16.2533     0.3811
    12.8387    16.0221     0.3783
    12.8396    17.3710     0.3938
    12.8406    16.3363     0.3818
    12.8415    17.7817     0.3982
    12.8424    16.8561     0.3881
    12.8433    17.0921     0.3917
    12.8442    17.2976     0.3947
    12.8451    17.5142     0.3970
    12.8460    17.3078     0.3946
    12.8470    17.7129     0.3991
    12.8479    17.3357     0.3947
    12.8488    18.0743     0.4033
    12.8497    18.0188     0.4036
    12.8506    18.4054     0.4087
    12.8515    18.3782     0.4083
    12.8525    18.3238     0.4076
    12.8534    19.4838     0.4202
    12.8543    18.2877     0.4070
    12.8552    19.0957     0.4163
    12.8561    19.7400     0.4241
    12.8570    18.8003     0.4147
    12.8580    19.2848     0.4199
    12.8589    18.9736     0.4164
    12.8598    19.4393     0.4214
    12.8607    19.6856     0.4240
    12.8616    19.5954     0.4233
    12.8626    18.9023     0.4167
    12.8635    20.1991     0.4316
    12.8644    19.9590     0.4290
    12.8653    19.6916     0.4260
    12.8663    21.2569     0.4425
    12.8672    20.1695     0.4309
    12.8681    20.2198     0.4318
    12.8690    21.0719     0.4418
    12.8699    21.0320     0.4418
    12.8708    20.7165     0.4338
    12.8718    20.1650     0.4234
    12.8727    19.7331     0.4178
    12.8736    20.7757     0.4286
    12.8745    19.8908     0.4192
    12.8755    20.5082     0.4256
    12.8764    19.7945     0.4182
    12.8773    20.3377     0.4250
    12.8782    20.6419     0.4292
    12.8792    21.6133     0.4391
    12.8801    21.2733     0.4355
    12.8810    21.4948     0.4377
    12.8819    21.6270     0.4389
    12.8829    21.3784     0.4367
    12.8838    22.1233     0.4453
    12.8847    22.5764     0.4508
    12.8857    22.1699     0.4466
    12.8866    22.1595     0.4464
    12.8875    22.1400     0.4461
    12.8884    21.8329     0.4429
    12.8893    23.3725     0.4587
    12.8903    21.9739     0.4459
    12.8912    23.6758     0.4637
    12.8921    23.7099     0.4639
    12.8931    22.8639     0.4555
    12.8940    23.7871     0.4645
    12.8949    23.3318     0.4599
    12.8958    23.9823     0.4661
    12.8968    24.2699     0.4688
    12.8977    23.7390     0.4640
    12.8986    24.4954     0.4726
    12.8996    24.4435     0.4731
    12.9005    24.7067     0.4755
    12.9014    24.7866     0.4761
    12.9023    25.8080     0.4857
    12.9033    26.0061     0.4875
    12.9042    25.0930     0.4796
    12.9051    24.7239     0.4772
    12.9061    25.8689     0.4889
    12.9070    25.9863     0.4899
    12.9079    26.1943     0.4905
    12.9089    26.2006     0.4852
    12.9098    24.9375     0.4685
    12.9107    25.4717     0.4734
    12.9117    25.3634     0.4723
    12.9126    26.1321     0.4803
    12.9135    25.3603     0.4744
    12.9145    26.5913     0.4863
    12.9154    26.4459     0.4849
    12.9163    26.7625     0.4876
    12.9173    28.3930     0.5022
    12.9182    26.7806     0.4877
    12.9191    27.7629     0.4979
    12.9201    28.2621     0.5037
    12.9210    28.2821     0.5039
    12.9219    28.7534     0.5080
    12.9229    28.7313     0.5077
    12.9238    28.1354     0.5023
    12.9247    29.0367     0.5101
    12.9257    28.3785     0.5042
    12.9266    29.0220     0.5102
    12.9275    28.9286     0.5107
    12.9285    29.4143     0.5163
    12.9294    30.3886     0.5246
    12.9303    30.8997     0.5289
    12.9313    30.5144     0.5255
    12.9322    30.4821     0.5251
    12.9332    29.7088     0.5183
    12.9341    29.8128     0.5191
    12.9350    31.4660     0.5337
    12.9360    31.0404     0.5316
    12.9369    32.6145     0.5461
    12.9378    32.7738     0.5473
    12.9388    33.4811     0.5530
    12.9397    32.6167     0.5457
    12.9407    33.0126     0.5489
    12.9416    34.0221     0.5586
    12.9425    34.2589     0.5620
    12.9435    35.5222     0.5728
    12.9444    35.1184     0.5694
    12.9453    34.5213     0.5644
    12.9463    34.2016     0.5617
    12.9472    34.9092     0.5650
    12.9482    34.9957     0.5598
    12.9491    32.7376     0.5386
    12.9501    35.1798     0.5657
    12.9510    36.2080     0.5808
    12.9519    35.8065     0.5715
    12.9529    35.0635     0.5597
    12.9538    36.3880     0.5694
    12.9548    35.6680     0.5636
    12.9557    37.2367     0.5757
    12.9566    37.0068     0.5738
    12.9576    36.7357     0.5726
    12.9585    37.0657     0.5768
    12.9595    37.4543     0.5808
    12.9604    38.5723     0.5893
    12.9614    38.0964     0.5855
    12.9623    39.1953     0.5938
    12.9632    38.2070     0.5861
    12.9642    39.0167     0.5922
    12.9651    38.5500     0.5885
    12.9661    39.7150     0.5991
    12.9670    40.1833     0.6046
    12.9680    40.4616     0.6067
    12.9689    42.0169     0.6181
    12.9699    40.3535     0.6056
    12.9708    41.2806     0.6124
    12.9717    41.9345     0.6171
    12.9727    42.4697     0.6209
    12.9736    41.9808     0.6180
    12.9746    42.2183     0.6218
    12.9755    41.8898     0.6205
    12.9765    42.7535     0.6268
    12.9774    43.5706     0.6326
    12.9784    43.4689     0.6317
    12.9793    44.0921     0.6361
    12.9803    43.4032     0.6310
    12.9812    44.9519     0.6420
    12.9822    44.6482     0.6397
    12.9831    45.3249     0.6443
    12.9841    45.3079     0.6460
    12.9850    45.7918     0.6515
    12.9860    45.9595     0.6530
    12.9869    47.2380     0.6619
    12.9879    47.5490     0.6592
    12.9888    45.4006     0.6378
    12.9898    44.3669     0.6276
    12.9907    46.4679     0.6421
    12.9917    46.4445     0.6430
    12.9926    48.7887     0.6611
    12.9936    48.2767     0.6588
    12.9945    47.3659     0.6524
    12.9955    48.4322     0.6596
    12.9964    48.4477     0.6595
    12.9973    48.9117     0.6625
    12.9983    47.8496     0.6552
    12.9993    50.2967     0.6721
    13.0002    49.8950     0.6714
    13.0012    51.3001     0.6829
    13.0021    50.3243     0.6762
    13.0031    51.6474     0.6849
    13.0040    53.7862     0.6988
    13.0050    51.4217     0.6831
    13.0059    53.2501     0.6950
    13.0069    52.9732     0.6931
    13.0078    52.6880     0.6911
    13.0088    53.7077     0.6976
    13.0097    53.8936     0.7007
    13.0107    54.9677     0.7099
    13.0116    54.9271     0.7102
    13.0126    54.6190     0.7081
    13.0135    55.8892     0.7161
    13.0145    56.0486     0.7170
    13.0154    56.3362     0.7187
    13.0164    55.9453     0.7160
    13.0174    56.5473     0.7214
    13.0183    57.9203     0.7326
    13.0193    57.7541     0.7325
    13.0202    57.9061     0.7333
    13.0212    58.5407     0.7372
    13.0221    59.1190     0.7407
    13.0231    58.9548     0.7395
    13.0240    57.8543     0.7324
    13.0250    58.6732     0.7374
    13.0259    58.4631     0.7359
    13.0269    59.5566     0.7412
    13.0279    58.4302     0.7294
    13.0288    59.2443     0.7310
    13.0298    57.6322     0.7208
    13.0307    57.7700     0.7215
    13.0317    58.6379     0.7268
    13.0326    59.6038     0.7326
    13.0336    59.6142     0.7325
    13.0346    57.7716     0.7209
    13.0355    59.6092     0.7321
    13.0365    59.3088     0.7308
    13.0374    59.2359     0.7329
    13.0384    60.0460     0.7401
    13.0394    59.4377     0.7362
    13.0403    60.9442     0.7453
    13.0413    60.6997     0.7436
    13.0422    58.9804     0.7329
    13.0432    58.9201     0.7323
    13.0441    59.2419     0.7342
    13.0451    59.0809     0.7330
    13.0461    60.1282     0.7398
    13.0470    58.6001     0.7330
    13.0480    59.2155     0.7392
    13.0489    61.5248     0.7533
    13.0499    61.0109     0.7500
    13.0509    59.3550     0.7396
    13.0518    59.0270     0.7374
    13.0528    58.5329     0.7342
    13.0537    58.2417     0.7322
    13.0547    57.4719     0.7272
    13.0557    57.7895     0.7294
    13.0566    58.5715     0.7373
    13.0576    58.0480     0.7363
    13.0586    57.5294     0.7328
    13.0595    57.3937     0.7318
    13.0605    56.8011     0.7279
    13.0614    57.9185     0.7341
    13.0624    53.5117     0.6981
    13.0634    53.1079     0.6897
    13.0643    51.9935     0.6823
    13.0653    51.3884     0.6798
    13.0663    52.9282     0.7000
    13.0672    52.3571     0.7015
    13.0682    50.8443     0.6847
    13.0691    50.3405     0.6762
    13.0701    48.6408     0.6645
    13.0711    47.1876     0.6544
    13.0720    47.9672     0.6596
    13.0730    46.5515     0.6497
    13.0740    46.1696     0.6469
    13.0749    45.3944     0.6421
    13.0759    43.7298     0.6328
    13.0769    43.3678     0.6318
    13.0778    43.0466     0.6293
    13.0788    40.7760     0.6124
    13.0798    41.7063     0.6192
    13.0807    38.6203     0.5957
    13.0817    39.6793     0.6037
    13.0827    37.9922     0.5906
    13.0836    34.8014     0.5651
    13.0846    36.0628     0.5752
    13.0856    35.7279     0.5724
    13.0865    34.5395     0.5642
    13.0875    32.0555     0.5457
    13.0885    31.6695     0.5431
    13.0894    30.9863     0.5371
    13.0904    29.4664     0.5237
    13.0913    28.3479     0.5136
    13.0923    28.0203     0.5105
    13.0933    27.9532     0.5098
    13.0943    25.7771     0.4894
    13.0952    25.0890     0.4827
    13.0962    23.4441     0.4685
    13.0972    22.8301     0.4638
    13.0981    22.2067     0.4529
    13.0991    21.7992     0.4456
    13.1001    20.7365     0.4387
    13.1010    19.7039     0.4302
    13.1020    18.9781     0.4180
    13.1030    18.4032     0.4086
    13.1039    17.2174     0.3951
    13.1049    16.1322     0.3824
    13.1059    14.7125     0.3651
    13.1069    14.8480     0.3673
    13.1078    14.1426     0.3602
    13.1088    13.3050     0.3500
    13.1098    13.1986     0.3485
    13.1107    11.9421     0.3315
    13.1117    12.4063     0.3378
    13.1127    11.3350     0.3228
    13.1137    11.4225     0.3240
    13.1146     9.7554     0.2994
    13.1156    10.1831     0.3058
    13.1166     9.3164     0.2924
    13.1175     9.0100     0.2875
    13.1185     8.6028     0.2821
    13.1195     8.5946     0.2832
    13.1205     7.5931     0.2661
    13.1214     7.1704     0.2586
    13.1224     6.5618     0.2473
    13.1234     7.5282     0.2648
    13.1244     6.4916     0.2459
    13.1253     6.5543     0.2470
    13.1263     5.8631     0.2336
    13.1273     5.5259     0.2267
    13.1283     5.7005     0.2302
    13.1292     5.1397     0.2192
    13.1302     5.2661     0.2229
    13.1312     5.4663     0.2274
    13.1321     4.8497     0.2141
    13.1331     4.2903     0.2014
    13.1341     4.1282     0.1975
    13.1351     4.5420     0.2071
    13.1361     4.3906     0.2034
    13.1370     4.4338     0.2024
    13.1380     3.8836     0.1879
    13.1390     3.6912     0.1832
    13.1399     3.7004     0.1836
    13.1409     3.5240     0.1801
    13.1419     3.6443     0.1836
    13.1429     3.2175     0.1725
    13.1439     3.5028     0.1799
    13.1448     3.2521     0.1733
    13.1458     3.0661     0.1683
    13.1468     2.6957     0.1578
    13.1478     2.9807     0.1658
    13.1487     3.1732     0.1711
    13.1497     2.7387     0.1589
    13.1507     2.5576     0.1537
    13.1517     2.6470     0.1571
    13.1527     2.7121     0.1595
    13.1536     2.6454     0.1575
    13.1546     2.7663     0.1611
    13.1556     2.5403     0.1543
    13.1566     2.8579     0.1636
    13.1576     2.6695     0.1581
    13.1585     2.4251     0.1507
    13.1595     2.3306     0.1477
    13.1605     2.4700     0.1520
    13.1615     2.3568     0.1485
    13.1624     2.2905     0.1463
    13.1634     2.2838     0.1462
    13.1644     2.2412     0.1456
    13.1654     2.1130     0.1418
    13.1664     2.2169     0.1452
    13.1674     2.2731     0.1470
    13.1683     2.2627     0.1467
    13.1693     2.2334     0.1457
    13.1703     2.1376     0.1425
    13.1713     2.1368     0.1425
    13.1723     2.3353     0.1489
    13.1732     2.2395     0.1458
    13.1742     2.1160     0.1414
    13.1752     2.3268     0.1469
    13.1762     2.3328     0.1464
    13.1772     2.4328     0.1503
    13.1782     2.1446     0.1414
    13.1791     2.2930     0.1462
    13.1801     2.2828     0.1458
    13.1811     2.5335     0.1536
    13.1821     2.8956     0.1642
    13.1831     2.6340     0.1566
    13.1840     2.5307     0.1534
    13.1850     3.1342     0.1707
    13.1860     2.8821     0.1637
    13.1870     3.0069     0.1676
    13.1880     3.2012     0.1739
    13.1890     3.4195     0.1800
    13.1900     3.7875     0.1894
    13.1909     3.5968     0.1845
    13.1919     3.5955     0.1844
    13.1929     3.7550     0.1885
    13.1939     4.0372     0.1954
    13.1949     4.2248     0.1998
    13.1959     4.6484     0.2096
    13.1969     4.7600     0.2120
    13.1978     5.1453     0.2204
    13.1988     5.8796     0.2356
    13.1998     5.8209     0.2343
    13.2008     6.2618     0.2432
    13.2018     7.1988     0.2622
    13.2028     7.2409     0.2639
    13.2038     7.8919     0.2754
    13.2047     8.7058     0.2892
    13.2057     9.3653     0.2999
    13.2067     9.8132     0.3070
    13.2077    10.3088     0.3146
    13.2087    10.7617     0.3185
    13.2097    12.1740     0.3360
    13.2107    13.5319     0.3541
    13.2117    14.2125     0.3629
    13.2126    15.7912     0.3824
    13.2136    17.1667     0.4000
    13.2146    19.3569     0.4272
    13.2156    21.2503     0.4480
    13.2166    21.7430     0.4531
    13.2176    24.9908     0.4856
    13.2186    26.5853     0.5008
    13.2196    30.9611     0.5404
    13.2206    34.1271     0.5672
    13.2215    36.6217     0.5875
    13.2225    40.8665     0.6205
    13.2235    44.1664     0.6449
    13.2245    49.7900     0.6846
    13.2255    54.0262     0.7130
    13.2265    61.0153     0.7576
    13.2275    67.3844     0.7985
    13.2285    74.7239     0.8456
    13.2295    80.8139     0.8807
    13.2304    87.3660     0.9155
    13.2314    96.5513     0.9622
    13.2324   103.4099     0.9957
    13.2334   110.7995     1.0304
    13.2344   118.6725     1.0662
    13.2354   122.9106     1.0849
    13.2364   127.8251     1.1062
    13.2374   133.8843     1.1319
    13.2384   135.2432     1.1374
    13.2394   136.0263     1.1423
    13.2404   138.5933     1.1596
    13.2414   135.0092     1.1481
    13.2423   132.6872     1.1380
    13.2433   127.7885     1.1082
    13.2443   121.6375     1.0715
    13.2453   116.6296     1.0490
    13.2463   108.6268     1.0122
    13.2473   101.8762     0.9801
    13.2483    96.9768     0.9561
    13.2493    88.0195     0.9107
    13.2503    84.5605     0.8924
    13.2513    78.3452     0.8589
    13.2523    72.2835     0.8248
    13.2533    69.4692     0.8103
    13.2543    63.4319     0.7793
    13.2553    59.5206     0.7563
    13.2563    56.3487     0.7358
    13.2572    51.8344     0.7056
    13.2582    48.5135     0.6825
    13.2592    45.8660     0.6635
    13.2602    42.5687     0.6391
    13.2612    41.7105     0.6325
    13.2622    39.0500     0.6119
    13.2632    36.1803     0.5889
    13.2642    34.0113     0.5708
    13.2652    32.0168     0.5537
    13.2662    30.6657     0.5418
    13.2672    29.1431     0.5281
    13.2682    28.0327     0.5179
    13.2692    26.9166     0.5104
    13.2702    25.7459     0.5017
    13.2712    24.7888     0.4922
    13.2722    22.5035     0.4689
    13.2732    22.1636     0.4653
    13.2742    21.0426     0.4533
    13.2752    21.1230     0.4541
    13.2762    20.1594     0.4435
    13.2772    18.5039     0.4248
    13.2782    18.0684     0.4197
    13.2792    18.2286     0.4187
    13.2802    16.0474     0.3892
    13.2812    15.6927     0.3848
    13.2821    15.6668     0.3853
    13.2831    14.6972     0.3757
    13.2841    15.7575     0.3923
    13.2852    15.0097     0.3865
    13.2861    13.9021     0.3684
    13.2871    12.6811     0.3496
    13.2881    12.9655     0.3534
    13.2891    13.2691     0.3575
    13.2901    12.6388     0.3488
    13.2911    12.1920     0.3425
    13.2921    11.4954     0.3325
    13.2931    11.5202     0.3328
    13.2941    11.0837     0.3264
    13.2951    11.3297     0.3300
    13.2961    10.9127     0.3238
    13.2971    10.1042     0.3117
    13.2981     9.7067     0.3076
    13.2991     9.7268     0.3091
    13.3001     9.7234     0.3090
    13.3011     9.7200     0.3089
    13.3021     9.5596     0.3063
    13.3031     9.0364     0.2978
    13.3041     8.6901     0.2919
    13.3051     8.9618     0.2964
    13.3061     8.4392     0.2876
    13.3071     8.3383     0.2858
    13.3081     7.5714     0.2723
    13.3091     7.2751     0.2669
    13.3101     8.0265     0.2803
    13.3111     7.4268     0.2696
    13.3121     7.1993     0.2654
    13.3131     6.7960     0.2578
    13.3141     7.3495     0.2689
    13.3151     6.8044     0.2606
    13.3161     6.6771     0.2566
    13.3171     6.7223     0.2554
    13.3182     6.4388     0.2499
    13.3192     6.3300     0.2477
    13.3202     5.5720     0.2324
    13.3212     5.9092     0.2393
    13.3222     5.8104     0.2372
    13.3232     5.8279     0.2375
    13.3242     5.4582     0.2298
    13.3252     5.1758     0.2238
    13.3262     5.5608     0.2319
    13.3272     5.3269     0.2269
    13.3282     5.1898     0.2240
    13.3292     4.9930     0.2207
    13.3302     5.0948     0.2245
    13.3312     4.4237     0.2092
    13.3322     4.8377     0.2188
    13.3332     4.9053     0.2203
    13.3342     4.7456     0.2166
    13.3352     4.9318     0.2208
    13.3362     4.4163     0.2089
    13.3372     4.6914     0.2153
    13.3382     4.0383     0.1997
    13.3392     4.2046     0.2037
    13.3402     4.1243     0.2017
    13.3413     4.4386     0.2092
    13.3423     4.1019     0.2011
    13.3433     4.1203     0.2015
    13.3443     4.0597     0.2000
    13.3453     3.9379     0.1974
    13.3463     3.8825     0.1976
    13.3473     4.2002     0.2059
    13.3483     3.9061     0.1986
    13.3493     3.5819     0.1901
    13.3503     3.8786     0.1969
    13.3513     3.6501     0.1892
    13.3523     3.6002     0.1877
    13.3533     3.2993     0.1800
    13.3543     3.2618     0.1807
    13.3553     3.4444     0.1852
    13.3563     3.1100     0.1744
    13.3573     3.3502     0.1809
    13.3584     3.0562     0.1727
    13.3594     3.0943     0.1738
    13.3604     3.0542     0.1726
    13.3614     3.0732     0.1734
    13.3624     2.7423     0.1651
    13.3634     3.0114     0.1736
    13.3644     2.9804     0.1727
    13.3654     2.9595     0.1720
    13.3664     3.1184     0.1765
    13.3674     2.8177     0.1678
    13.3684     2.8168     0.1677
    13.3694     2.9058     0.1703
    13.3705     2.8948     0.1700
    13.3715     2.8240     0.1679
    13.3725     2.8231     0.1678
    13.3735     2.4831     0.1574
    13.3745     2.5222     0.1586
    13.3755     2.5213     0.1585
    13.3765     2.6998     0.1640
    13.3775     2.3305     0.1523
    13.3785     2.1903     0.1477
    13.3795     2.3035     0.1522
    13.3806     2.6262     0.1638
    13.3816     2.4926     0.1596
    13.3826     2.4812     0.1585
    13.3836     2.2571     0.1498
    13.3846     2.3001     0.1510
    13.3856     2.3786     0.1535
    13.3866     2.3481     0.1525
    13.3876     2.2681     0.1499
    13.3886     2.2080     0.1479
    13.3897     1.9796     0.1400
    13.3907     2.2561     0.1494
    13.3917     2.1168     0.1447
    13.3927     2.1656     0.1463
    13.3937     2.1353     0.1453
    13.3947     1.7986     0.1333
    13.3957     1.8079     0.1336
    13.3967     1.9948     0.1407
    13.3977     2.1203     0.1463
    13.3988     2.0897     0.1456
    13.3998     1.8862     0.1383
    13.4008     1.7639     0.1337
    13.4018     1.7836     0.1344
    13.4028     2.1478     0.1475
    13.4038     1.8433     0.1366
    13.4048     1.8731     0.1377
    13.4058     2.0951     0.1456
    13.4069     1.8719     0.1376
    13.4079     1.7702     0.1338
    13.4089     1.7190     0.1318
    13.4099     1.8196     0.1356
    13.4109     1.6674     0.1298
    13.4119     1.6972     0.1309
    13.4129     1.6360     0.1285
    13.4140     1.6860     0.1305
    13.4150     1.8369     0.1362
    13.4160     1.5132     0.1235
    13.4170     1.6154     0.1277
    13.4180     1.4589     0.1224
    13.4190     1.5823     0.1275
    13.4201     1.4214     0.1197
    13.4211     1.4103     0.1192
    13.4221     1.4099     0.1192
    13.4231     1.4094     0.1191
    13.4241     1.4593     0.1212
    13.4251     1.4488     0.1207
    13.4262     1.3880     0.1182
    13.4272     1.4579     0.1211
    13.4282     1.3670     0.1172
    13.4292     1.3465     0.1163
    13.4302     1.2356     0.1114
    13.4312     1.1749     0.1086
    13.4322     1.0541     0.1029
    13.4333     1.3047     0.1144
    13.4343     1.3877     0.1181
    13.4353     1.2495     0.1131
    13.4363     1.3005     0.1159
    13.4373     1.2692     0.1144
    13.4384     1.3100     0.1162
    13.4394     1.2168     0.1120
    13.4404     1.2577     0.1139
    13.4414     1.2160     0.1119
    13.4424     1.2157     0.1119
    13.4434     1.3183     0.1165
    13.4445     1.2767     0.1147
    13.4455     1.2557     0.1137
    13.4465     1.0187     0.1024
    13.4475     1.0904     0.1059
    13.4485     1.2456     0.1128
    13.4495     1.2327     0.1112
    13.4506     1.1067     0.1060
    13.4516     1.1815     0.1102
    13.4526     1.2941     0.1153
    13.4536     1.0813     0.1045
    13.4547     1.0059     0.1006
    13.4557     1.1577     0.1089
    13.4567     0.9769     0.1002
    13.4577     0.9663     0.0997
    13.4587     1.0482     0.1038
    13.4597     1.0788     0.1053
    13.4608     0.8730     0.0947
    13.4618     0.9857     0.1006
    13.4628     1.0162     0.1021
    13.4638     0.7594     0.0883
    13.4649     0.8925     0.0957
    13.4659     0.9537     0.0989
    13.4669     0.9227     0.0973
    13.4679     1.0249     0.1025
    13.4689     1.0451     0.1035
    13.4700     0.8911     0.0955
    13.4710     0.8601     0.0938
    13.4720     0.8803     0.0949
    13.4730     0.9210     0.0971
    13.4740     1.0640     0.1043
    13.4751     1.0808     0.1060
    13.4761     0.9700     0.1011
    13.4771     0.7800     0.0907
    13.4781     0.8851     0.0966
    13.4791     0.7058     0.0862
    13.4802     0.8214     0.0930
    13.4812     1.0063     0.1022
    13.4822     0.7940     0.0905
    13.4832     0.8926     0.0968
    13.4843     0.8730     0.0958
    13.4853     0.9700     0.1006
    13.4863     0.8601     0.0938
    13.4873     0.8493     0.0932
    13.4883     0.6956     0.0844
    13.4894     0.9204     0.0970
    13.4904     0.7872     0.0897
    13.4914     0.6132     0.0792
    13.4924     0.6335     0.0804
    13.4935     0.7558     0.0879
    13.4945     0.6433     0.0810
    13.4955     0.6649     0.0825
    13.4965     0.8047     0.0917
    13.4976     0.7056     0.0862
    13.4986     0.7791     0.0906
    13.4996     0.8525     0.0947
    13.5006     0.7575     0.0893
    13.5017     0.7573     0.0893
    13.5027     0.5783     0.0780
    13.5037     0.6307     0.0814
    13.5047     0.5990     0.0793
    13.5058     0.7669     0.0898
    13.5068     0.6407     0.0820
    13.5078     0.9135     0.0979
    13.5088     0.6613     0.0833
    13.5099     0.7660     0.0897
    13.5109     0.6609     0.0833
    13.5119     0.7236     0.0871
    13.5129     0.6188     0.0799
    13.5140     0.5868     0.0777
    13.5150     0.5868     0.0784
    13.5160     0.5866     0.0784
    13.5170     0.6016     0.0790
    13.5181     0.5313     0.0737
    13.5191     0.4596     0.0693
    13.5201     0.4740     0.0707
    13.5212     0.5055     0.0730
    13.5222     0.5159     0.0737
    13.5232     0.5262     0.0744
    13.5242     0.3998     0.0649
    13.5253     0.3576     0.0613
    13.5263     0.4732     0.0705
    13.5273     0.3364     0.0595
    13.5284     0.3468     0.0604
    13.5294     0.3152     0.0575
    13.5304     0.2941     0.0556
    13.5314     0.2625     0.0525
    13.5325     0.1889     0.0445
    13.5335     0.1679     0.0420
    13.5345     0.1364     0.0378
    13.5355     0.1154     0.0348
    13.5366     0.2516     0.0514
    13.5376     0.1048     0.0331
    13.5386     0.0629     0.0257
    13.5397     0.0733     0.0277
    13.5407     0.0529     0.0237
    13.5417     0.0433     0.0217
    13.5427     0.0108     0.0108
    13.5438     0.0433     0.0216
    13.5448     0.0108     0.0108
    13.5459     0.0433     0.0216
    13.5469     0.0324     0.0187
    13.5479     0.0216     0.0153
    13.5489     0.0324     0.0187
    13.5500     0.0318     0.0184
    13.5510     0.0105     0.0105
ENDDATA           1272
ENDSUBENT         1284
SUBENT        D0876004   20180212   20180316   20180313       D113
BIB                  2          3
REACTION   ((1-H-1(7-N-15,A)6-C-12,PAR,DA,RSD)=
           (7-N-15(P,A)6-C-12,PAR,DA))
STATUS     (TABLE) Fig.4 of Nucl.Instrum.Methods.A847(2017)125
ENDBIB               3
COMMON               2          3
E-LVL      ANG-CM
MEV        ADEG
 4.43       180.
ENDCOMMON            3
DATA                 3        602
E-EXC-CMP  DATA-CM    ERR-S
MEV        MB/SR      MB/SR
    12.9162     0.0507     0.0108
    12.9173     0.0522     0.0109
    12.9184     0.0941     0.0145
    12.9195     0.1402     0.0177
    12.9206     0.1692     0.0194
    12.9217     0.2458     0.0235
    12.9228     0.3882     0.0297
    12.9239     0.4380     0.0315
    12.9250     0.4356     0.0314
    12.9261     0.4695     0.0326
    12.9272     0.4669     0.0325
    12.9283     0.5759     0.0359
    12.9294     0.6356     0.0379
    12.9305     0.6302     0.0380
    12.9316     0.7742     0.0419
    12.9327     0.8561     0.0437
    12.9338     1.0279     0.0479
    12.9349     1.2217     0.0523
    12.9360     1.5324     0.0592
    12.9371     1.7604     0.0637
    12.9382     2.0901     0.0690
    12.9393     2.3302     0.0726
    12.9404     2.6434     0.0773
    12.9415     2.8229     0.0797
    12.9426     2.9935     0.0818
    12.9437     3.1691     0.0845
    12.9448     3.0921     0.0841
    12.9459     3.0101     0.0829
    12.9470     2.6162     0.0773
    12.9481     2.4668     0.0751
    12.9492     2.0801     0.0690
    12.9503     1.8664     0.0656
    12.9514     1.5842     0.0605
    12.9525     1.3317     0.0555
    12.9537     1.2342     0.0534
    12.9548     0.9727     0.0474
    12.9559     0.8615     0.0446
    12.9570     0.7688     0.0421
    12.9581     0.7529     0.0416
    12.9591     0.7442     0.0412
    12.9603     0.7517     0.0417
    12.9614     0.7436     0.0416
    12.9625     0.7405     0.0413
    12.9636     0.6905     0.0397
    12.9647     0.7313     0.0408
    12.9658     0.7214     0.0408
    12.9669     0.6717     0.0398
    12.9680     0.7509     0.0419
    12.9691     0.7224     0.0408
    12.9702     0.7910     0.0427
    12.9713     0.7654     0.0420
    12.9724     0.7352     0.0412
    12.9735     0.6993     0.0402
    12.9746     0.8237     0.0438
    12.9758     0.8545     0.0447
    12.9769     0.8146     0.0436
    12.9780     0.8074     0.0434
    12.9791     0.7908     0.0429
    12.9802     0.7629     0.0419
    12.9813     0.8389     0.0437
    12.9824     0.8587     0.0445
    12.9835     0.8544     0.0447
    12.9846     0.8609     0.0450
    12.9857     0.8660     0.0451
    12.9868     0.8632     0.0447
    12.9879     0.7833     0.0425
    12.9890     0.8867     0.0452
    12.9901     0.9164     0.0459
    12.9913     0.8617     0.0446
    12.9924     0.9446     0.0468
    12.9935     0.8798     0.0453
    12.9946     1.0008     0.0483
    12.9957     0.8699     0.0450
    12.9968     0.8673     0.0450
    12.9979     1.0419     0.0493
    12.9990     0.8668     0.0449
    13.0001     1.0397     0.0494
    13.0012     1.0207     0.0491
    13.0024     0.9402     0.0471
    13.0035     1.1161     0.0512
    13.0046     0.9975     0.0481
    13.0057     0.9680     0.0474
    13.0068     1.0800     0.0504
    13.0079     1.1274     0.0516
    13.0090     1.0441     0.0496
    13.0101     1.0857     0.0505
    13.0112     1.0629     0.0498
    13.0123     1.2214     0.0534
    13.0135     1.1778     0.0526
    13.0146     1.1697     0.0528
    13.0157     1.1629     0.0524
    13.0168     1.2273     0.0535
    13.0179     1.2656     0.0546
    13.0190     1.1974     0.0532
    13.0201     1.1592     0.0524
    13.0212     1.3363     0.0562
    13.0224     1.2082     0.0534
    13.0235     1.3072     0.0556
    13.0246     1.2784     0.0550
    13.0257     1.2591     0.0545
    13.0268     1.3742     0.0570
    13.0279     1.3021     0.0557
    13.0290     1.3852     0.0576
    13.0302     1.3489     0.0568
    13.0313     1.3297     0.0561
    13.0324     1.3531     0.0563
    13.0335     1.3588     0.0568
    13.0346     1.3928     0.0577
    13.0357     1.3660     0.0572
    13.0368     1.4030     0.0579
    13.0380     1.5298     0.0603
    13.0391     1.3922     0.0578
    13.0402     1.4511     0.0593
    13.0413     1.3565     0.0570
    13.0424     1.5242     0.0601
    13.0435     1.4741     0.0591
    13.0447     1.5565     0.0607
    13.0458     1.5963     0.0615
    13.0469     1.5609     0.0610
    13.0480     1.5486     0.0610
    13.0491     1.5795     0.0616
    13.0502     1.5983     0.0620
    13.0514     1.4777     0.0596
    13.0525     1.6958     0.0638
    13.0536     1.7793     0.0654
    13.0547     1.7357     0.0645
    13.0558     1.6554     0.0631
    13.0570     1.7734     0.0656
    13.0581     1.5989     0.0624
    13.0592     1.7496     0.0653
    13.0603     1.7344     0.0650
    13.0614     1.7658     0.0655
    13.0626     1.7360     0.0645
    13.0637     1.7706     0.0649
    13.0648     1.9081     0.0674
    13.0659     1.8255     0.0661
    13.0671     1.8851     0.0675
    13.0682     1.7662     0.0653
    13.0693     1.7812     0.0657
    13.0704     2.0176     0.0705
    13.0716     2.0214     0.0703
    13.0727     1.7692     0.0653
    13.0738     1.9158     0.0680
    13.0749     2.0093     0.0697
    13.0760     2.0752     0.0712
    13.0772     1.9266     0.0687
    13.0783     1.9531     0.0692
    13.0794     1.9721     0.0695
    13.0805     2.0034     0.0700
    13.0817     2.1057     0.0718
    13.0828     1.9974     0.0699
    13.0839     1.9601     0.0693
    13.0850     2.1016     0.0717
    13.0862     2.1572     0.0727
    13.0873     2.0621     0.0714
    13.0884     2.2026     0.0740
    13.0896     2.0404     0.0712
    13.0907     2.1343     0.0728
    13.0918     2.1700     0.0733
    13.0929     2.0680     0.0711
    13.0941     2.1299     0.0722
    13.0952     2.0709     0.0716
    13.0963     2.1081     0.0722
    13.0975     2.0317     0.0708
    13.0986     2.2014     0.0737
    13.0997     2.1033     0.0724
    13.1009     2.1534     0.0737
    13.1020     2.1473     0.0731
    13.1031     2.0456     0.0709
    13.1042     1.9683     0.0691
    13.1054     2.0595     0.0708
    13.1065     2.1948     0.0735
    13.1076     2.0845     0.0721
    13.1088     2.0544     0.0717
    13.1099     2.0864     0.0723
    13.1110     2.1375     0.0728
    13.1122     2.0043     0.0701
    13.1133     2.0111     0.0702
    13.1144     2.0907     0.0718
    13.1156     2.0132     0.0709
    13.1167     1.8864     0.0683
    13.1178     1.9818     0.0698
    13.1190     1.9212     0.0696
    13.1201     2.0267     0.0715
    13.1212     2.1058     0.0724
    13.1224     1.9985     0.0710
    13.1235     1.9763     0.0707
    13.1247     1.9340     0.0695
    13.1258     1.8797     0.0684
    13.1269     1.8917     0.0686
    13.1281     1.8663     0.0681
    13.1292     2.0624     0.0718
    13.1304     2.0213     0.0715
    13.1315     1.9317     0.0699
    13.1326     1.9362     0.0700
    13.1338     1.9382     0.0700
    13.1349     1.7761     0.0670
    13.1360     1.9934     0.0709
    13.1372     1.8377     0.0676
    13.1383     1.8224     0.0673
    13.1394     1.9034     0.0692
    13.1406     1.9628     0.0703
    13.1417     1.9374     0.0699
    13.1429     2.0391     0.0722
    13.1440     1.7278     0.0664
    13.1451     1.8991     0.0691
    13.1463     1.9530     0.0701
    13.1474     1.9047     0.0692
    13.1486     1.9394     0.0698
    13.1497     1.9389     0.0698
    13.1508     1.7327     0.0661
    13.1520     2.0732     0.0727
    13.1531     2.0763     0.0729
    13.1542     1.9737     0.0710
    13.1554     1.9658     0.0714
    13.1565     2.0657     0.0732
    13.1577     2.0484     0.0724
    13.1588     2.0662     0.0726
    13.1599     1.9313     0.0701
    13.1611     2.0169     0.0712
    13.1622     2.0927     0.0726
    13.1634     1.9875     0.0712
    13.1645     2.1938     0.0748
    13.1656     2.2535     0.0758
    13.1668     2.1258     0.0736
    13.1679     2.2011     0.0753
    13.1691     2.4053     0.0790
    13.1702     2.3320     0.0778
    13.1714     2.3161     0.0771
    13.1725     2.4454     0.0790
    13.1736     2.6435     0.0826
    13.1748     2.4572     0.0795
    13.1759     2.6201     0.0816
    13.1770     2.6182     0.0821
    13.1782     2.6569     0.0829
    13.1793     2.8893     0.0865
    13.1805     2.9145     0.0869
    13.1816     2.8492     0.0859
    13.1827     3.0865     0.0894
    13.1839     3.0236     0.0884
    13.1850     3.2479     0.0916
    13.1862     3.2731     0.0920
    13.1873     3.3360     0.0932
    13.1884     3.6189     0.0977
    13.1896     3.6182     0.0976
    13.1907     3.8730     0.1010
    13.1918     4.0221     0.1029
    13.1930     4.0844     0.1037
    13.1941     4.2809     0.1062
    13.1953     4.3431     0.1069
    13.1964     4.7430     0.1111
    13.1975     4.7548     0.1110
    13.1987     5.2188     0.1170
    13.1998     5.4385     0.1196
    13.2010     5.7839     0.1233
    13.2021     5.9062     0.1246
    13.2032     6.6859     0.1326
    13.2044     6.8604     0.1344
    13.2055     7.4360     0.1408
    13.2067     7.8188     0.1442
    13.2078     8.2055     0.1468
    13.2089     8.6055     0.1503
    13.2101     9.2465     0.1558
    13.2112    10.0681     0.1625
    13.2123    10.8163     0.1684
    13.2135    11.9644     0.1776
    13.2146    12.7022     0.1842
    13.2158    14.0534     0.1939
    13.2169    15.3880     0.2029
    13.2180    16.3525     0.2091
    13.2192    17.5097     0.2164
    13.2203    18.6746     0.2235
    13.2214    19.9727     0.2311
    13.2226    21.7540     0.2411
    13.2237    22.9092     0.2474
    13.2248    24.2479     0.2545
    13.2260    25.4875     0.2609
    13.2271    25.5376     0.2612
    13.2283    26.7606     0.2674
    13.2294    26.6840     0.2680
    13.2305    28.1202     0.2768
    13.2317    26.9518     0.2691
    13.2328    26.5056     0.2661
    13.2339    25.1195     0.2590
    13.2351    23.9746     0.2546
    13.2362    22.9079     0.2497
    13.2373    21.7760     0.2435
    13.2385    20.0226     0.2320
    13.2396    18.5607     0.2232
    13.2407    16.8590     0.2141
    13.2419    15.7003     0.2068
    13.2430    14.1540     0.1969
    13.2441    12.9650     0.1896
    13.2453    11.3411     0.1765
    13.2464    10.2567     0.1671
    13.2475     9.1114     0.1575
    13.2487     8.2715     0.1500
    13.2498     7.4999     0.1428
    13.2509     6.9026     0.1370
    13.2521     6.1888     0.1297
    13.2532     5.4240     0.1216
    13.2543     5.2979     0.1211
    13.2555     4.8639     0.1162
    13.2566     4.5019     0.1118
    13.2577     4.0597     0.1062
    13.2589     3.8173     0.1029
    13.2600     3.5528     0.0993
    13.2611     3.0887     0.0926
    13.2623     3.0603     0.0917
    13.2634     2.7882     0.0872
    13.2645     2.6124     0.0850
    13.2657     2.3879     0.0810
    13.2668     2.1731     0.0769
    13.2679     2.0943     0.0760
    13.2691     2.0560     0.0755
    13.2702     1.7859     0.0705
    13.2713     1.7615     0.0705
    13.2725     1.7502     0.0701
    13.2736     1.4970     0.0645
    13.2747     1.6411     0.0675
    13.2758     1.5019     0.0646
    13.2770     1.2823     0.0597
    13.2781     1.1933     0.0575
    13.2793     1.2707     0.0594
    13.2804     1.1901     0.0575
    13.2815     1.1898     0.0574
    13.2827     1.0970     0.0555
    13.2838     1.0241     0.0539
    13.2849     0.9473     0.0518
    13.2861     0.9896     0.0530
    13.2872     0.9327     0.0514
    13.2883     0.8985     0.0505
    13.2895     0.8615     0.0494
    13.2906     0.8670     0.0496
    13.2917     0.7677     0.0466
    13.2928     0.6429     0.0427
    13.2940     0.7000     0.0444
    13.2951     0.6407     0.0422
    13.2963     0.6508     0.0427
    13.2974     0.6285     0.0423
    13.2985     0.6356     0.0429
    13.2997     0.6476     0.0431
    13.3008     0.5199     0.0384
    13.3019     0.6051     0.0415
    13.3031     0.5522     0.0399
    13.3042     0.5287     0.0390
    13.3053     0.5394     0.0391
    13.3065     0.5535     0.0396
    13.3076     0.3888     0.0332
    13.3087     0.4455     0.0356
    13.3099     0.4766     0.0368
    13.3110     0.4113     0.0342
    13.3121     0.4055     0.0339
    13.3133     0.3884     0.0332
    13.3144     0.3838     0.0332
    13.3155     0.4500     0.0361
    13.3167     0.3338     0.0311
    13.3178     0.3679     0.0325
    13.3190     0.3947     0.0336
    13.3201     0.3938     0.0338
    13.3212     0.3510     0.0319
    13.3224     0.2987     0.0294
    13.3235     0.3595     0.0323
    13.3246     0.3208     0.0303
    13.3258     0.2987     0.0291
    13.3269     0.3045     0.0294
    13.3280     0.3198     0.0304
    13.3292     0.2525     0.0271
    13.3303     0.2683     0.0280
    13.3315     0.2455     0.0269
    13.3326     0.2881     0.0291
    13.3337     0.2891     0.0291
    13.3349     0.2425     0.0268
    13.3360     0.2846     0.0289
    13.3371     0.2590     0.0275
    13.3383     0.2939     0.0292
    13.3394     0.2327     0.0260
    13.3406     0.2879     0.0289
    13.3417     0.2210     0.0254
    13.3428     0.2210     0.0253
    13.3440     0.2326     0.0260
    13.3451     0.2417     0.0265
    13.3463     0.1929     0.0239
    13.3474     0.2509     0.0272
    13.3485     0.1908     0.0237
    13.3497     0.2349     0.0264
    13.3508     0.2234     0.0258
    13.3519     0.2162     0.0253
    13.3531     0.2310     0.0260
    13.3542     0.1812     0.0230
    13.3554     0.2119     0.0250
    13.3565     0.1991     0.0243
    13.3576     0.1846     0.0233
    13.3588     0.1927     0.0237
    13.3599     0.1774     0.0227
    13.3611     0.1464     0.0205
    13.3622     0.2150     0.0252
    13.3633     0.1288     0.0196
    13.3645     0.1797     0.0232
    13.3656     0.1527     0.0214
    13.3668     0.1317     0.0199
    13.3679     0.1526     0.0214
    13.3690     0.1676     0.0224
    13.3702     0.1496     0.0212
    13.3713     0.1645     0.0222
    13.3725     0.1675     0.0224
    13.3736     0.2009     0.0244
    13.3748     0.1715     0.0225
    13.3759     0.1730     0.0227
    13.3770     0.1590     0.0216
    13.3782     0.0998     0.0171
    13.3793     0.1602     0.0218
    13.3805     0.1810     0.0236
    13.3816     0.1606     0.0221
    13.3827     0.1657     0.0223
    13.3839     0.2018     0.0247
    13.3850     0.1445     0.0209
    13.3862     0.1656     0.0223
    13.3873     0.1724     0.0228
    13.3885     0.1439     0.0210
    13.3896     0.1482     0.0212
    13.3908     0.1925     0.0241
    13.3919     0.1141     0.0185
    13.3930     0.1571     0.0216
    13.3942     0.1761     0.0229
    13.3953     0.1774     0.0231
    13.3965     0.1654     0.0223
    13.3976     0.1840     0.0238
    13.3988     0.1822     0.0237
    13.3999     0.1692     0.0228
    13.4011     0.2096     0.0252
    13.4022     0.1789     0.0233
    13.4033     0.1373     0.0205
    13.4045     0.1790     0.0235
    13.4056     0.1851     0.0239
    13.4068     0.1234     0.0195
    13.4079     0.1566     0.0219
    13.4091     0.1636     0.0223
    13.4102     0.1757     0.0231
    13.4113     0.1666     0.0225
    13.4125     0.1908     0.0240
    13.4136     0.1453     0.0210
    13.4148     0.1756     0.0231
    13.4159     0.2136     0.0255
    13.4171     0.1712     0.0231
    13.4182     0.1898     0.0243
    13.4194     0.1773     0.0235
    13.4205     0.1742     0.0233
    13.4216     0.1680     0.0229
    13.4228     0.1493     0.0215
    13.4239     0.1648     0.0226
    13.4251     0.1989     0.0249
    13.4262     0.1709     0.0231
    13.4274     0.2486     0.0278
    13.4285     0.1864     0.0241
    13.4297     0.2077     0.0254
    13.4308     0.2020     0.0249
    13.4320     0.2228     0.0261
    13.4331     0.1831     0.0236
    13.4343     0.1958     0.0245
    13.4354     0.1676     0.0230
    13.4365     0.2849     0.0300
    13.4377     0.2040     0.0253
    13.4388     0.1915     0.0245
    13.4400     0.2071     0.0255
    13.4411     0.2416     0.0275
    13.4423     0.2541     0.0282
    13.4434     0.2102     0.0257
    13.4446     0.2603     0.0286
    13.4457     0.2132     0.0259
    13.4469     0.2853     0.0299
    13.4480     0.2539     0.0282
    13.4491     0.2601     0.0286
    13.4503     0.2538     0.0282
    13.4514     0.2350     0.0271
    13.4526     0.2256     0.0266
    13.4537     0.2631     0.0287
    13.4549     0.3335     0.0324
    13.4560     0.2541     0.0284
    13.4572     0.3026     0.0312
    13.4583     0.2839     0.0301
    13.4595     0.2966     0.0308
    13.4606     0.3058     0.0314
    13.4618     0.3144     0.0316
    13.4629     0.3263     0.0322
    13.4641     0.3200     0.0318
    13.4652     0.3389     0.0328
    13.4664     0.3262     0.0321
    13.4675     0.3135     0.0315
    13.4686     0.3229     0.0320
    13.4698     0.3482     0.0332
    13.4709     0.3513     0.0333
    13.4721     0.3291     0.0323
    13.4732     0.3037     0.0310
    13.4744     0.3455     0.0331
    13.4755     0.3766     0.0350
    13.4767     0.3815     0.0353
    13.4778     0.3489     0.0337
    13.4790     0.4330     0.0375
    13.4801     0.3986     0.0358
    13.4813     0.3690     0.0346
    13.4824     0.3454     0.0335
    13.4836     0.3844     0.0354
    13.4847     0.4365     0.0377
    13.4859     0.3864     0.0353
    13.4870     0.3843     0.0351
    13.4881     0.4963     0.0399
    13.4893     0.4866     0.0395
    13.4904     0.4790     0.0394
    13.4916     0.5266     0.0412
    13.4927     0.5024     0.0401
    13.4939     0.4159     0.0365
    13.4950     0.4830     0.0393
    13.4962     0.4975     0.0402
    13.4973     0.5018     0.0407
    13.4985     0.4126     0.0369
    13.4996     0.5775     0.0437
    13.5008     0.5642     0.0431
    13.5019     0.4817     0.0399
    13.5031     0.5904     0.0441
    13.5042     0.5937     0.0442
    13.5054     0.5309     0.0418
    13.5065     0.5440     0.0424
    13.5077     0.5727     0.0434
    13.5088     0.5946     0.0440
    13.5100     0.5349     0.0416
    13.5111     0.5186     0.0410
    13.5123     0.5135     0.0409
    13.5134     0.5759     0.0435
    13.5146     0.5241     0.0413
    13.5157     0.5798     0.0433
    13.5168     0.4923     0.0399
    13.5180     0.5442     0.0420
    13.5192     0.5247     0.0420
    13.5203     0.4988     0.0410
    13.5214     0.4114     0.0371
    13.5226     0.4481     0.0387
    13.5238     0.4046     0.0368
    13.5249     0.4263     0.0380
    13.5261     0.3540     0.0345
    13.5272     0.3676     0.0351
    13.5283     0.3041     0.0319
    13.5295     0.3141     0.0324
    13.5306     0.2616     0.0294
    13.5318     0.3023     0.0315
    13.5329     0.2501     0.0287
    13.5341     0.1935     0.0254
    13.5353     0.2475     0.0286
    13.5364     0.1953     0.0254
    13.5376     0.1802     0.0245
    13.5387     0.2136     0.0267
    13.5398     0.1747     0.0240
    13.5410     0.1270     0.0206
    13.5421     0.1332     0.0213
    13.5433     0.1686     0.0241
    13.5445     0.1393     0.0217
    13.5456     0.1459     0.0223
    13.5468     0.1357     0.0215
    13.5479     0.1255     0.0206
    13.5490     0.1153     0.0198
    13.5502     0.1153     0.0198
    13.5514     0.1097     0.0194
    13.5525     0.0719     0.0157
    13.5536     0.0780     0.0163
    13.5548     0.1254     0.0206
    13.5560     0.0949     0.0179
    13.5571     0.0772     0.0161
    13.5583     0.0838     0.0168
    13.5594     0.1050     0.0189
    13.5606     0.0948     0.0179
    13.5617     0.1152     0.0197
    13.5628     0.0672     0.0150
    13.5640     0.0941     0.0178
    13.5651     0.0829     0.0169
    13.5663     0.0839     0.0171
    13.5675     0.1052     0.0192
    13.5686     0.0974     0.0184
    13.5698     0.0966     0.0182
    13.5709     0.0966     0.0182
    13.5721     0.0690     0.0154
    13.5732     0.0827     0.0169
    13.5743     0.0931     0.0179
    13.5755     0.0999     0.0186
    13.5766     0.0827     0.0169
    13.5778     0.1171     0.0201
    13.5790     0.1137     0.0198
    13.5801     0.0827     0.0169
    13.5813     0.0586     0.0142
    13.5824     0.0826     0.0169
    13.5836     0.0689     0.0154
    13.5847     0.0654     0.0150
    13.5859     0.0964     0.0182
    13.5870     0.0792     0.0165
    13.5882     0.0791     0.0165
    13.5893     0.0769     0.0164
    13.5905     0.0808     0.0168
    13.5916     0.0565     0.0141
    13.5928     0.0605     0.0147
    13.5939     0.0211     0.0086
    13.5951     0.0386     0.0116
    13.5962     0.0246     0.0093
    13.5974     0.0071     0.0050
ENDDATA            604
ENDSUBENT          616
SUBENT        D0876005   20180212   20180316   20180313       D113
BIB                  2          3
REACTION   ((2-HE-4(7-N-15,EL)2-HE-4,,DA)=
           (7-N-15(A,EL)7-N-15,,DA))
STATUS     (TABLE) Fig.6 of Nucl.Instrum.Methods.A847(2017)125
ENDBIB               3
COMMON               1          3
ANG-CM
ADEG
 180.
ENDCOMMON            3
DATA                 3       2089
EN-CM      DATA-CM    ERR-S
MEV        MB/SR      MB/SR
  1.1992251  182.60124  4.8802233
  1.2007673  173.65955  4.7582421
  1.2023094  178.54002  4.8236446
  1.2038516  181.07243  4.8567410
  1.2053938  169.41011  4.6967850
  1.2069452  185.95305  4.9208393
  1.2084972  186.35687  4.9263539
  1.2100493  178.16559  4.8170457
  1.2116014  168.41075  4.6835003
  1.2131660  175.01208  4.7774024
  1.2147341  168.49559  4.6913052
  1.2163020  173.99408  4.7709918
  1.2178702  173.61357  4.7695317
  1.2194269  166.93512  4.6787896
  1.2209797  168.60303  4.7034206
  1.2225327  162.13364  4.6135969
  1.2240857  170.63185  4.7342973
  1.2256434  170.08989  4.7283688
  1.2272050  175.74513  4.8081732
  1.2287666  172.98392  4.7720838
  1.2303281  171.40442  4.7520757
  1.2318915  176.91425  4.8293266
  1.2334567  165.91267  4.6777744
  1.2350221  173.24211  4.7810254
  1.2365873  170.54626  4.7447238
  1.2381535  164.69070  4.6656275
  1.2397209  157.67885  4.5708814
  1.2412884  156.87474  4.5648665
  1.2428558  167.91757  4.7286658
  1.2444235  170.44893  4.7697854
  1.2459923  163.42374  4.6749778
  1.2475611  163.07077  4.6744533
  1.2491299  168.08630  4.7504001
  1.2506973  161.03745  4.6526294
  1.2522585  167.61713  4.7428255
  1.2538199  164.79779  4.6989288
  1.2553812  156.77202  4.5793595
  1.2569426  154.51593  4.5426216
  1.2585162  163.92673  4.6817102
  1.2600898  159.43983  4.6199889
  1.2616634  156.14839  4.5748258
  1.2632370  159.29042  4.6234298
  1.2648112  156.73660  4.5841961
  1.2663854  156.72395  4.5818663
  1.2679596  155.77545  4.5658593
  1.2695339  161.38120  4.6451449
  1.2711132  170.04706  4.7753973
  1.2726927  161.07240  4.6555829
  1.2742724  157.57152  4.6125627
  1.2758522  157.16196  4.6144342
  1.2774309  151.77229  4.5391192
  1.2790096  155.68672  4.6009641
  1.2805882  157.16219  4.6264215
  1.2821667  162.32529  4.7055750
  1.2837439  151.17407  4.5456891
  1.2853205  154.92511  4.6067061
  1.2868973  153.75000  4.5941596
  1.2884741  159.31062  4.6815586
  1.2900530  153.49611  4.5968461
  1.2916329  151.70438  4.5699062
  1.2932129  149.22484  4.5323815
  1.2947929  151.42632  4.5656753
  1.2963746  151.80609  4.5750465
  1.2979573  150.96713  4.5684729
  1.2995403  156.77676  4.6617656
  1.3011230  148.02316  4.5358105
  1.3027048  157.11905  4.6760793
  1.3042856  149.59032  4.5624619
  1.3058666  143.31580  4.4655552
  1.3074474  149.84276  4.5659156
  1.3090305  141.18240  4.4314675
  1.3106166  142.50987  4.4512606
  1.3122027  143.69788  4.4687910
  1.3137887  138.07877  4.3795929
  1.3153737  149.24704  4.5498762
  1.3169576  143.43604  4.4541917
  1.3185414  136.41733  4.3378186
  1.3201252  143.19423  4.4381313
  1.3217130  147.06880  4.4960241
  1.3233091  141.77182  4.4217415
  1.3249052  145.01759  4.4796085
  1.3265011  141.34235  4.4299459
  1.3280933  140.38454  4.4216971
  1.3296771  146.03198  4.5152535
  1.3312609  140.93034  4.4410920
  1.3328447  139.87187  4.4297867
  1.3344306  153.33080  4.6421270
  1.3360252  151.16425  4.6061835
  1.3376199  141.43503  4.4525771
  1.3392146  141.39151  4.4490027
  1.3408099  148.40366  4.5560336
  1.3424070  145.59464  4.5146980
  1.3440042  139.13771  4.4154019
  1.3456013  146.55354  4.5335474
  1.3471988  155.29086  4.6694779
  1.3487976  140.71484  4.4497938
  1.3503965  139.75388  4.4394279
  1.3519955  145.28961  4.5314584
  1.3535945  141.78416  4.4813685
  1.3551944  148.76700  4.5954285
  1.3567945  140.55777  4.4717379
  1.3583944  145.99962  4.5624881
  1.3599943  151.04672  4.6459422
  1.3615929  145.71367  4.5691962
  1.3631915  142.07582  4.5177484
  1.3647902  153.25394  4.6983013
  1.3663881  144.60037  4.5680990
  1.3679829  141.72087  4.5178967
  1.3695774  146.18468  4.5839658
  1.3711721  140.87689  4.4955626
  1.3727677  141.20406  4.4968529
  1.3743742  152.37096  4.6734281
  1.3759806  143.32895  4.5347271
  1.3775871  134.70122  4.3981504
  1.3791929  133.09145  4.3736563
  1.3807913  131.78163  4.3518128
  1.3823894  136.22029  4.4242291
  1.3839878  141.95143  4.5160766
  1.3855860  135.76193  4.4163361
  1.3871938  145.82921  4.5818386
  1.3888013  135.45357  4.4203601
  1.3904090  131.68431  4.3628960
  1.3920164  131.51915  4.3646159
  1.3936200  139.46344  4.4988203
  1.3952237  129.98982  4.3475103
  1.3968275  131.25995  4.3729029
  1.3984315  132.10010  4.3911557
  1.4000471  128.79837  4.3417921
  1.4016626  133.25644  4.4222698
  1.4032782  143.18301  4.5902362
  1.4048934  128.34671  4.3513608
  1.4065017  133.03697  4.4271932
  1.4081099  135.50864  4.4651613
  1.4097183  127.98290  4.3365350
  1.4113257  133.39314  4.4243712
  1.4129283  140.12402  4.5319347
  1.4145306  129.27177  4.3503418
  1.4161329  125.90344  4.2907777
  1.4177359  136.13501  4.4592505
  1.4193519  128.28914  4.3295488
  1.4209677  131.83913  4.3897629
  1.4225837  124.57213  4.2677708
  1.4241996  131.24110  4.3820128
  1.4258156  128.71051  4.3487253
  1.4274313  126.15745  4.3144937
  1.4290472  122.09998  4.2535539
  1.4306632  123.64176  4.2890854
  1.4322811  134.75934  4.4746103
  1.4338992  126.41028  4.3307447
  1.4355172  123.41920  4.2762222
  1.4371352  126.85446  4.3332663
  1.4387543  116.21022  4.1530147
  1.4403733  121.87811  4.2587657
  1.4419923  119.96610  4.2308784
  1.4436114  117.71298  4.1960149
  1.4452293  116.06487  4.1691728
  1.4468472  124.45925  4.3200440
  1.4484651  120.86362  4.2598829
  1.4500831  120.09286  4.2485800
  1.4517006  121.58115  4.2745652
  1.4533182  111.64911  4.0960088
  1.4549358  112.68811  4.1147881
  1.4565523  107.70315  4.0222478
  1.4581652  105.36240  3.9766479
  1.4597778  112.17392  4.1014848
  1.4613906  107.13727  4.0067067
  1.4630051  112.31400  4.1011276
  1.4646301  106.84290  4.0012980
  1.4662552  110.51162  4.0707479
  1.4678800  113.28502  4.1228638
  1.4695065  103.25669  3.9394886
  1.4711370  109.34518  4.0637813
  1.4727677  112.00133  4.1228256
  1.4743984  107.51477  4.0492406
  1.4760253  111.68919  4.1338024
  1.4776442  107.51340  4.0549450
  1.4792631  120.15740  4.2858729
  1.4808819  113.99594  4.1736879
  1.4825023  123.53767  4.3433533
  1.4841259  123.06956  4.3322539
  1.4857492  114.68376  4.1793089
  1.4873728  128.83192  4.4267173
  1.4889957  117.54729  4.2278819
  1.4906178  130.48540  4.4572964
  1.4922400  128.66846  4.4289508
  1.4938622  128.67867  4.4319286
  1.4954910  130.26523  4.4628129
  1.4971298  134.68152  4.5426946
  1.4987686  134.51003  4.5446730
  1.5004072  137.72282  4.6035662
  1.5020394  144.22005  4.7139797
  1.5036650  140.58812  4.6553378
  1.5052904  138.49530  4.6216478
  1.5069159  138.09804  4.6161079
  1.5085444  140.96042  4.6676660
  1.5101759  145.24919  4.7450843
  1.5118074  140.85617  4.6796331
  1.5134389  145.32458  4.7602654
  1.5150700  146.60498  4.7791858
  1.5167007  140.65938  4.6730952
  1.5183314  139.24348  4.6414499
  1.5199622  137.37643  4.6022835
  1.5215946  136.49028  4.5906649
  1.5232278  136.64981  4.6012383
  1.5248611  130.28017  4.5004535
  1.5264943  143.36610  4.7292109
  1.5281305  133.56490  4.5678229
  1.5297681  139.72244  4.6730175
  1.5314057  142.44604  4.7194481
  1.5330433  140.32300  4.6852484
  1.5346825  133.57994  4.5710115
  1.5363222  135.73685  4.6072087
  1.5379617  136.17342  4.6140599
  1.5396014  136.14140  4.6129751
  1.5412385  129.28993  4.5040283
  1.5428755  127.44428  4.4807024
  1.5445127  132.54224  4.5785956
  1.5461497  128.94624  4.5251260
  1.5477839  129.31450  4.5296893
  1.5494180  132.82962  4.5885229
  1.5510523  130.32112  4.5427089
  1.5526866  127.83194  4.4971118
  1.5543225  124.89769  4.4464755
  1.5559584  135.10658  4.6259613
  1.5575943  129.95479  4.5382180
  1.5592309  121.46248  4.3886175
  1.5608751  126.87169  4.4855919
  1.5625193  122.76606  4.4127350
  1.5641634  125.79815  4.4672232
  1.5658081  124.50230  4.4465113
  1.5674534  124.98516  4.4637561
  1.5690987  132.19263  4.5995698
  1.5707443  126.44173  4.5071611
  1.5723870  120.26418  4.4002366
  1.5740246  129.10956  4.5561776
  1.5756624  114.80991  4.2936473
  1.5772998  120.91454  4.4034481
  1.5789396  121.01958  4.4043536
  1.5805826  116.94375  4.3312502
  1.5822256  115.91193  4.3137951
  1.5838685  121.62668  4.4205971
  1.5855163  119.96658  4.3922882
  1.5871693  113.80956  4.2802491
  1.5888224  110.70184  4.2235389
  1.5904754  119.52412  4.3908281
  1.5921227  127.59712  4.5397019
  1.5937661  121.32338  4.4301033
  1.5954094  122.15879  4.4487610
  1.5970529  116.66836  4.3509955
  1.5986959  113.81886  4.2988791
  1.6003388  116.45532  4.3491039
  1.6019815  116.81908  4.3566165
  1.6036243  112.14496  4.2692857
  1.6052725  114.21573  4.3107953
  1.6069220  117.77693  4.3801713
  1.6085715  114.98598  4.3306227
  1.6102209  112.18816  4.2802453
  1.6118739  113.83087  4.3147478
  1.6135268  116.46329  4.3677149
  1.6151800  119.92402  4.4355502
  1.6168309  108.42103  4.2202830
  1.6184679  112.02950  4.2898312
  1.6201049  109.56036  4.2421942
  1.6217419  109.06276  4.2324557
  1.6233813  112.18928  4.2928033
  1.6250353  113.90294  4.3268151
  1.6266896  113.80977  4.3263984
  1.6283436  110.75443  4.2692695
  1.6299955  115.43155  4.3597894
  1.6316426  104.94926  4.1582413
  1.6332897  106.98406  4.1994920
  1.6349369  113.96919  4.3355923
  1.6365874  113.24157  4.3235831
  1.6382442  116.38180  4.3863039
  1.6399009  112.24667  4.3108077
  1.6415577  114.73128  4.3614287
  1.6432117  106.87844  4.2148743
  1.6448634  102.07808  4.1262617
  1.6465150  117.49599  4.4346008
  1.6481667  113.53777  4.3668375
  1.6498148  109.50726  4.2886353
  1.6514617  112.70091  4.3475318
  1.6531085  111.86674  4.3282537
  1.6547554  107.35680  4.2370348
  1.6564120  112.90725  4.3458023
  1.6580720  107.47720  4.2417865
  1.6597319  104.55143  4.1854067
  1.6613919  108.83153  4.2720113
  1.6630478  106.91407  4.2360897
  1.6647036  108.85723  4.2763162
  1.6663594  110.13136  4.3031878
  1.6680142  100.29809  4.1083694
  1.6696614  101.54218  4.1351171
  1.6713086  100.26045  4.1102781
  1.6729559  105.21591  4.2120070
  1.6746051  103.27092  4.1744795
  1.6762627  111.33325  4.3369279
  1.6779203  110.28099  4.3189368
  1.6795781  107.36343  4.2639465
  1.6812361  106.63530  4.2518277
  1.6828952  106.73806  4.2559252
  1.6845543  107.69034  4.2769299
  1.6862133  95.042709  4.0198784
  1.6878742  103.71510  4.2027478
  1.6895375  108.06592  4.2952342
  1.6912006  102.16943  4.1815162
  1.6928638  114.42880  4.4307013
  1.6945193  109.30334  4.3307557
  1.6961708  99.610580  4.1325431
  1.6978226  99.527481  4.1290956
  1.6994743  105.77796  4.2550139
  1.7011344  100.14398  4.1404438
  1.7027972  101.55725  4.1704564
  1.7044598  103.65727  4.2142673
  1.7061224  105.41647  4.2508025
  1.7077817  108.44492  4.3137074
  1.7094411  108.04775  4.3081460
  1.7111003  100.08327  4.1485848
  1.7127597  103.63786  4.2239637
  1.7144263  106.74171  4.2903113
  1.7160928  95.691971  4.0655622
  1.7177591  101.21490  4.1847210
  1.7194238  104.10983  4.2467279
  1.7210833  105.30978  4.2708755
  1.7227428  90.749794  3.9644229
  1.7244022  103.90012  4.2417049
  1.7260631  106.56782  4.2972293
  1.7277253  99.269882  4.1506820
  1.7293875  94.556549  4.0540786
  1.7310498  97.314209  4.1159525
  1.7327163  96.873978  4.1083717
  1.7343866  103.17332  4.2403979
  1.7360569  97.447754  4.1216006
  1.7377272  103.05352  4.2390552
  1.7393949  98.055244  4.1398959
  1.7410620  87.827713  3.9238529
  1.7427291  100.92374  4.2124758
  1.7443961  96.815231  4.1319737
  1.7460545  97.407173  4.1421742
  1.7477129  95.708771  4.1034794
  1.7493709  98.583855  4.1622138
  1.7510302  100.59235  4.2023053
  1.7527003  100.83936  4.2089539
  1.7543702  95.988525  4.1079297
  1.7560403  100.27919  4.2002330
  1.7577100  101.25964  4.2228189
  1.7593787  93.845833  4.0687327
  1.7610475  93.651535  4.0679626
  1.7627163  95.403488  4.1093192
  1.7643868  97.717758  4.1629167
  1.7660596  99.896187  4.2138662
  1.7677327  98.164833  4.1819625
  1.7694057  101.96082  4.2669277
  1.7710717  92.341286  4.0611653
  1.7727344  94.776909  4.1129675
  1.7743969  91.858643  4.0477753
  1.7760597  94.648552  4.1073976
  1.7777305  83.653488  3.8627594
  1.7794029  94.621674  4.1101027
  1.7810751  96.318054  4.1487126
  1.7827476  88.179100  3.9713869
  1.7844239  98.778122  4.2042761
  1.7861004  91.126221  4.0390987
  1.7877767  100.12489  4.2348313
  1.7894498  89.636253  4.0086551
  1.7911143  88.010841  3.9759245
  1.7927790  95.196945  4.1389976
  1.7944436  84.740921  3.9088070
  1.7961116  88.976852  4.0073161
  1.7977844  83.722221  3.8867066
  1.7994576  101.74100  4.2840691
  1.8011303  87.288658  3.9676664
  1.8028023  95.474121  4.1510487
  1.8044736  98.307419  4.2148957
  1.8061450  96.805305  4.1852584
  1.8078164  94.574570  4.1394162
  1.8094915  95.510864  4.1644716
  1.8111677  96.114159  4.1828318
  1.8128442  90.698013  4.0683618
  1.8145206  89.640335  4.0495377
  1.8161936  94.312195  4.1518631
  1.8178667  93.497765  4.1320562
  1.8195399  96.334259  4.1924105
  1.8212128  90.456764  4.0616288
  1.8228854  90.524269  4.0646596
  1.8245580  91.687843  4.0922289
  1.8262305  80.789619  3.8427703
  1.8279064  86.714836  3.9829445
  1.8295875  92.119469  4.1074042
  1.8312683  85.802162  3.9662066
  1.8329493  100.39434  4.2925520
  1.8346214  93.852821  4.1518044
  1.8362892  90.959961  4.0883465
  1.8379567  89.351250  4.0530553
  1.8396245  85.533722  3.9665313
  1.8413036  90.391197  4.0792975
  1.8429857  90.658676  4.0872087
  1.8446681  87.053566  4.0069652
  1.8463502  91.561462  4.1112313
  1.8480312  85.691063  3.9781077
  1.8497123  83.141388  3.9193227
  1.8513933  80.589661  3.8595448
  1.8530738  90.450821  4.0903277
  1.8547530  83.535179  3.9335179
  1.8564324  78.826370  3.8236406
  1.8581116  75.961952  3.7560771
  1.8597897  87.776390  4.0402355
  1.8614664  81.181366  3.8878825
  1.8631430  83.891335  3.9546754
  1.8648196  85.114754  3.9858634
  1.8664994  89.478455  4.0883751
  1.8681803  82.246941  3.9209690
  1.8698610  80.804512  3.8877087
  1.8715420  95.082588  4.2186074
  1.8732246  86.709740  4.0297437
  1.8749077  83.761391  3.9617777
  1.8765907  80.997238  3.8969812
  1.8782728  77.898506  3.8238876
  1.8799517  92.287224  4.1691117
  1.8816308  84.662476  3.9999259
  1.8833098  80.588318  3.9091074
  1.8849894  75.399628  3.7841988
  1.8866704  88.210762  4.0906763
  1.8883512  74.654770  3.7610531
  1.8900318  82.895531  3.9609015
  1.8917173  81.368164  3.9239213
  1.8934054  86.513153  4.0469146
  1.8950934  83.140221  3.9680665
  1.8967817  83.174988  3.9697258
  1.8984636  84.309639  4.0011582
  1.9001453  89.265739  4.1219091
  1.9018269  82.988914  3.9790139
  1.9035087  86.022987  4.0551624
  1.9051893  83.668320  3.9978268
  1.9068700  81.508316  3.9444637
  1.9085507  86.027962  4.0508986
  1.9102349  90.972931  4.1653643
  1.9119253  81.687035  3.9484918
  1.9136157  76.398621  3.8199310
  1.9153059  78.556862  3.8749242
  1.9169905  82.651268  3.9765606
  1.9186728  81.016937  3.9391782
  1.9203548  77.653435  3.8586299
  1.9220370  84.839577  4.0354071
  1.9237260  86.765633  4.0856342
  1.9254160  85.053886  4.0501852
  1.9271059  84.686699  4.0464869
  1.9287941  83.501778  4.0221391
  1.9304724  90.812805  4.1933460
  1.9321504  73.345070  3.7674832
  1.9338286  86.069809  4.0801001
  1.9355115  82.572250  3.9959512
  1.9372038  89.196350  4.1542883
  1.9388962  80.340561  3.9437633
  1.9405885  83.290710  4.0166345
  1.9422798  88.255089  4.1374621
  1.9439712  82.781624  4.0107827
  1.9456624  82.738960  4.0134292
  1.9473534  86.011589  4.0957899
  1.9490345  86.612236  4.1104350
  1.9507146  78.033066  3.9016533
  1.9523947  75.891243  3.8478389
  1.9540763  79.025375  3.9268022
  1.9557663  79.678787  3.9446876
  1.9574560  83.656151  4.0436726
  1.9591459  82.162842  4.0091362
  1.9608362  86.368912  4.1128054
  1.9625269  82.777626  4.0295520
  1.9642175  84.086548  4.0644765
  1.9659083  83.038216  4.0422373
  1.9676020  81.332764  4.0021234
  1.9692972  83.924194  4.0661402
  1.9709923  86.517708  4.1292653
  1.9726876  81.818634  4.0163188
  1.9743781  80.689919  3.9898601
  1.9760685  78.178391  3.9286120
  1.9777591  76.848831  3.8963904
  1.9794497  75.911591  3.8738472
  1.9811428  76.748566  3.8963182
  1.9828359  85.503647  4.1137958
  1.9845288  78.623848  3.9460177
  1.9862232  77.073547  3.9077840
  1.9879193  76.104027  3.8836675
  1.9896153  71.962204  3.7770362
  1.9913113  83.285530  4.0639176
  1.9930036  79.410194  3.9705098
  1.9946947  84.682343  4.1028728
  1.9963863  75.039894  3.8647513
  1.9980779  83.707649  4.0845151
  1.9997747  77.420837  3.9304476
  2.0014715  75.114700  3.8737450
  2.0031686  79.803391  3.9951668
  2.0048630  84.096046  4.1034670
  2.0065539  76.962723  3.9274876
  2.0082450  81.852669  4.0523109
  2.0099359  79.522842  3.9961731
  2.0116334  79.942032  4.0071321
  2.0133357  77.706886  3.9500630
  2.0150383  77.480736  3.9436657
  2.0167408  80.866875  4.0282660
  2.0184395  77.251297  3.9422138
  2.0201380  81.497925  4.0546732
  2.0218365  77.474022  3.9587374
  2.0235331  75.367569  3.9076264
  2.0252247  75.259140  3.9020047
  2.0269163  84.040298  4.1204147
  2.0286078  83.517181  4.1046457
  2.0303066  82.531914  4.0809407
  2.0320117  83.102524  4.0991449
  2.0337172  81.041428  4.0520716
  2.0354228  80.595924  4.0449934
  2.0371230  84.769806  4.1511955
  2.0388227  81.007835  4.0605559
  2.0405223  83.961571  4.1364899
  2.0422211  80.586983  4.0547714
  2.0439174  80.428528  4.0519309
  2.0456138  81.291214  4.0747604
  2.0473096  79.293854  4.0255356
  2.0490072  87.742142  4.2362304
  2.0507061  84.764297  4.1659379
  2.0524051  80.345383  4.0580544
  2.0541041  82.893211  4.1240911
  2.0558023  85.640594  4.1938381
  2.0575004  89.828087  4.2970600
  2.0591981  92.582909  4.3644004
  2.0608962  99.666351  4.5302887
  2.0625989  93.756317  4.3953638
  2.0643020  86.807602  4.2307434
  2.0660048  93.054932  4.3817854
  2.0677059  83.621071  4.1551642
  2.0694041  90.706497  4.3291850
  2.0711031  92.839729  4.3813777
  2.0728016  95.596878  4.4475689
  2.0745018  94.025734  4.4128461
  2.0762029  86.032616  4.2231750
  2.0779040  86.531799  4.2374806
  2.0796051  85.162704  4.2058859
  2.0813036  82.145370  4.1331820
  2.0830023  83.076805  4.1590424
  2.0847008  73.170403  3.9055471
  2.0864005  79.509651  4.0734024
  2.0881038  78.314430  4.0441399
  2.0898070  69.384850  3.8079884
  2.0915103  71.526901  3.8677318
  2.0932150  65.101173  3.6915491
  2.0949204  66.003441  3.7188728
  2.0966256  68.585442  3.7927837
  2.0983312  61.514767  3.5937312
  2.1000292  65.754219  3.7166483
  2.1017272  57.596748  3.4795470
  2.1034255  62.049465  3.6126595
  2.1051254  65.662056  3.7173817
  2.1068311  58.107754  3.4976757
  2.1085365  68.450119  3.7969291
  2.1102421  62.155491  3.6188326
  2.1119473  65.140953  3.7057395
  2.1136525  59.487411  3.5424240
  2.1153576  58.892639  3.5258100
  2.1170626  56.818745  3.4643002
  2.1187625  59.198307  3.5377753
  2.1204629  59.677776  3.5537598
  2.1221628  62.488235  3.6382055
  2.1238647  58.731583  3.5288386
  2.1255703  67.702614  3.7906187
  2.1272762  65.431778  3.7283216
  2.1289821  59.328865  3.5519261
  2.1306858  68.957146  3.8309526
  2.1323884  60.278526  3.5831864
  2.1340907  60.326069  3.5860124
  2.1357932  63.360424  3.6765447
  2.1375017  56.365921  3.4690828
  2.1392105  64.745232  3.7195163
  2.1409192  58.809967  3.5463743
  2.1426268  59.711994  3.5748634
  2.1443322  68.107178  3.8192606
  2.1460373  60.868561  3.6118844
  2.1477425  59.625080  3.5760746
  2.1494477  64.399658  3.7181163
  2.1511526  61.882751  3.6464758
  2.1528578  55.274609  3.4479353
  2.1545627  63.508286  3.6975951
  2.1562724  58.579777  3.5519207
  2.1579821  56.016613  3.4740028
  2.1596918  68.323204  3.8374133
  2.1613998  59.739727  3.5894122
  2.1631055  55.483620  3.4609733
  2.1648107  64.401596  3.7306843
  2.1665161  63.819229  3.7156990
  2.1682231  60.189785  3.6099434
  2.1699309  58.282181  3.5535274
  2.1716387  55.721493  3.4758112
  2.1733463  59.233715  3.5849874
  2.1750512  60.385307  3.6216700
  2.1767564  60.452168  3.6256802
  2.1784613  58.995316  3.5837102
  2.1801679  59.052238  3.5871680
  2.1818774  63.673042  3.7261827
  2.1835868  56.516975  3.5117941
  2.1852965  59.832417  3.6146088
  2.1870086  64.043144  3.7414405
  2.1887219  57.327744  3.5417202
  2.1904354  71.844986  3.9669759
  2.1921473  63.149662  3.7211294
  2.1938527  68.042175  3.8645360
  2.1955583  68.770020  3.8871117
  2.1972637  63.121250  3.7259295
  2.1989725  61.855377  3.6899822
  2.2006848  54.849125  3.4759221
  2.2023971  65.026772  3.7860048
  2.2041097  56.027878  3.5155015
  2.2058220  60.256611  3.6468959
  2.2075343  57.201752  3.5543439
  2.2092466  53.038204  3.4236014
  2.2109578  63.466610  3.7463155
  2.2126648  62.408394  3.7163658
  2.2143722  56.033211  3.5227776
  2.2160792  50.091602  3.3320441
  2.2177892  58.775341  3.6105404
  2.2195013  55.260208  3.5019734
  2.2212136  46.189270  3.2026496
  2.2229257  57.994045  3.5897415
  2.2246344  55.818699  3.5232451
  2.2263432  57.201283  3.5681181
  2.2280519  52.348904  3.4148660
  2.2297611  58.419033  3.6091402
  2.2314725  58.936417  3.6272860
  2.2331836  58.337467  3.6109986
  2.2348948  56.170528  3.5454524
  2.2366056  58.229485  3.6112392
  2.2383165  57.143829  3.5784853
  2.2400272  59.644550  3.6570423
  2.2417381  66.411659  3.8600993
  2.2434492  61.517250  3.7163932
  2.2451603  63.805634  3.7861676
  2.2468715  60.027000  3.6735930
  2.2485838  76.311600  4.1446772
  2.2502975  66.315987  3.8676271
  2.2520113  77.299736  4.1798911
  2.2537251  79.721687  4.2491803
  2.2554350  80.244476  4.2649460
  2.2571440  83.240631  4.3451257
  2.2588532  85.786514  4.4123821
  2.2605631  84.710197  4.3861279
  2.2622771  83.895699  4.3674359
  2.2639916  95.370575  4.6591578
  2.2657056  84.539909  4.3890934
  2.2674160  80.476013  4.2833056
  2.2691240  96.213844  4.6836166
  2.2708321  90.977165  4.5545549
  2.2725401  91.896622  4.5776968
  2.2742548  95.386475  4.6655049
  2.2759697  99.569946  4.7685356
  2.2776847  97.132034  4.7115955
  2.2794011  93.983269  4.6358523
  2.2811198  98.572403  4.7480655
  2.2828383  99.045799  4.7598376
  2.2845573  95.859062  4.6830220
  2.2862682  92.320778  4.5988255
  2.2879775  95.219376  4.6741357
  2.2896867  81.351158  4.3237653
  2.2913971  90.448051  4.5625010
  2.2931130  85.463112  4.4370236
  2.2948291  87.847305  4.5005536
  2.2965453  81.927734  4.3482728
  2.2982564  86.134895  4.4598956
  2.2999642  86.169083  4.4616661
  2.3016722  85.972305  4.4574566
  2.3033798  88.549866  4.5246863
  2.3050961  85.599358  4.4500985
  2.3068135  96.538071  4.7274899
  2.3085308  94.286873  4.6736264
  2.3102489  84.834892  4.4343910
  2.3119678  95.525208  4.7061892
  2.3136868  100.65573  4.8316298
  2.3154058  103.23752  4.8939271
  2.3171217  101.31985  4.8523412
  2.3188374  97.801331  4.7722163
  2.3205528  107.56834  5.0099568
  2.3222678  107.28004  5.0074039
  2.3239806  111.47050  5.1038837
  2.3256929  108.88391  5.0439496
  2.3274057  113.30704  5.1450076
  2.3291187  104.29590  4.9385538
  2.3308320  107.06796  5.0084281
  2.3325453  105.62521  4.9792199
  2.3342586  102.29558  4.9046974
  2.3359756  102.58779  4.9130645
  2.3376930  99.574310  4.8414683
  2.3394103  94.674126  4.7219162
  2.3411286  88.590324  4.5686975
  2.3428485  83.206253  4.4286218
  2.3445685  83.005585  4.4242125
  2.3462884  78.794365  4.3114357
  2.3480089  72.056213  4.1259265
  2.3497295  68.626305  4.0298753
  2.3514500  67.081177  3.9875619
  2.3531687  58.861988  3.7377398
  2.3548825  59.588135  3.7611697
  2.3565960  52.715992  3.5380657
  2.3583093  50.115944  3.4501238
  2.3600221  52.323521  3.5276508
  2.3617342  46.946125  3.3447728
  2.3634460  47.516743  3.3683727
  2.3651583  43.062775  3.2097099
  2.3668735  53.256489  3.5663183
  2.3685887  47.918777  3.3799300
  2.3703043  44.265800  3.2457259
  2.3720224  44.508957  3.2548172
  2.3737442  36.280243  2.9427161
  2.3754661  49.307888  3.4354432
  2.3771882  38.405525  3.0362234
  2.3789082  50.187408  3.4715354
  2.3806286  37.942955  3.0185795
  2.3823485  49.472950  3.4469438
  2.3840673  42.517704  3.1958263
  2.3857839  48.307644  3.4073586
  2.3875003  38.954590  3.0605617
  2.3892169  39.937054  3.0997164
  2.3909340  42.630344  3.2042928
  2.3926516  40.514896  3.1257920
  2.3943689  42.981911  3.2216303
  2.3960860  44.722393  3.2880559
  2.3978021  43.039745  3.2259653
  2.3995180  39.179752  3.0782521
  2.4012341  45.720001  3.3256407
  2.4029512  44.302776  3.2749555
  2.4046695  47.264713  3.3846965
  2.4063878  44.652245  3.2918072
  2.4081059  44.706100  3.2957773
  2.4098272  44.959919  3.3055191
  2.4115481  42.296097  3.2064586
  2.4132695  42.548775  3.2163851
  2.4149914  35.507656  2.9386344
  2.4167137  49.873291  3.4833019
  2.4184363  41.858940  3.1917143
  2.4201589  41.629589  3.1834941
  2.4218824  39.758873  3.1141553
  2.4236059  48.150429  3.4305758
  2.4253297  44.820164  3.3132019
  2.4270508  44.879799  3.3176103
  2.4287679  46.844666  3.3895609
  2.4304852  43.413807  3.2631814
  2.4322021  47.831924  3.4253151
  2.4339213  50.330982  3.5152683
  2.4356411  51.618816  3.5620368
  2.4373608  46.265186  3.3742356
  2.4390810  46.558952  3.3866653
  2.4408031  39.677654  3.1270373
  2.4425249  47.830074  3.4339995
  2.4442468  51.056324  3.5486598
  2.4459713  45.165306  3.3387156
  2.4476967  48.409927  3.4578521
  2.4494219  48.940514  3.4780507
  2.4511476  49.474087  3.4983463
  2.4528730  45.315033  3.3497837
  2.4545984  48.831646  3.4791107
  2.4563241  55.829266  3.7219512
  2.4580462  54.888702  3.6922135
  2.4597657  51.706543  3.5852036
  2.4614854  61.705769  3.9183202
  2.4632051  49.559082  3.5131505
  2.4649267  52.355751  3.6128900
  2.4666481  47.421368  3.4403079
  2.4683697  56.718147  3.7645154
  2.4700909  57.263268  3.7840631
  2.4718113  62.793560  3.9634945
  2.4735322  51.059059  3.5748494
  2.4752526  63.603104  3.9908135
  2.4769790  68.644623  4.1469736
  2.4787061  60.406796  3.8911438
  2.4804330  63.445778  3.9888017
  2.4821615  65.737442  4.0612731
  2.4838917  65.775482  4.0636230
  2.4856219  69.581573  4.1807513
  2.4873521  66.354561  4.0838413
  2.4890747  65.942276  4.0739279
  2.4907970  64.271820  4.0248575
  2.4925189  72.440369  4.2760196
  2.4942415  65.958847  4.0827503
  2.4959648  69.813103  4.2022548
  2.4976878  70.129921  4.2136984
  2.4994109  71.207550  4.2478862
  2.5011330  73.543518  4.3186240
  2.5028548  70.804764  4.2389703
  2.5045767  72.379494  4.2873912
  2.5062995  77.754456  4.4449263
  2.5080252  74.707153  4.3570099
  2.5097508  81.316132  4.5457101
  2.5114765  95.040993  4.9144526
  2.5132067  80.589401  4.5263515
  2.5149388  83.177605  4.5997324
  2.5166707  90.095329  4.7885127
  2.5184011  82.016541  4.5706029
  2.5201275  98.971207  5.0245018
  2.5218539  92.729095  4.8670154
  2.5235801  94.143402  4.9075642
  2.5253057  103.47962  5.1483035
  2.5270309  100.77839  5.0835977
  2.5287559  115.01505  5.4339499
  2.5304813  102.53575  5.1332083
  2.5322073  97.689491  5.0113654
  2.5339327  116.49974  5.4736352
  2.5356588  121.17432  5.5834184
  2.5373876  126.39079  5.7039366
  2.5391178  121.31971  5.5901170
  2.5408475  125.52096  5.6878977
  2.5425780  128.16245  5.7488713
  2.5443091  131.52786  5.8241515
  2.5460398  121.99797  5.6094728
  2.5477710  132.32854  5.8424478
  2.5494981  133.53326  5.8727865
  2.5512240  129.87727  5.7967067
  2.5529499  121.80314  5.6183596
  2.5546761  122.76608  5.6447906
  2.5564027  131.18887  5.8378282
  2.5581293  124.80600  5.6965890
  2.5598562  120.23346  5.5937667
  2.5615821  126.53762  5.7398634
  2.5633078  115.63249  5.4876752
  2.5650337  119.83092  5.5871458
  2.5667598  114.13168  5.4534225
  2.5684919  130.33458  5.8287392
  2.5702233  130.12128  5.8250284
  2.5719552  116.60415  5.5151868
  2.5736907  109.55821  5.3458934
  2.5754280  118.66476  5.5630898
  2.5771656  107.16875  5.2862444
  2.5789008  124.15928  5.6908312
  2.5806315  117.59749  5.5435987
  2.5823619  122.00723  5.6518760
  2.5840924  117.51479  5.5520520
  2.5858226  118.99361  5.5908074
  2.5875525  114.40729  5.4854097
  2.5892825  116.39279  5.5362406
  2.5910118  118.33870  5.5847487
  2.5927370  121.44507  5.6562610
  2.5944626  120.33586  5.6290741
  2.5961881  121.59676  5.6571932
  2.5979204  126.09157  5.7612710
  2.5996561  123.24953  5.6972117
  2.6013920  126.99185  5.7843204
  2.6031284  138.65305  6.0455599
  2.6048679  122.92475  5.6943789
  2.6066074  116.67720  5.5497684
  2.6083472  121.77985  5.6718535
  2.6100841  125.64822  5.7651353
  2.6118200  120.27722  5.6448898
  2.6135561  122.84965  5.7093077
  2.6152906  120.11372  5.6496744
  2.6170228  125.08470  5.7697268
  2.6187546  115.94404  5.5590911
  2.6204870  119.58878  5.6500387
  2.6222167  115.64699  5.5576396
  2.6239462  131.44911  5.9261837
  2.6256757  126.68277  5.8187323
  2.6274061  131.79753  5.9358625
  2.6291382  128.07417  5.8518581
  2.6308703  123.81503  5.7541728
  2.6326025  127.84608  5.8475432
  2.6343389  135.70393  6.0268230
  2.6360765  125.91179  5.8078775
  2.6378140  130.31345  5.9111381
  2.6395528  123.94164  5.7662864
  2.6412947  131.43637  5.9376903
  2.6430364  129.00594  5.8821645
  2.6447780  126.57641  5.8261514
  2.6465173  138.06319  6.0897059
  2.6482558  123.76849  5.7707357
  2.6499951  130.71704  5.9355550
  2.6517315  124.67847  5.8005672
  2.6534653  125.86707  5.8306789
  2.6551993  132.19418  5.9780278
  2.6569333  124.46198  5.8030696
  2.6586652  129.57367  5.9203720
  2.6603973  126.84039  5.8569450
  2.6621294  127.62363  5.8743539
  2.6638656  129.30766  5.9143949
  2.6656051  128.64276  5.9025345
  2.6673448  130.14539  5.9402971
  2.6690845  127.57314  5.8845100
  2.6708279  118.57670  5.6722927
  2.6725714  126.67545  5.8618412
  2.6743152  126.36313  5.8536587
  2.6760592  130.58101  5.9539819
  2.6778038  125.94563  5.8531899
  2.6795487  125.37989  5.8458676
  2.6812916  123.40202  5.8043432
  2.6830287  113.90342  5.5778747
  2.6847661  129.26447  5.9435868
  2.6865032  116.47839  5.6433959
  2.6882386  126.71904  5.8891335
  2.6899736  135.08206  6.0837903
  2.6917083  126.18240  5.8832850
  2.6934447  136.43665  6.1200199
  2.6951859  126.81023  5.8997459
  2.6969266  119.10793  5.7173638
  2.6986675  128.69550  5.9426060
  2.7004108  127.54923  5.9149537
  2.7021551  131.05849  5.9944758
  2.7038989  118.12127  5.6897016
  2.7056446  120.11842  5.7394800
  2.7073922  125.62817  5.8766379
  2.7091398  121.24393  5.7800775
  2.7108879  127.60931  5.9369221
  2.7126300  123.28459  5.8376946
  2.7143722  135.82802  6.1298327
  2.7161145  127.07349  5.9312825
  2.7178545  121.93975  5.8132496
  2.7195930  126.80602  5.9317355
  2.7213316  118.62689  5.7407575
  2.7230704  118.18254  5.7326951
  2.7248130  125.84327  5.9126325
  2.7265558  127.66120  5.9522343
  2.7282987  121.15850  5.7957969
  2.7300441  125.08028  5.8898005
  2.7317913  115.48319  5.6620293
  2.7335382  119.76125  5.7686963
  2.7352855  128.77625  5.9847398
  2.7370329  124.44698  5.8861403
  2.7387805  118.71592  5.7518048
  2.7405279  118.83157  5.7574086
  2.7422760  117.02944  5.7172627
  2.7440243  111.59346  5.5866609
  2.7457721  121.82609  5.8411140
  2.7475195  131.16321  6.0630217
  2.7492659  129.48621  6.0242434
  2.7510121  124.16563  5.8992872
  2.7527585  132.86507  6.1026945
  2.7545052  124.84270  5.9181113
  2.7562521  116.24508  5.7131338
  2.7579985  131.51990  6.0795097
  2.7597458  126.07245  5.9563632
  2.7614937  131.92476  6.0982246
  2.7632418  136.38493  6.2057295
  2.7649891  122.98611  5.8967323
  2.7667334  117.24823  5.7554893
  2.7684777  123.37653  5.9018998
  2.7702222  132.31786  6.1098709
  2.7719719  128.51144  6.0247092
  2.7737234  123.64059  5.9145317
  2.7754750  125.83823  5.9720182
  2.7772267  121.13371  5.8620710
  2.7789779  108.62350  5.5504012
  2.7807295  108.87923  5.5562201
  2.7824812  113.95733  5.6836753
  2.7842312  104.37856  5.4411087
  2.7859814  118.34429  5.7953448
  2.7877319  110.74498  5.6077900
  2.7894828  121.13503  5.8690109
  2.7912340  113.38756  5.6836047
  2.7929854  114.17352  5.7086763
  2.7947354  118.33449  5.8158226
  2.7964816  109.40292  5.5902276
  2.7982278  125.60399  5.9879351
  2.7999735  120.38856  5.8604236
  2.8017249  108.20992  5.5583701
  2.8034778  97.767975  5.2866864
  2.8052301  113.34662  5.6958818
  2.8069842  113.72818  5.7078538
  2.8087397  122.63251  5.9276662
  2.8104954  124.66256  5.9771123
  2.8122513  125.26434  5.9922061
  2.8140082  122.78020  5.9348044
  2.8157654  117.99545  5.8202863
  2.8175223  117.51305  5.8106465
  2.8192766  119.39693  5.8609648
  2.8210301  133.99564  6.2138987
  2.8227830  135.94150  6.2638535
  2.8245349  129.14240  6.1082253
  2.8262839  128.49406  6.0912023
  2.8280327  128.13541  6.0810375
  2.8297820  140.18028  6.3587070
  2.8315358  145.23970  6.4759183
  2.8332906  142.53940  6.4196515
  2.8350451  134.91031  6.2495990
  2.8368015  154.10477  6.6812892
  2.8385596  143.34755  6.4429936
  2.8403182  133.17558  6.2093439
  2.8420775  136.92500  6.2958188
  2.8438411  128.36353  6.0987353
  2.8456047  131.38712  6.1731052
  2.8473685  126.86831  6.0689340
  2.8491259  118.36436  5.8671031
  2.8508816  127.33144  6.0910883
  2.8526373  117.35692  5.8532314
  2.8543913  128.62555  6.1319823
  2.8561432  113.79282  5.7695251
  2.8578951  122.94355  5.9990311
  2.8596473  112.18533  5.7324023
  2.8614035  113.36613  5.7627244
  2.8631597  100.19228  5.4177780
  2.8649158  98.735771  5.3784800
  2.8666718  102.56720  5.4824471
  2.8684273  110.51194  5.6916547
  2.8701830  99.695328  5.4067383
  2.8719401  94.760834  5.2726336
  2.8737016  106.61810  5.5959992
  2.8754632  95.566589  5.3010802
  2.8772244  98.620277  5.3882012
  2.8789849  80.990425  4.8839064
  2.8807454  82.200653  4.9212241
  2.8825059  87.833061  5.0880322
  2.8842640  80.597725  4.8779960
  2.8860197  82.266899  4.9340410
  2.8877761  77.121437  4.7828684
  2.8895323  72.490234  4.6407118
  2.8912883  69.777008  4.5517502
  2.8930442  72.408630  4.6354876
  2.8947999  63.173874  4.3286023
  2.8965554  67.662285  4.4810443
  2.8983114  63.257397  4.3343253
  2.9000671  64.195679  4.3679628
  2.9018257  66.022293  4.4311261
  2.9035869  61.597012  4.2812881
  2.9053483  67.587624  4.4859481
  2.9071093  61.073521  4.2655597
  2.9088721  64.094620  4.3712168
  2.9106352  62.346756  4.3126149
  2.9123979  69.551781  4.5564890
  2.9141550  62.203575  4.3130417
  2.9159107  83.304901  4.9962959
  2.9176669  75.966286  4.7759595
  2.9194226  71.536446  4.6370192
  2.9211793  71.548004  4.6377683
  2.9229352  83.887169  5.0221934
  2.9246919  79.693558  4.8955359
  2.9264507  74.609612  4.7377148
  2.9282093  91.792946  5.2560487
  2.9299679  85.204514  5.0648823
  2.9317307  84.646751  5.0496016
  2.9334941  74.747299  4.7464581
  2.9352577  76.296524  4.7967215
  2.9370198  80.317184  4.9245629
  2.9387817  86.513168  5.1156311
  2.9405429  86.064606  5.1069946
  2.9423027  85.898628  5.1061435
  2.9440558  86.568535  5.1278772
  2.9458091  78.424324  4.8824849
  2.9475622  78.481453  4.8860416
  2.9493170  77.582428  4.8583999
  2.9510717  83.064247  5.0272765
  2.9528265  77.288368  4.8495035
  2.9545832  81.872574  4.9918590
  2.9563408  80.995628  4.9661608
  2.9580984  79.508682  4.9214640
  2.9598567  76.191010  4.8187423
  2.9616210  70.120201  4.6235890
  2.9633853  77.769203  4.8700962
  2.9651496  75.660957  4.8044753
  2.9669118  79.102562  4.9151940
  2.9686732  75.224579  4.7961440
  2.9704349  78.685013  4.9082365
  2.9721947  86.453079  5.1482062
  2.9739523  75.828690  4.8248639
  2.9757104  91.305901  5.2981057
  2.9774678  86.804733  5.1691465
  2.9792223  87.175560  5.1820488
  2.9809771  86.005638  5.1490226
  2.9827316  87.610443  5.1987233
  2.9844859  88.915443  5.2393923
  2.9862404  93.622795  5.3784890
  2.9879954  92.462349  5.3472357
  2.9897532  89.394333  5.2584901
  2.9915147  102.04175  5.6172132
  2.9932764  93.970253  5.3895640
  2.9950373  93.652740  5.3802094
  2.9967964  103.67030  5.6641135
  2.9985557  99.769455  5.5599341
  3.0003147  99.891869  5.5667562
  3.0020735  105.61269  5.7276521
  3.0038328  108.55003  5.8105493
  3.0055914  111.49497  5.8926921
  3.0073481  122.52103  6.1803689
  3.0091026  125.42865  6.2558126
  3.0108571  122.09564  6.1746416
  3.0126119  128.43723  6.3353410
  3.0143666  124.43926  6.2375770
  3.0161211  136.07843  6.5244613
  3.0178759  137.71425  6.5652690
  3.0196338  147.24205  6.7917690
  3.0213923  131.39656  6.4191422
  3.0231504  137.49297  6.5696678
  3.0249081  144.44037  6.7345672
  3.0266652  145.33061  6.7540865
  3.0284219  155.00629  6.9740624
  3.0301793  151.26328  6.8898535
  3.0319390  161.89636  7.1340060
  3.0336983  161.85904  7.1392961
  3.0354581  170.96921  7.3437562
  3.0372133  165.41243  7.2260752
  3.0389681  181.00851  7.5617390
  3.0407233  183.03365  7.6066179
  3.0424783  176.17055  7.4645853
  3.0442328  172.76286  7.3935680
  3.0459876  190.56108  7.7666898
  3.0477424  181.79967  7.5881720
  3.0494976  198.44812  7.9315825
  3.0512526  193.55051  7.8366308
  3.0530076  208.01657  8.1278801
  3.0547626  218.65138  8.3360062
  3.0565176  206.71941  8.1082020
  3.0582724  223.09529  8.4261923
  3.0600288  230.29031  8.5645885
  3.0617859  238.15361  8.7135849
  3.0635433  216.35451  8.3090448
  3.0653002  242.70705  8.8039103
  3.0670562  244.10880  8.8315458
  3.0688128  244.23344  8.8360558
  3.0705688  258.47131  9.0929890
  3.0723228  263.19427  9.1855431
  3.0740769  259.58411  9.1321363
  3.0758312  283.32434  9.5508614
  3.0775836  268.51654  9.2979679
  3.0793355  295.36752  9.7485809
  3.0810874  302.57019  9.8635063
  3.0828390  275.56369  9.4130764
  3.0845904  302.84418  9.8724384
  3.0863423  309.87994  9.9909296
  3.0880947  322.40616  10.195377
  3.0898504  311.36978  10.023348
  3.0916059  305.48251  9.9320927
  3.0933619  335.78186  10.417163
  3.0951185  321.49957  10.197348
  3.0968757  338.27069  10.464204
  3.0986331  332.71545  10.382161
  3.1003861  328.87225  10.327810
  3.1021359  346.20953  10.603772
  3.1038861  323.59210  10.258559
  3.1056361  326.58560  10.312087
  3.1073875  317.36429  10.169008
  3.1091390  329.32431  10.362466
  3.1108904  296.59930  9.8375778
  3.1126404  305.72626  9.9876413
  3.1143901  298.19470  9.8634043
  3.1161397  293.27490  9.7812653
  3.1178899  251.75757  9.0668278
  3.1196406  264.60492  9.3030138
  3.1213913  239.16307  8.8518229
  3.1231420  227.68146  8.6426706
  3.1248937  244.22928  8.9538794
  3.1266451  206.27251  8.2311697
  3.1283967  217.89560  8.4623632
  3.1301484  198.77425  8.0813217
  3.1319003  189.84685  7.8965878
  3.1336522  161.22369  7.2759237
  3.1354032  179.16710  7.6746755
  3.1371536  159.70729  7.2519345
  3.1389041  152.71646  7.0973363
  3.1406538  154.89197  7.1522470
  3.1424024  154.34956  7.1424465
  3.1441512  140.57573  6.8189244
  3.1458995  149.62312  7.0376797
  3.1476471  135.50865  6.7004719
  3.1493943  126.01176  6.4642673
  3.1511416  118.15760  6.2623401
  3.1528895  140.47525  6.8301401
  3.1546378  123.59917  6.4083185
  3.1563861  118.34129  6.2720752
  3.1581352  109.78547  6.0434909
  3.1598849  114.90181  6.1861053
  3.1616352  109.69355  6.0476012
  3.1633844  114.46999  6.1807985
  3.1651335  119.20184  6.3088307
  3.1668820  116.58910  6.2408714
  3.1686308  120.65849  6.3504472
  3.1703753  122.12466  6.3922968
  3.1721208  119.91100  6.3374929
  3.1738658  122.38688  6.4060221
  3.1756110  121.81572  6.3936672
  3.1773565  116.86200  6.2644606
  3.1791019  130.38374  6.6192317
  3.1808476  129.51566  6.6007285
  3.1825929  132.45044  6.6812410
  3.1843383  131.68178  6.6679659
  3.1860836  127.85754  6.5762820
  3.1878240  128.48494  6.5911388
  3.1895642  127.08417  6.5538659
  3.1913052  133.45560  6.7148800
  3.1930504  134.87451  6.7521715
  3.1947980  133.29037  6.7150722
  3.1965454  140.50656  6.8971963
  3.1982923  144.36623  6.9945664
  3.2000389  137.05812  6.8188963
  3.2017853  145.35664  7.0260782
  3.2035303  153.30688  7.2189393
  3.2052712  129.88985  6.6457429
  3.2070127  140.47179  6.9121647
  3.2087536  141.53378  6.9392648
  3.2104988  154.87538  7.2606697
  3.2122443  153.58919  7.2322326
  3.2139895  144.12454  7.0075746
  3.2157340  154.83348  7.2666950
  3.2174773  161.51659  7.4265409
  3.2192204  150.77940  7.1799717
  3.2209642  156.75055  7.3244720
  3.2227087  160.92101  7.4227324
  3.2244532  166.12245  7.5432320
  3.2261977  167.20998  7.5692401
  3.2279484  162.34875  7.4569254
  3.2296991  154.06801  7.2628355
  3.2314498  165.64398  7.5292721
  3.2331948  166.53946  7.5543838
  3.2349386  177.45430  7.8044314
  3.2366819  183.24777  7.9373417
  3.2384260  170.71503  7.6653309
  3.2401700  180.11258  7.8757734
  3.2419143  183.31868  7.9478726
  3.2436585  172.77238  7.7189012
  3.2454038  196.87177  8.2460508
  3.2471485  212.39746  8.5716648
  3.2488937  191.59276  8.1473522
  3.2506354  201.53972  8.3540897
  3.2523766  205.20813  8.4268875
  3.2541180  205.75970  8.4353256
  3.2558661  203.74940  8.3953476
  3.2576170  218.47197  8.6972322
  3.2593682  217.97301  8.6911526
  3.2611187  231.02841  8.9521694
  3.2628679  222.96602  8.7997665
  3.2646174  220.44778  8.7551003
  3.2663658  252.37364  9.3729210
  3.2681096  249.45615  9.3226137
  3.2698529  267.80450  9.6635628
  3.2715964  262.80127  9.5770111
  3.2733419  259.82159  9.5255213
  3.2750878  268.36075  9.6836338
  3.2768333  266.07147  9.6450834
  3.2785788  299.11185  10.229409
  3.2803235  292.98520  10.127050
  3.2820687  284.39996  9.9804821
  3.2838142  318.91003  10.571765
  3.2855604  324.00500  10.658982
  3.2873065  328.40433  10.734231
  3.2890534  346.14371  11.023460
  3.2908010  330.50162  10.774045
  3.2925489  324.68393  10.681317
  3.2942967  336.79037  10.881204
  3.2960429  357.15091  11.210340
  3.2977889  369.82443  11.413029
  3.2995343  382.87506  11.618288
  3.3012795  377.90698  11.547559
  3.3030248  396.91055  11.838849
  3.3047700  400.39404  11.895225
  3.3065171  409.87347  12.039491
  3.3082685  401.62329  11.921227
  3.3100197  418.50183  12.172748
  3.3117704  451.31537  12.644319
  3.3135178  419.42719  12.189355
  3.3152652  429.34100  12.332499
  3.3170125  451.29944  12.643872
  3.3187613  450.93463  12.643579
  3.3205101  424.71158  12.275722
  3.3222589  444.25372  12.560370
  3.3240068  447.23541  12.609443
  3.3257537  427.86630  12.341157
  3.3275011  442.30713  12.555616
  3.3292472  419.16730  12.228368
  3.3309922  426.05908  12.330131
  3.3327372  422.60406  12.281681
  3.3344822  430.91650  12.403364
  3.3362343  394.09698  11.860925
  3.3379867  382.62885  11.686387
  3.3397388  405.78223  12.034077
  3.3414896  401.95731  11.984052
  3.3432398  387.48480  11.774446
  3.3449898  382.64548  11.708762
  3.3467402  365.40509  11.446889
  3.3484902  349.83035  11.203538
  3.3502402  341.05881  11.065409
  3.3519900  338.88147  11.035499
  3.3537385  346.96359  11.174945
  3.3554871  315.77829  10.669160
  3.3572354  309.28659  10.565029
  3.3589807  288.12164  10.193011
  3.3607259  285.00723  10.133691
  3.3624716  257.41708  9.6268530
  3.3642230  257.18881  9.6250486
  3.3659754  242.21912  9.3438044
  3.3677273  245.62457  9.4123545
  3.3694808  247.70555  9.4574413
  3.3712344  257.08466  9.6414280
  3.3729885  229.55731  9.1168852
  3.3747413  222.93294  8.9895239
  3.3764930  199.54457  8.5086088
  3.3782444  218.96405  8.9169054
  3.3799958  201.32925  8.5536604
  3.3817453  211.62219  8.7720213
  3.3834946  217.19716  8.8892879
  3.3852444  197.29585  8.4745827
  3.3869915  213.02385  8.8074522
  3.3887386  195.97859  8.4492369
  3.3904858  190.58229  8.3335819
  3.3922358  205.56332  8.6557779
  3.3939860  191.37831  8.3524342
  3.3957367  190.67877  8.3378010
  3.3974895  201.72313  8.5781393
  3.3992436  194.59306  8.4287615
  3.4009979  195.12431  8.4438543
  3.4027522  187.97734  8.2913246
  3.4045057  209.37044  8.7542171
  3.4062598  192.33394  8.3941412
  3.4080138  190.65466  8.3607607
  3.4097676  192.18945  8.3958349
  3.4115210  206.20026  8.6980324
  3.4132748  201.13542  8.5920792
  3.4150283  196.93130  8.5061369
  3.4167819  186.83972  8.2896719
  3.4185352  193.29501  8.4360857
  3.4202876  201.04764  8.6040449
  3.4220388  192.52943  8.4187241
  3.4237905  195.79300  8.4887028
  3.4255435  212.79378  8.8510542
  3.4272988  194.93900  8.4756088
  3.4290538  213.56685  8.8755350
  3.4308085  225.95975  9.1338816
  3.4325619  209.56570  8.8009329
  3.4343157  214.59677  8.9106464
  3.4360693  229.98528  9.2289915
  3.4378252  219.11993  9.0057745
  3.4395807  213.44647  8.8858929
  3.4413364  228.85370  9.1984072
  3.4430962  227.39842  9.1770544
  3.4448566  221.16751  9.0593739
  3.4466169  232.01520  9.2880411
  3.4483721  225.82306  9.1658754
  3.4501255  234.01773  9.3308973
  3.4518788  243.70164  9.5222111
  3.4536333  235.87361  9.3677378
  3.4553890  269.31232  10.008913
  3.4571447  252.90346  9.6984053
  3.4589012  262.28024  9.8780451
  3.4606595  266.75912  9.9692564
  3.4624181  270.13135  10.039352
  3.4641762  277.97754  10.191151
  3.4659343  274.01709  10.121053
  3.4676929  283.89169  10.304616
  3.4694514  295.27420  10.512039
  3.4712110  301.74551  10.628531
  3.4729702  305.96964  10.704523
  3.4747298  311.69553  10.806098
  3.4764872  309.67395  10.774935
  3.4782443  317.06357  10.907318
  3.4800017  321.83682  10.993737
  3.4817595  334.35287  11.207534
  3.4835179  348.26266  11.438446
  3.4852757  329.86371  11.132361
  3.4870341  363.53333  11.690445
  3.4887931  388.23410  12.091059
  3.4905519  389.63092  12.122808
  3.4923105  386.05023  12.075869
  3.4940653  433.54095  12.801133
  3.4958203  413.39084  12.504052
  3.4975753  423.11353  12.654239
  3.4993348  444.00983  12.958613
  3.5010951  446.72534  12.993670
  3.5028553  460.01334  13.180952
  3.5046175  487.21399  13.570419
  3.5063801  491.13455  13.632112
  3.5081429  509.45670  13.891403
  3.5099049  532.43408  14.204556
  3.5116670  542.03284  14.333676
  3.5134292  548.22412  14.416970
  3.5151920  556.34473  14.530381
  3.5169549  593.75342  15.023309
  3.5187180  576.83728  14.819959
  3.5204782  629.60852  15.490504
  3.5222342  626.70056  15.451732
  3.5239899  634.45959  15.544131
  3.5257473  645.33203  15.674668
  3.5275121  633.03772  15.527949
  3.5292771  672.17566  16.004183
  3.5310419  674.36957  16.033710
  3.5328076  723.47046  16.619432
  3.5345738  693.57526  16.284521
  3.5363395  705.32800  16.434114
  3.5381021  732.17950  16.740177
  3.5398648  714.83044  16.534779
  3.5416269  732.66992  16.733904
  3.5433927  719.65033  16.588675
  3.5451603  713.43951  16.524723
  3.5469279  743.99530  16.882843
  3.5486917  749.67987  16.959520
  3.5504534  726.85211  16.714766
  3.5522146  725.88824  16.719147
  3.5539756  732.08954  16.799707
  3.5557358  725.08813  16.718466
  3.5574965  709.99451  16.542845
  3.5592580  704.79547  16.484470
  3.5610237  712.15497  16.584183
  3.5627899  684.33466  16.270639
  3.5645552  711.76831  16.606728
  3.5663161  665.38165  16.062464
  3.5680771  636.38782  15.714477
  3.5698380  644.63068  15.821838
  3.5715997  638.94098  15.743958
  3.5733619  638.67511  15.732633
  3.5751235  604.34265  15.296138
  3.5768883  586.63879  15.076753
  3.5786536  616.46906  15.464978
  3.5804191  610.63666  15.401273
  3.5821829  597.23511  15.238764
  3.5839458  585.66931  15.096777
  3.5857086  554.22101  14.691987
  3.5874736  522.64130  14.272147
  3.5892406  506.15036  14.048896
  3.5910079  482.61960  13.722084
  3.5927737  480.28586  13.694534
  3.5945370  438.71637  13.097470
  3.5963004  433.05481  13.021628
  3.5980632  426.00647  12.921158
  3.5998247  388.61740  12.338614
  3.6015866  366.14001  11.974059
  3.6033487  372.31345  12.073091
  3.6051147  351.82022  11.740393
  3.6068809  342.66718  11.590891
  3.6086466  315.84485  11.132069
  3.6104112  319.93741  11.206919
  3.6121757  315.39246  11.129958
  3.6139407  291.58725  10.704505
  3.6157057  299.05493  10.840734
  3.6174710  266.01785  10.223897
  3.6192360  243.20320  9.7751617
  3.6210027  257.22250  10.058196
  3.6227698  248.17499  9.8875275
  3.6245370  224.50012  9.4115353
  3.6263044  249.66151  9.9310017
  3.6280713  222.22058  9.3738089
  3.6298385  227.97340  9.4988918
  3.6316042  207.52565  9.0657997
  3.6333690  233.73924  9.6228924
  3.6351342  223.51062  9.4114952
  3.6368988  237.89755  9.7121277
  3.6386631  235.31644  9.6632881
  3.6404276  208.90201  9.1085606
  3.6421921  210.65121  9.1501036
  3.6439595  199.62811  8.9098387
  3.6457267  226.39172  9.4908352
  3.6474938  221.73778  9.3953314
  3.6492608  210.32581  9.1532564
  3.6510274  215.24197  9.2625399
  3.6527939  220.16176  9.3707066
  3.6545591  207.48541  9.0988379
  3.6563244  233.91806  9.6630669
  3.6580896  217.24373  9.3142481
  3.6598547  217.14262  9.3184814
  3.6616201  225.46873  9.5023746
  3.6633852  216.57326  9.3198290
  3.6651483  217.09486  9.3336372
  3.6669111  218.36534  9.3623362
  3.6686740  226.06133  9.5273495
  3.6704376  226.94984  9.5478516
  3.6722021  222.22200  9.4498405
  3.6739669  227.54086  9.5642557
  3.6757312  223.62596  9.4838533
  3.6774969  238.22949  9.7911720
  3.6792619  242.38017  9.8786783
  3.6810293  227.94031  9.5810461
  3.6827989  226.30504  9.5461016
  3.6845684  223.05994  9.4769087
  3.6863375  216.32477  9.3351030
  3.6881068  235.62416  9.7501974
  3.6898761  221.84767  9.4682283
  3.6916435  205.13699  9.1104536
  3.6934061  207.24557  9.1590471
  3.6951685  205.71152  9.1269722
  3.6969309  187.57530  8.7173643
  3.6986961  187.32372  8.7150879
  3.7004614  178.95581  8.5217056
  3.7022266  185.19479  8.6725407
  3.7039924  168.31380  8.2721720
  3.7057583  164.42120  8.1802607
  3.7075241  139.33492  7.5343695
  3.7092915  149.46252  7.8018804
  3.7110589  141.23975  7.5821466
  3.7128265  139.53523  7.5341949
  3.7145972  124.53802  7.1193643
  3.7163677  127.05978  7.1933432
  3.7181382  121.84229  7.0463214
  3.7199044  118.35831  6.9502397
  3.7216690  119.39668  6.9871621
  3.7234335  104.87180  6.5544872
  3.7251987  116.37640  6.9056687
  3.7269645  102.78838  6.4879451
  3.7287300  106.81588  6.6117373
  3.7304966  105.21818  6.5633297
  3.7322648  115.60848  6.8843851
  3.7340331  107.14312  6.6319928
  3.7358012  111.76772  6.7769136
  3.7375693  119.21385  7.0004787
  3.7393374  101.99101  6.4764357
  3.7411067  109.01592  6.6967945
  3.7428782  124.66063  7.1615663
  3.7446496  121.79282  7.0790639
  3.7464192  119.40676  7.0118065
  3.7481837  123.78026  7.1464567
  3.7499485  123.62366  7.1493406
  3.7517126  132.91939  7.4188371
  3.7534742  128.24155  7.2836308
  3.7552366  130.59892  7.3467631
  3.7569990  132.15163  7.3875003
  3.7587683  114.59548  6.8853750
  3.7605376  116.04102  6.9347768
  3.7623069  130.36153  7.3567266
  3.7640717  132.08220  7.4068017
  3.7658370  133.38332  7.4447312
  3.7676017  143.83093  7.7323990
  3.7693696  137.61179  7.5638280
  3.7711384  140.53302  7.6439891
  3.7729070  125.15914  7.2140532
  3.7746749  157.33119  8.0922432
  3.7764435  160.01372  8.1656666
  3.7782116  148.51807  7.8714414
  3.7799776  148.66220  7.8790803
  3.7817428  161.75565  8.2225018
  3.7835078  156.46539  8.0906324
  3.7852755  151.50999  7.9631891
  3.7870443  167.02811  8.3618641
  3.7888131  175.85326  8.5807600
  3.7905803  178.48544  8.6476479
  3.7923460  178.66766  8.6564760
  3.7941117  175.07162  8.5732946
  3.7958777  181.47284  8.7311153
  3.7976446  178.96721  8.6709890
  3.7994120  180.66284  8.7123356
  3.8011801  171.07553  8.4798985
  3.8029501  191.85112  8.9842520
  3.8047199  173.08029  8.5374212
  3.8064885  187.54968  8.8907070
  3.8082552  179.22995  8.6939297
  3.8100221  183.98128  8.8111057
  3.8117888  186.62639  8.8769121
  3.8135555  173.64073  8.5650654
  3.8153224  179.66272  8.7149220
  3.8170891  181.46240  8.7610874
  3.8188555  188.34428  8.9283743
  3.8206222  190.99954  8.9938173
  3.8223886  203.82228  9.2934971
  3.8241549  199.66328  9.1999989
  3.8259211  190.83623  8.9961061
  3.8276873  196.42671  9.1287241
  3.8294570  196.07901  9.1224203
  3.8312271  205.92110  9.3503952
  3.8329971  197.08228  9.1493149
  3.8347688  187.81343  8.9333744
  3.8365407  195.96591  9.1270428
  3.8383121  209.65564  9.4424152
  3.8400812  191.70636  9.0371246
  3.8418508  189.91060  9.0026255
  3.8436201  195.37601  9.1393042
  3.8453851  196.71550  9.1719074
  3.8471498  214.28697  9.5736361
  3.8489146  204.48601  9.3529720
  3.8506804  197.33498  9.1908064
  3.8524461  203.89798  9.3456488
  3.8542118  188.18013  8.9813480
  3.8559771  198.59268  9.2293854
  3.8577418  200.85925  9.2847223
  3.8595066  210.85867  9.5159187
  3.8612754  195.05731  9.1544933
  3.8630452  206.73740  9.4264145
  3.8648155  218.42674  9.6911192
  3.8665853  221.14204  9.7541571
  3.8683548  228.18869  9.9118834
  3.8701246  225.33580  9.8532467
  3.8718922  222.02925  9.7837772
  3.8736582  206.63036  9.4411821
  3.8754246  207.18375  9.4566011
  3.8771925  207.26883  9.4604855
  3.8789613  216.82961  9.6775789
  3.8807304  204.36124  9.3965397
  3.8824980  195.51114  9.1960707
  3.8842638  204.13092  9.4058561
  3.8860297  205.83635  9.4543772
  3.8877964  228.59103  9.9670429
  3.8895640  228.84277  9.9685478
  3.8913321  218.68130  9.7408390
  3.8931015  189.60373  9.0699759
  3.8948739  221.94037  9.8180637
  3.8966463  203.47522  9.4056463
  3.8984170  207.56557  9.5037746
  3.9001844  220.31682  9.7942772
  3.9019523  224.37003  9.8869238
  3.9037211  224.88701  9.9000988
  3.9054918  215.72220  9.6959925
  3.9072621  215.71010  9.6954479
  3.9090326  223.22995  9.8654633
  3.9108021  232.79813  10.083606
  3.9125717  222.27290  9.8617649
  3.9143403  203.72348  9.4474497
  3.9161060  230.85181  10.056063
  3.9178712  229.94135  10.035463
  3.9196382  213.32216  9.6665497
  3.9214096  235.07994  10.153907
  3.9231815  235.81378  10.176116
  3.9249520  250.14337  10.486556
  3.9267187  230.92041  10.078193
  3.9284854  226.64017  9.9869585
  3.9302521  220.98759  9.8631592
  3.9320192  224.37451  9.9354706
  3.9337864  206.21323  9.5220423
  3.9355540  223.29071  9.9069233
  3.9373252  227.11086  9.9979982
  3.9390960  227.41515  10.011394
  3.9408669  199.46404  9.3819990
  3.9426358  215.96394  9.7662268
  3.9444051  213.48438  9.7138748
  3.9461744  203.47543  9.4870911
  3.9479465  182.31732  8.9821301
  3.9497185  212.05238  9.6889210
  3.9514902  220.12025  9.8737431
  3.9532576  200.88153  9.4382381
  3.9550252  191.36285  9.2176247
  3.9567928  200.91982  9.4504738
  3.9585600  191.48836  9.2236700
  3.9603271  190.50406  9.1976223
  3.9620943  193.52797  9.2683086
  3.9638672  184.85982  9.0634985
  3.9656398  181.06557  8.9750862
  3.9674125  203.08780  9.5104580
  3.9691832  169.28993  8.6843910
  3.9709537  178.25279  8.9126396
  3.9727244  174.29636  8.8145456
  3.9744956  168.22568  8.6640635
  3.9762671  152.31589  8.2483673
  3.9780385  160.96570  8.4836369
  3.9798059  171.86996  8.7707024
  3.9815729  151.43410  8.2369299
  3.9833398  158.31427  8.4262180
  3.9851065  159.26245  8.4527731
  3.9868731  154.82184  8.3353271
  3.9886398  137.36087  7.8523979
  3.9904096  159.33284  8.4565096
  3.9921794  143.14922  8.0148172
  3.9939489  130.56090  7.6536155
  3.9957199  127.95870  7.5796194
  3.9974911  140.64165  7.9495363
  3.9992623  138.50493  7.8920507
  4.0010338  137.75435  7.8748918
  4.0028052  111.76897  7.0973368
  4.0045772  117.30835  7.2751551
  4.0063477  107.41499  6.9626794
  4.0081182  102.92035  6.8160663
  4.0098886  87.136993  6.2722578
  4.0116601  107.07907  6.9555330
  4.0134311  100.83440  6.7523708
  4.0152025  100.01012  6.7274079
  4.0169721  94.664398  6.5480733
  4.0187416  83.870003  6.1662455
  4.0205112  84.853806  6.2051244
  4.0222807  88.555527  6.3415928
  4.0240507  92.716660  6.4914651
  4.0258207  90.971298  6.4326425
  4.0275888  77.844849  5.9529443
  4.0293579  84.288132  6.1969872
  4.0311265  90.742172  6.4325423
  4.0328965  85.684929  6.2492156
  4.0346665  77.888077  5.9562502
  4.0364370  88.309227  6.3402333
  4.0382099  104.31756  6.8934984
  4.0399823  104.41135  6.8996964
  4.0417557  101.76719  6.8148351
  4.0435257  105.49635  6.9411497
  4.0452948  106.48664  6.9761720
  4.0470638  108.39312  7.0408893
  4.0488329  116.25865  7.2947164
  4.0506020  126.88588  7.6238337
  4.0523710  129.27809  7.6983986
  4.0541401  131.27676  7.7625580
  4.0559096  125.47651  7.5941834
  4.0576787  152.33727  8.3732138
  4.0594478  156.85417  8.4941292
  4.0612164  181.07919  9.1226377
  4.0629849  171.28265  8.8686800
  4.0647593  180.94698  9.1159773
  4.0665340  198.91478  9.5592346
  4.0683093  191.61942  9.3836432
  4.0700812  204.85236  9.7109318
  4.0718517  224.63783  10.179312
  4.0736232  230.17464  10.314373
  4.0753942  268.18387  11.135730
  4.0771646  257.61105  10.915330
  4.0789356  284.50485  11.472343
  4.0807071  287.61765  11.541698
  4.0824785  276.37979  11.320956
  4.0842500  302.25775  11.846416
  4.0860181  312.63110  12.042100
  4.0877862  321.57449  12.206801
  4.0895548  337.44354  12.497910
  4.0913296  315.95801  12.098658
  4.0931048  373.27588  13.156246
  4.0948796  355.97437  12.853490
  4.0966496  366.83035  13.059506
  4.0984201  365.15094  13.041105
  4.1001902  387.26062  13.442013
  4.1019602  390.20743  13.487542
  4.1037302  417.37177  13.943412
  4.1055002  387.71503  13.433531
  4.1072726  371.57581  13.161889
  4.1090450  388.53891  13.470163
  4.1108174  399.93570  13.677512
  4.1125860  414.66876  13.931070
  4.1143551  407.40912  13.812462
  4.1161242  379.52643  13.335198
  4.1178951  363.37067  13.052659
  4.1196656  360.79944  13.010760
  4.1214371  334.27655  12.527543
  4.1232076  374.32758  13.259362
  4.1249781  342.52231  12.686011
  4.1267490  320.54153  12.274170
  4.1285200  294.52948  11.762375
  4.1302915  313.14780  12.125132
  4.1320629  310.25488  12.067516
  4.1338382  260.99796  11.078746
  4.1356134  273.74609  11.356901
  4.1373878  243.06879  10.710890
  4.1391582  230.05974  10.425002
  4.1409292  250.59796  10.885280
  4.1427007  226.63222  10.355090
  4.1444721  213.34781  10.046156
  4.1462436  183.51408  9.3165159
  4.1480150  196.30447  9.6362085
  4.1497860  181.80206  9.2775478
  4.1515565  170.11710  8.9784374
  4.1533275  148.90248  8.4030533
  4.1550975  148.47804  8.3924761
  4.1568680  152.79872  8.5151396
  4.1586390  136.71715  8.0561352
  4.1604114  135.35945  8.0180016
  4.1621838  124.49693  7.6914468
  4.1639562  120.29081  7.5626183
  4.1657271  137.98985  8.1030436
  4.1674981  116.66828  7.4536629
  4.1692691  119.15124  7.5357857
  4.1710405  128.33453  7.8246946
  4.1728110  123.20945  7.6706853
  4.1745811  117.10784  7.4817452
  4.1763511  115.28508  7.4261651
  4.1781201  118.24682  7.5238643
  4.1798902  111.12854  7.2959466
  4.1816602  108.76260  7.2188268
  4.1834302  133.71321  8.0052004
  4.1852016  121.73670  7.6384397
  4.1869750  106.37581  7.1394768
  4.1887484  132.22141  7.9587932
  4.1905227  121.24048  7.6223235
  4.1922979  105.50917  7.1134267
  4.1940732  127.19029  7.8132372
  4.1958480  122.51955  7.6724720
  4.1976223  129.88637  7.9046326
  4.1993961  119.93173  7.6003647
  4.2011695  122.89359  7.6958947
  4.2029419  109.91103  7.2790360
  4.2047143  133.08627  8.0108519
  4.2064867  113.36972  7.3954248
  4.2082591  126.46484  7.8130245
  4.2100315  125.08577  7.7724519
  4.2118034  127.08746  7.8365483
  4.2135744  124.25637  7.7508998
  4.2153459  123.84102  7.7400637
  4.2171187  127.25726  7.8470187
  4.2188916  149.05499  8.4931965
  4.2206650  118.10142  7.5606689
  4.2224379  112.47784  7.3845320
  4.2242103  128.23587  7.8923726
  4.2259827  124.10048  7.7714734
  4.2277551  118.71233  7.5997782
  4.2295275  139.08279  8.2241383
  4.2312999  123.95263  7.7622147
  4.2330751  123.13176  7.7412271
  4.2348499  134.49089  8.0953999
  4.2366247  122.44131  7.7284274
  4.2383966  139.45909  8.2463894
  4.2401690  126.24322  7.8443718
  4.2419415  110.62398  7.3423710
  4.2437158  127.79319  7.8950901
  4.2454901  115.21306  7.4997315
  4.2472639  120.71244  7.6807480
  4.2490344  119.45745  7.6474800
  4.2508054  126.04502  7.8624725
  4.2525759  120.30208  7.6858177
  4.2543464  129.08130  7.9594941
  4.2561169  126.07881  7.8645802
  4.2578888  111.35939  7.3911819
  4.2596626  104.58967  7.1663656
  4.2614369  137.12671  8.2095613
  4.2632098  116.06509  7.5551939
  4.2649798  111.15781  7.3941083
  4.2667499  124.44989  7.8240972
  4.2685218  125.47588  7.8576045
  4.2702966  128.51248  7.9547229
  4.2720709  124.16245  7.8214989
  4.2738447  107.95921  7.2952075
  4.2756186  126.24663  7.8904142
  4.2773919  121.85442  7.7534108
  4.2791662  134.71948  8.1535940
  4.2809410  118.45934  7.6465178
  4.2827158  116.50935  7.5841131
  4.2844911  118.64026  7.6581955
  4.2862663  125.80073  7.8934393
  4.2880416  110.16201  7.3935900
  4.2898130  114.24259  7.5329337
  4.2915831  120.28231  7.7320395
  4.2933531  122.84845  7.8166590
  4.2951274  119.31532  7.7017708
  4.2969017  108.80602  7.3524294
  4.2986765  114.19879  7.5300455
  4.3004508  135.65318  8.2101040
  4.3022251  117.37093  7.6401973
  4.3039989  106.52305  7.2817655
  4.3057733  101.57724  7.1118298
  4.3075476  110.57472  7.4212894
  4.3093214  115.60492  7.5898352
  4.3110948  103.34209  7.1827722
  4.3128681  113.04066  7.5193534
  4.3146405  112.72363  7.5149088
  4.3164105  94.190613  6.8695564
  4.3181806  101.70999  7.1386423
  4.3199515  93.695999  6.8517299
  4.3217254  108.22363  7.3636856
  4.3234987  94.192345  6.8696828
  4.3252726  97.719215  6.9978185
  4.3270473  94.784706  6.8945727
  4.3288226  104.89483  7.2557268
  4.3305974  85.356567  6.5465498
  4.3323727  95.882401  6.9378071
  4.3341475  90.343346  6.7337956
  4.3359222  88.397636  6.6632228
  4.3376966  82.518539  6.4436154
  4.3394709  80.146645  6.3560424
  4.3412442  77.721115  6.2629461
  4.3430171  84.851822  6.5464597
  4.3447895  89.971680  6.7436624
  4.3465629  76.353729  6.2135787
  4.3483362  89.012726  6.7095866
  4.3501096  88.018745  6.6726832
  4.3518844  86.522713  6.6165571
  4.3536587  88.569962  6.6952600
  4.3554335  109.85579  7.4574966
  4.3572068  100.30745  7.1285396
  4.3589807  104.43958  7.2766500
  4.3607540  108.07060  7.4048753
  4.3625293  120.25958  7.8116989
  4.3643045  103.01546  7.2302680
  4.3660793  137.03230  8.3395205
  4.3678560  142.72336  8.5141611
  4.3696327  138.25708  8.3830671
  4.3714080  170.92250  9.3245869
  4.3731818  160.89925  9.0512896
  4.3749557  178.37837  9.5347242
  4.3767290  197.40663  10.034743
  4.3785014  186.30444  9.7516203
  4.3802733  187.44601  9.7846022
  4.3820457  168.68195  9.2856350
  4.3838177  177.56599  9.5322418
  4.3855906  197.73959  10.064680
  4.3873644  214.16893  10.475345
  4.3891392  185.78328  9.7510939
  4.3909144  192.22478  9.9132366
  4.3926907  200.41406  10.122438
  4.3944702  191.93599  9.9115314
  4.3962488  193.17445  9.9489908
  4.3980246  204.16119  10.233676
  4.3997989  187.44081  9.8111010
  4.4015732  181.47946  9.6591768
  4.4033480  197.06779  10.069694
  4.4051228  177.65091  9.5644035
  4.4068975  189.12383  9.8721838
  4.4086709  161.44537  9.1254330
  4.4104438  179.15092  9.6173258
  4.4122167  164.32716  9.2150087
  4.4139895  174.57547  9.4956541
  4.4157619  160.55069  9.1039944
  4.4175353  164.63010  9.2175159
  4.4193110  164.27525  9.2120981
  4.4210873  170.12486  9.3792877
  4.4228625  160.43642  9.1121769
  4.4246368  157.39592  9.0272751
  4.4264107  174.55356  9.5085382
  4.4281859  166.84421  9.2978640
  4.4299636  152.37515  8.8866997
  4.4317412  163.81958  9.2155714
  4.4335175  178.51036  9.6246338
  4.4352918  164.79501  9.2558098
  4.4370656  156.75873  9.0354233
  4.4388399  135.45015  8.4002619
  4.4406137  149.94374  8.8355188
  4.4423876  158.69618  9.0869169
  4.4441648  147.29248  8.7556286
  4.4459424  142.17368  8.6047421
  4.4477201  138.09088  8.4828548
  4.4494958  143.88493  8.6608553
  4.4512706  153.85303  8.9576693
  4.4530463  142.43776  8.6207247
  4.4548244  143.06706  8.6429977
  4.4566031  136.90439  8.4579821
  4.4583802  132.83331  8.3347034
  4.4601541  134.57976  8.3948545
  4.4619279  134.75772  8.4059563
  4.4637017  160.60098  9.1809464
  4.4654756  125.92109  8.1281710
  4.4672499  151.05705  8.9011221
  4.4690242  136.40038  8.4591923
  4.4707990  132.88844  8.3546247
  4.4725738  153.03275  8.9709387
  4.4743485  141.58095  8.6323433
  4.4761219  145.32416  8.7474861
  4.4778957  140.11571  8.5910454
  4.4796720  124.40551  8.0981092
  4.4814496  131.38686  8.3263035
  4.4832273  141.55093  8.6465988
  4.4850035  129.96982  8.2865734
  4.4867787  125.74593  8.1508980
  4.4885535  129.44739  8.2700901
  4.4903297  135.32057  8.4575357
  4.4921060  141.73808  8.6580305
  4.4938817  134.93529  8.4499750
  4.4956570  126.65218  8.1924486
  4.4974318  130.02017  8.3066835
  4.4992065  132.83432  8.4011793
  4.5009799  120.61578  8.0055494
  4.5027533  121.14946  8.0233192
  4.5045276  136.55315  8.5179510
  4.5063038  132.81081  8.3996925
  4.5080795  124.82076  8.1424084
  4.5098562  136.00784  8.5004902
  4.5116334  122.28586  8.0632906
  4.5134106  135.14713  8.4798841
  4.5151873  132.07983  8.3870773
  4.5169649  117.82877  7.9260201
  4.5187426  131.83495  8.3884563
  4.5205183  115.32602  7.8469419
  4.5222936  131.34587  8.3743067
  4.5240693  116.93209  7.9015388
  4.5258446  127.70441  8.2605114
  4.5276198  126.20999  8.2155704
  4.5293951  116.14900  7.8847079
  4.5311708  127.46986  8.2626438
  4.5329461  126.47832  8.2330370
  4.5347219  122.27127  8.0976124
  4.5364976  116.47221  7.9066491
  4.5382729  109.58875  7.6727471
  4.5400486  133.30331  8.4647684
  4.5418239  120.91399  8.0609331
  4.5435991  105.84383  7.5410604
  4.5453753  117.69171  7.9528694
  4.5471535  111.87744  7.7573047
  4.5489311  113.05145  7.8012915
  4.5507088  121.24014  8.0826769
  4.5524864  100.32393  7.3561072
  4.5542636  112.84069  7.8053536
  4.5560408  104.20889  7.5011201
  4.5578179  116.06221  7.9153771
  4.5595946  92.289864  7.0575819
  4.5613718  108.55489  7.6568723
  4.5631490  112.41895  7.7948518
  4.5649257  101.68501  7.4161415
  4.5666990  101.76034  7.4216356
  4.5684719  86.127068  6.8303208
  4.5702457  100.82450  7.3928108
  4.5720220  96.548286  7.2365999
  4.5737987  93.895004  7.1387053
  4.5755749  99.935081  7.3673120
  4.5773511  72.838814  6.2923155
  4.5791273  75.074989  6.3908076
  4.5809021  78.925705  6.5544233
  4.5826764  78.947586  6.5562406
  4.5844512  83.326485  6.7365470
  4.5862260  81.759605  6.6756439
  4.5880017  72.026711  6.2691207
  4.5897770  72.651360  6.2996716
  4.5915508  60.084328  5.7288156
  4.5933247  64.980568  5.9567590
  4.5950985  66.052696  6.0047908
  4.5968790  70.957542  6.2233887
  4.5986595  60.580303  5.7500281
  4.6004395  61.142708  5.7774429
  4.6022158  57.458324  5.6073585
  4.6039915  56.498802  5.5669928
  4.6057673  64.832870  5.9683495
  4.6075416  69.239380  6.1683340
  4.6093159  59.907173  5.7380667
  4.6110911  68.161034  6.1210418
  4.6128678  62.672153  5.8697848
  4.6146441  61.030716  5.7927794
  4.6164198  74.249710  6.3903975
  4.6181951  75.379005  6.4400630
  4.6199703  77.059654  6.5127296
  4.6217475  92.077301  7.1251550
  4.6235247  83.413902  6.7881274
  4.6253014  77.482231  6.5484443
  4.6270714  98.042892  7.3693547
  4.6288414  98.680626  7.3964257
  4.6306124  90.961395  7.1028919
  4.6323848  108.57104  7.7550745
  4.6341581  111.19894  7.8433685
  4.6359324  111.14095  7.8392782
  4.6377101  130.60640  8.5017529
  4.6394877  113.54842  7.9305658
  4.6412659  119.72118  8.1459942
  4.6430440  125.88203  8.3550835
  4.6448216  139.81679  8.8076296
  4.6465988  145.03674  8.9775496
  4.6483750  136.40712  8.7147312
  4.6501517  121.05009  8.2174149
  4.6519237  134.48233  8.6627684
  4.6536951  132.28139  8.5925989
  4.6554666  140.11583  8.8440332
  4.6572399  122.18530  8.2565184
  4.6590128  132.15558  8.5844269
  4.6607876  130.45650  8.5282078
  4.6625643  130.54463  8.5339689
  4.6643414  127.84159  8.4480104
  4.6661186  135.75090  8.7084236
  4.6678963  138.08316  8.7860203
  4.6696730  128.67052  8.4842825
  4.6714478  131.04134  8.5664396
  4.6732206  138.48730  8.8117361
  4.6749935  133.03998  8.6418753
  4.6767659  135.38438  8.7208748
  4.6785383  133.78128  8.6717520
  4.6803102  134.98851  8.7134705
  4.6820841  109.08373  7.8317561
  4.6838589  134.34367  8.6899700
  4.6856337  120.25909  8.2207422
  4.6874123  125.88577  8.4110966
  4.6891904  118.58675  8.1638489
  4.6909690  113.03495  7.9728708
  4.6927462  105.90277  7.7237535
  4.6945243  102.69621  7.6123490
  4.6963005  99.968826  7.5141168
  4.6980762  106.21601  7.7465987
  4.6998520  98.903412  7.4763956
  4.7016282  107.45901  7.7958961
  4.7034044  97.362022  7.4237847
  4.7051806  98.012032  7.4517169
  4.7069569  103.64486  7.6616483
  4.7087331  105.30700  7.7214837
  4.7105093  97.932533  7.4456725
  4.7122865  91.788773  7.2116075
  4.7140632  94.707619  7.3286953
  4.7158389  91.955330  7.2246933
  4.7176118  87.493324  7.0504131
  4.7193847  98.376862  7.4794545
  4.7211595  76.791000  6.6091170
  4.7229352  83.597107  6.8949728
  4.7247114  79.597580  6.7272239
  4.7264881  86.455971  7.0125051
  4.7282653  69.438843  6.2866974
  4.7300429  83.154732  6.8819346
  4.7318206  90.025520  7.1620460
  4.7335982  63.269520  6.0052772
  4.7353764  70.150185  6.3252292
  4.7371535  60.598225  5.8858204
  4.7389312  67.045830  6.1983895
  4.7407069  77.472733  6.6677914
  4.7424784  69.958687  6.3337617
  4.7442498  69.332214  6.3029289
  4.7460241  76.190514  6.6065555
  4.7478013  68.765190  6.2773747
  4.7495785  69.933578  6.3314886
  4.7513566  55.637280  5.6491098
  4.7531347  56.252178  5.6823282
  4.7549133  55.719143  5.6574221
  4.7566929  51.126598  5.4194083
  4.7584724  59.170033  5.8301969
  4.7602510  50.566986  5.3904591
  4.7620282  52.368282  5.4896879
  4.7638049  66.854057  6.2072434
  4.7655807  65.195190  6.1330476
  4.7673540  66.377602  6.1897435
  4.7691283  66.983635  6.2192740
  4.7709026  57.773300  5.7773299
  4.7726774  67.631767  6.2525597
  4.7744522  72.295753  6.4663286
  4.7762280  74.628212  6.5706477
  4.7780037  63.647434  6.0685449
  4.7797794  78.705009  6.7488990
  4.7815571  75.878792  6.6295605
  4.7833343  87.542343  7.1240950
  4.7851114  96.901466  7.4984603
  4.7868857  95.804558  7.4583750
  4.7886605  100.51640  7.6421199
  4.7904348  97.079025  7.5121999
  4.7922091  113.38404  8.1195993
  4.7939835  93.056335  7.3567491
  4.7957597  102.38293  7.7174034
  4.7975368  119.85535  8.3507175
  4.7993135  115.22088  8.1883907
  4.8010917  123.45712  8.4790697
ENDDATA           2091
ENDSUBENT         2103
ENDENTRY             5
