ENTRY            D6219   20160412   20160701   20160629       D104
SUBENT        D6219001   20160412   20160701   20160629       D104
BIB                 11         21
TITLE      A study of the reaction 19F(alpha,n)22Na in the
           bombarding energy range 2.6 to 5.1 MeV
AUTHOR     (M.Balakrishnan, S.Kailas, M.K.Mehta)
INSTITUTE  (3INDTRM)
REFERENCE  (J,PRM,10,329,1978)
SAMPLE     Targets of thickness about 3.5 keV for 3 MeV alphas,
           were fabricated by evaporating calcium fluoride (CaF2)
           on ten mil thick tantalum backing.
METHOD     (BCINT)
FACILITY   (VDG,3INDTRM)
DETECTOR   (BF3) 4 pi geometry neutron counter embedded in a
           large cubic block of paraffin.
ERR-ANALYS (ERR-T) The absolute error was estimated to be 15%.
           (ERR-1) Target thickness measurement 10%.
           (ERR-2) Efficiency of the 4 pi counter 7%.
           (ERR-3) Current integration 1%.
CORRECTION The major error due to 13C contribution is in the
           resonance at 3.3 MeV and 3.318 MeV. The correction
           due to the 13C contaminant up to 20% for this
           resonance.
HISTORY    (20160412C) Compiled by R.Ghosh, S.Badwar
ENDBIB              21
COMMON               4          3
ERR-T      ERR-1      ERR-2      ERR-3
PER-CENT   PER-CENT   PER-CENT   PER-CENT
        15.        10.         7.         1.
ENDCOMMON            3
ENDSUBENT           28
SUBENT        D6219002   20160412   20160701   20160629       D104
BIB                  3          4
REACTION   (9-F-19(A,N)11-NA-22,,SIG)
STATUS     (CURVE) Fig.2 of Pramana 10(1978)329
FLAG       (1.) Digitized with respect to left Y-axis of Fig.2
           (2.) Digitized with respect to right Y-axis of Fig.2
ENDBIB               4
NOCOMMON             0          0
DATA                 3        482
EN         DATA       FLAG
MEV        MB         NO-DIM
      2.555      1.481         1.
      2.560      1.679         1.
      2.565      1.973         1.
      2.570      2.359         1.
      2.575      2.819         1.
      2.580      3.370         1.
      2.585      4.143         1.
      2.590      4.382         1.
      2.595      4.253         1.
      2.600      3.977         1.
      2.605      3.627         1.
      2.610      2.946         1.
      2.615      2.357         1.
      2.620      1.971         1.
      2.625      1.713         1.
      2.630      1.621         1.
      2.635      1.437         1.
      2.640      1.676         1.
      2.645      2.099         1.
      2.650      2.650         1.
      2.655      3.037         1.
      2.660      3.349         1.
      2.665      3.055         1.
      2.670      2.098         1.
      2.675      1.601         1.
      2.680      1.307         1.
      2.685      1.362         1.
      2.690      1.546         1.
      2.695      1.582         1.
      2.700      1.913         1.
      2.705      2.207         1.
      2.710      3.550         1.
      2.715      5.996         1.
      2.720      7.559         1.
      2.725      7.835         1.
      2.730      7.743         1.
      2.735      6.566         1.
      2.740      5.940         1.
      2.745      3.880         1.
      2.750      2.831         1.
      2.755      2.298         1.
      2.760      1.911         1.
      2.765      2.500         1.
      2.770      3.934         1.
      2.775      6.601         1.
      2.780      7.852         1.
      2.785      7.042         1.
      2.790      6.030         1.
      2.795      3.529         1.
      2.800      2.793         1.
      2.805      2.553         1.
      2.810      2.590         1.
      2.815      3.307         1.
      2.820      3.840         1.
      2.825      5.882         1.
      2.830      7.685         1.
      2.835      9.101         1.
      2.840      9.763         1.
      2.845      9.284         1.
      2.850      8.181         1.
      2.860      5.826         1.
      2.865      4.189         1.
      2.870      4.593         1.
      2.875      3.820         1.
      2.880      3.158         1.
      2.885      2.753         1.
      2.890      3.525         1.
      2.895      3.084         1.
      2.900      2.385         1.
      2.905      2.219         1.
      2.910      1.980         1.
      2.915      2.219         1.
      2.920      2.494         1.
      2.925      3.083         1.
      2.930      3.947         1.
      2.935      5.032         1.
      2.940      5.713         1.
      2.945      6.062         1.
      2.950      5.749         1.
      2.955      5.657         1.
      2.960      5.013         1.
      2.965      3.928         1.
      2.970      2.125         1.
      2.975      2.658         1.
      2.980      1.591         1.
      2.985      1.665         1.
      2.990      2.731         1.
      2.995      2.565         1.
      3.000      2.860         1.
      3.005      2.620         1.
      3.010      2.363         1.
      3.015      2.215         1.
      3.020      2.215         1.
      3.025      2.031         1.
      3.030      1.902         1.
      3.035      1.718         1.
      3.040      1.608         1.
      3.045      1.509         1.
      3.050      1.672         1.
      3.055      2.053         1.
      3.060      1.926         1.
      3.065      2.270         1.
      3.070      1.871         1.
      3.075      1.744         1.
      3.080      1.581         1.
      3.085      1.707         1.
      3.090      1.870         1.
      3.095      2.215         1.
      3.100      3.320         1.
      3.105      4.318         1.
      3.110      4.589         1.
      3.115      6.239         1.
      3.120      6.547         1.
      3.125      8.179         1.
      3.130     15.032         1.
      3.135     13.853         1.
      3.140     12.239         1.
      3.145     11.351         1.
      3.150      4.443         1.
      3.155      3.554         1.
      3.160      3.246         1.
      3.165      3.028         1.
      3.170      2.792         1.
      3.175      2.575         1.
      3.180      2.139         1.
      3.185      2.429         1.
      3.190      2.737         1.
      3.195      3.136         1.
      3.200      3.263         1.
      3.205      3.444         1.
      3.210      3.698         1.
      3.215      7.378         1.
      3.220     12.998         1.
      3.225     18.256         1.
      3.230     19.616         1.
      3.235     14.865         1.
      3.240      8.918         1.
      3.245      6.561         1.
      3.250      6.361         1.
      3.255      7.866         1.
      3.260     10.005         1.
      3.265     14.483         1.
      3.270     20.956         1.
      3.275     25.071         1.
      3.280     25.688         1.
      3.285     20.792         1.
      3.290     19.487         1.
      3.295     13.014         1.
      3.300     10.983         1.
      3.305     11.200         1.
      3.310     12.216         1.
      3.315     13.140         1.
      3.320     14.790         1.
      3.325     15.551         1.
      3.330     15.895         1.
      3.335     17.926         1.
      3.340     18.198         1.
      3.345     16.113         1.
      3.350     14.970         1.
      3.355     14.227         1.
      3.360     13.121         1.
      3.365     12.268         1.
      3.370     10.908         1.
      3.375      9.004         1.
      3.380      8.497         1.
      3.385      8.279         1.
      3.390      7.227         1.
      3.395      5.940         1.
      3.400      5.142         1.
      3.405      5.069         1.
      3.410      4.797         1.
      3.415      4.507         1.
      3.420      4.325         1.
      3.425      4.361         1.
      3.430      5.540         1.
      3.435      7.262         1.
      3.440      9.220         1.
      3.445     13.100         1.
      3.450     15.521         2.
      3.455     17.094         2.
      3.460     19.258         2.
      3.465     18.010         2.
      3.470     21.421         2.
      3.475     22.929         2.
      3.480     23.058         2.
      3.485     24.566         2.
      3.490     23.056         2.
      3.495     23.383         2.
      3.500     24.432         2.
      3.505     26.661         2.
      3.510     22.789         2.
      3.515     18.656         2.
      3.520     15.441         2.
      3.525     13.341         2.
      3.530     13.734         2.
      3.535     16.684         2.
      3.540     23.308         2.
      3.545     28.686         2.
      3.550     46.789         2.
      3.555     49.477         2.
      3.560     39.309         2.
      3.565     37.735         2.
      3.570     29.272         2.
      3.575     22.186         2.
      3.580     19.889         2.
      3.585     18.838         2.
      3.590     19.165         2.
      3.595     21.001         2.
      3.600     22.902         2.
      3.605     21.589         2.
      3.610     23.621         2.
      3.615     22.046         2.
      3.620     25.260         2.
      3.625     22.175         2.
      3.630     23.224         2.
      3.635     19.550         2.
      3.640     18.237         2.
      3.645     17.318         2.
      3.650     18.694         2.
      3.655     20.792         2.
      3.660     23.939         2.
      3.665     26.974         2.
      3.670     30.038         2.
      3.675     31.742         2.
      3.680     34.889         2.
      3.685     41.382         2.
      3.690     44.070         2.
      3.695     45.840         2.
      3.700     48.660         2.
      3.705     49.643         2.
      3.710     53.053         2.
      3.715     57.775         2.
      3.720     78.962         2.
      3.725    101.394         2.
      3.730    115.037         2.
      3.735    110.838         2.
      3.740    106.573         2.
      3.745    108.605         2.
      3.750     68.198         2.
      3.755     43.008         2.
      3.760     44.318         2.
      3.765     33.887         2.
      3.770     32.509         2.
      3.775     25.489         2.
      3.780     22.930         2.
      3.785     28.373         2.
      3.790     24.043         2.
      3.795     22.992         2.
      3.800     25.681         2.
      3.805     27.320         2.
      3.810     30.467         2.
      3.815     29.548         2.
      3.820     31.908         2.
      3.825     29.546         2.
      3.830     25.740         2.
      3.835     19.311         2.
      3.840     15.702         2.
      3.845     14.979         2.
      3.850     12.551         2.
      3.855     12.681         2.
      3.860     13.665         2.
      3.865     14.778         2.
      3.870     14.843         2.
      3.875     16.285         2.
      3.880     18.514         2.
      3.885     20.284         2.
      3.890     21.136         2.
      3.895     23.103         2.
      3.900     24.873         2.
      3.905     23.691         2.
      3.910     26.248         2.
      3.915     31.691         2.
      3.920     30.247         2.
      3.925     29.262         2.
      3.930     26.769         2.
      3.935     32.868         2.
      3.940     37.196         2.
      3.945     36.277         2.
      3.950     35.554         2.
      3.955     42.835         2.
      3.960     44.867         2.
      3.965     43.751         2.
      3.970     44.669         2.
      3.975     50.701         2.
      3.980     48.208         2.
      3.985     40.466         2.
      3.990     39.481         2.
      3.995     37.644         2.
      4.000     36.659         2.
      4.005     35.412         2.
      4.010     36.263         2.
      4.015     37.312         2.
      4.020     43.412         2.
      4.025     42.491         2.
      4.030     41.113         2.
      4.035     44.589         2.
      4.040     43.407         2.
      4.045     41.898         2.
      4.050     52.785         2.
      4.055     47.995         2.
      4.060     50.422         2.
      4.065     62.752         2.
      4.070     65.900         2.
      4.075     67.080         2.
      4.080     64.258         2.
      4.085     58.878         2.
      4.090     52.317         2.
      4.095     46.085         2.
      4.100     40.049         2.
      4.105     33.554         2.
      4.110     28.764         2.
      4.115     29.616         2.
      4.120     30.599         2.
      4.125     34.008         2.
      4.130     33.024         2.
      4.135     36.500         2.
      4.140     40.106         2.
      4.145     44.960         2.
      4.150     43.909         2.
      4.155     41.678         2.
      4.160     38.921         2.
      4.165     33.673         2.
      4.170     31.900         2.
      4.175     29.603         2.
      4.180     29.996         2.
      4.185     32.291         2.
      4.190     34.061         2.
      4.195     38.193         2.
      4.200     44.948         2.
      4.205     52.425         2.
      4.210     57.015         2.
      4.215     65.411         2.
      4.220     67.115         2.
      4.225     65.084         2.
      4.230     62.652         2.
      4.235     66.390         2.
      4.240     77.934         2.
      4.245     79.639         2.
      4.250     80.621         2.
      4.255     80.030         2.
      4.260     76.027         2.
      4.265     64.285         2.
      4.270     62.381         2.
      4.275     59.363         2.
      4.280     61.592         2.
      4.285     60.017         2.
      4.290     66.838         2.
      4.295     65.001         2.
      4.300     62.900         2.
      4.305     67.229         2.
      4.310     71.884         2.
      4.315     64.012         2.
      4.320     66.701         2.
      4.325     63.223         2.
      4.330     59.810         2.
      4.335     56.136         2.
      4.340     48.087         2.
      4.345     45.574         2.
      4.350     46.753         2.
      4.355     49.638         2.
      4.360     47.735         2.
      4.365     48.587         2.
      4.370     49.372         2.
      4.375     46.879         2.
      4.380     49.370         2.
      4.385     45.237         2.
      4.390     44.383         2.
      4.395     42.087         2.
      4.400     42.938         2.
      4.405     44.577         2.
      4.410     45.953         2.
      4.415     47.002         2.
      4.420     52.642         2.
      4.425     53.822         2.
      4.430     56.314         2.
      4.435     60.904         2.
      4.440     63.593         2.
      4.445     66.477         2.
      4.450     69.035         2.
      4.455     79.463         2.
      4.460     83.069         2.
      4.465     96.516         2.
      4.470    107.404         2.
      4.475    113.700         2.
      4.480    114.617         2.
      4.485    108.254         2.
      4.490    102.021         2.
      4.495     99.133         2.
      4.500     84.833         2.
      4.505     78.403         2.
      4.510     71.777         2.
      4.515     50.195         2.
      4.520     49.866         2.
      4.525     49.537         2.
      4.530     49.405         2.
      4.535     52.881         2.
      4.540     50.583         2.
      4.545     56.880         2.
      4.550     64.423         2.
      4.555     66.782         2.
      4.560     79.835         2.
      4.565     85.391         2.
      4.570     81.801         2.
      4.575     94.329         2.
      4.580    100.034         2.
      4.585    106.986         2.
      4.590    118.333         2.
      4.595    119.906         2.
      4.600    114.527         2.
      4.605     91.108         2.
      4.610     86.778         2.
      4.615     78.381         2.
      4.620    105.667         2.
      4.625    101.730         2.
      4.630    117.210         2.
      4.635    154.993         2.
      4.640    166.076         2.
      4.645    165.354         2.
      4.650    158.924         2.
      4.655    152.167         2.
      4.660    124.026         2.
      4.665    109.003         2.
      4.670     98.638         2.
      4.675     92.995         2.
      4.680     91.289         2.
      4.685     89.254         2.
      4.690     95.026         2.
      4.695    104.602         2.
      4.700    114.768         2.
      4.705    113.389         2.
      4.710    110.568         2.
      4.715    100.859         2.
      4.720     83.803         2.
      4.725     57.366         2.
      4.730     55.332         2.
      4.735     52.313         2.
      4.740     53.165         2.
      4.745     58.412         2.
      4.750     59.461         2.
      4.755     55.392         2.
      4.760     56.768         2.
      4.765     57.883         2.
      4.770     64.376         2.
      4.775     66.539         2.
      4.780     69.293         2.
      4.785     75.393         2.
      4.790     78.147         2.
      4.800     76.308         2.
      4.805     79.915         2.
      4.810     81.619         2.
      4.815     85.554         2.
      4.820     90.997         2.
      4.825     97.687         2.
      4.830    118.874         2.
      4.835    124.251         2.
      4.840    113.624         2.
      4.845    116.640         2.
      4.849    144.320         2.
      4.855    145.434         2.
      4.860    132.707         2.
      4.865    116.702         2.
      4.870    100.695         2.
      4.875     84.689         2.
      4.880     81.277         2.
      4.885     77.471         2.
      4.890     77.863         2.
      4.895     73.730         2.
      4.900     64.217         2.
      4.905     61.790         2.
      4.910     86.058         2.
      4.915     78.908         2.
      4.920     81.006         2.
      4.925     79.430         2.
      4.930     97.796         2.
      4.935     93.728         2.
      4.940    100.484         2.
      4.945     98.974         2.
      4.950     95.824         2.
      4.955     97.726         2.
      4.960    109.925         2.
      4.965    111.367         2.
      4.970    117.597         2.
ENDDATA            484
ENDSUBENT          493
SUBENT        D6219003   20160412   20160701   20160629       D104
BIB                  3          5
REACTION  1(9-F-19(A,N)11-NA-22,,SIG,,RES)
          2(9-F-19(A,TOT),,WID)
          3(9-F-19(A,N),,WID/STR)
ANALYSIS   (SLA) Breit-Wigner single level analysis
STATUS     (TABLE) Table 1 of Pramana 10(1978)329
ENDBIB               5
NOCOMMON             0          0
DATA                 4          8
EN-RES     DATA      1DATA-CM   2DATA      3
MEV        MB         KEV        KEV
      2.730        7.4        35.      0.488
      3.150       14.6        25.      0.793
      3.250       18.5        25.      1.036
      3.300       24.3        25.      1.379
      4.095       50.0        45.      6.323
      4.170       38.0        45.      4.893
      4.490       82.0        65.      1.639
      4.605       83.0        45.      1.176
ENDDATA             10
ENDSUBENT           20
SUBENT        D6219004   20160412   20160701   20160629       D104
BIB                  3          4
REACTION  1(9-F-19(A,EL),,WID)
          2(9-F-19(A,N),,WID)
ANALYSIS   (SLA) Breit-Wigner single level analysis
STATUS     (TABLE) Table 2 of Pramana 10(1978)329
ENDBIB               4
NOCOMMON             0          0
DATA                 5         16
EN-RES     SPIN J     PARITY     DATA      1DATA      2
MEV        NO-DIM     NO-DIM     KEV        KEV
      2.730        2.5        1.0       0.17      34.83
      2.730        3.5       -1.0       0.13      34.87
      3.150        0.5        1.0       0.82      24.18
      3.150        3.5       -1.0       0.20      24.80
      3.250        2.5        1.0       0.35      24.65
      3.250        3.5       -1.0       0.27      24.73
      3.300        3.5       -1.0       0.35      24.65
      3.300        4.5        1.0       0.28      24.72
      4.095        0.5       -1.0       7.61      37.39
      4.095        3.5       -1.0       1.64      43.36
      4.170        1.5       -1.0        2.6       42.4
      4.170        2.5        1.0       1.79      43.21
      4.490        1.5       -1.0       0.83      64.17
      4.490        1.5        1.0       0.83      64.17
      4.605        1.5       -1.0        0.6       44.4
      4.605        1.5        1.0        0.6       44.4
ENDDATA             18
ENDSUBENT           27
ENDENTRY             4
