ENTRY            23241   20150320   20160302   20151123       2244
SUBENT        23241001   20150320   20160302   20151123       2244
BIB                 12         71
TITLE      Investigation of beta strength functions by neutron and
           gamma-ray spectroscopy
            (I). The decay of 87-Br, 137-I, 85-As, 135-Sb.
AUTHOR     (K.-L.Kratz,W.Rudolph,H.Ohm,H.Franz,M.Zendel,
           G.Herrmann,S.G.Prussin,F.M.Nuh,A.A.Shihab-Eldin,
           D.R.Slaughter,W.Halverson,H.V.Klapdor)
INSTITUTE  (2GERMNZ) K.-L.Kratz,W.Rudolph,H.Ohm,H.Franz,M.Zendel,
                     G.Herrmann.
           (1USAUCX) S.G.Prussin,F.M.Nuh,A.A.Shihab-Eldin,
           D.R.Slaughter,W.Halverson .
           (2GERMPH) H.V.Klapdor.
REFERENCE  (J,NP/A,317,335,1979)
           Br-87,I-137,As-85,Sb-135 delayed neutron spectra.
           (J,NIM,144,253,1977) First author H.Franz.
           I-137 delayed neutron spectrum - Fig.9;
           details of experiment and analysis.
           (J,PRL,33,(14),859,1974) First author H.Franz.
           Delayed neutron spectra for
           As-85 (Fig.1; 90 separations),
           Sb-135(Fig.2; 210 separations).
           Initial publication.
FACILITY   (REAC,2GERMNZ) Mainz TRIGA reactor.
METHOD     Delayed neutron precursors were produced by thermal
           neutron induced fission of U-235 and isolated through
           chemical separation.
           (PHD)
DETECTOR   (HE3SP) He-3 spectrometer - cylindrical gridded
           ionization chamber.
           Neutrons are detected through reaction
           He-3 + n -> p + H-3 + 763.8keV.
           Filled with gas mixture He-3 + Ar + methane at 10 atm.
           Active volume 5cm diameter x 15 cm. Surrounded by 2mm
           boron nitride powder layer sandwiched between 0.5mm Cd
           sheets.
           Two identical spectrometers operated.
           Energy calibration and response functions in the energy
           range 0.019-2.77 MeV, detection efficiency ( using BF3
           long counter; at lower energies - He-3 small He3 prop.
           counter) were obtained via Li-7(p,n)Be-7 .
           Absolute energy calibration accuracy 0.1%.
           Response function - on Fig.2 of J,NIM,144,253,1977.
           Relative efficiency - on Fig.7 of J,NIM,144,253,1977.
           Energy resolution < 12 keV for thermal, about 20 keV
           for 1.0 MeV neutrons.
CORRECTION  - For thermal neutrons and gamma-ray pile-up.
            - Total plateau distribution ( constructed with a set
           of response functions) was subtracted.
            - For detection efficiency.
           Neutrons from the bulk fission product waste accounted
           for <0.4 % of total count rate and
           < 0.02% had energies > 40 keV.
           Scattered neutrons < 7 % of measured spectra.
ANALYSIS   Codes SAMPO and NEUTRN, OMNIFIT ( see REL-REFs) were
           used .
REL-REF    (N,,J.T.Routti+,J,NIM,72,125,1969)
            SAMPO code.
            NEUTTRN code - H.Ohm,G.Wirth,K.Suemmerer,H.Franz,
           Program Library,Institute fuer Kernchemie, Universitaet
           Mainz, 1975.
           (R,23240001,H.Ohm+,J,NP/A,274,45,1976)
           (R,,A.R.Poletti+,J,PR/C,8,1285,1973)
            Two refs. for known delayed neutron spectrum of N-17,
           which was served as standard at background ( neutron
           scattering) measurement.
ADD-RES    - N-17 delayed neutron spectrum on Fig.6 of
           J,NIM,144,253,1977 was measured and used as standard at
           background measurement ( Fig.6 data were not digitized
           by compiler due to lot of overlapping).
           (DECAY) Beta- strength functions - figs. 3, 4 of
           J,NP/A,317,335,1979.
HISTORY    (20150521C) M.M.
ENDBIB              71
NOCOMMON             0          0
ENDSUBENT           74
SUBENT        23241002   20150320   20160302   20151123       2244
BIB                  9         22
REACTION   (53-I-137(0,B-)54-XE-137,,PN/DE,,REL)
            Relative beta- delayed neutrons spectrum in arb.units.
SAMPLE     Halogens were isolated using ion exchange of halide
           ions into AgCl precipitates, interfering elements were
           removed by cation exchange. Halogens were separated
           from each  other by oxidation-reduction cycle.
           Separation time 3.5 sec after the end of irradiation.
           Mass < 0.05g.
DECAY-DATA (53-I-137,24.5SEC)
EN-SEC     (E,N) Energy of delayed neutrons.
ANALYSIS   Data from 375 experiments.
ERR-ANALYS (E-ERR-DIG) Digitizing error of E ( X scale)
           (ERR-DIG)    Digitizing error of DATA ( Y scale)
           Quantization errors:
           scale X - 1.26 keV, scale Y - 1.56 arb.units.
COMMENT    Of compiler. Negative values of E are given in DATA
           block as they are presented on Fig.2 lower.
STATUS     (CURVE) Fig.2 lower of J,NP/A,317,335,1979
           Uncorrected delayed neutron spectrum on Fig.9 of
           J,NIM,144,253,1977.
REL-REF    (N,,K.Kratz,R,INDC(NDS)-107,103,1979)
            The same spectrum is presented on Fig. 19 lower.
ENDBIB              22
COMMON               2          3
E-ERR-DIG  ERR-DIG
KEV        ARB-UNITS
 3.13       4.27
ENDCOMMON            3
DATA                 3        320
E-MIN      E-MAX      DATA
KEV        KEV        ARB-UNITS
 -28.79      -28.78       13.73
 -28.78      -11.17       22.29
 -11.17       -5.49       55.83
  -5.49       -2.32       71.43
  -2.32        0.24      105.78
   0.24        6.56      148.70
   6.56       14.12      171.32
  14.12       21.04      182.23
  21.04       29.84      190.80
  29.84       36.77      200.15
  36.77       43.08      226.68
  43.08       50.01      246.96
  50.01       53.80      261.00
  53.80       58.88      289.09
  58.88       61.49      349.18
  61.49       66.66      463.12
  66.66       70.57      589.55
  70.57       75.07      718.32
  75.07       79.42      752.66
  79.42       83.66      641.82
  83.66       87.28      491.18
  87.28       90.31      371.76
  90.31       94.66      312.44
  94.66       98.41      292.14
  98.41      104.06      270.28
 104.06      107.85      287.44
 107.85      111.65      307.72
 111.65      126.12      329.56
 126.12      129.28      349.06
 129.28      134.30      359.20
 134.30      138.08      348.26
 138.08      141.25      375.58
 141.25      145.68      405.22
 145.68      149.48      435.66
 149.48      157.02      458.28
 157.02      160.76      437.98
 160.76      165.76      412.21
 165.76      169.50      385.67
 169.50      173.26      371.61
 173.26      177.02      359.90
 177.02      182.66      349.75
 182.66      188.30      342.71
 188.30      193.95      336.46
 193.95      199.60      323.96
 199.60      205.27      331.75
 205.27      209.68      355.94
 209.68      214.74      368.42
 214.74      221.06      403.53
 221.06      224.87      440.99
 224.87      229.29      472.20
 229.29      236.23      487.79
 236.23      238.82      530.72
 238.82      242.69      607.20
 242.69      247.25      714.90
 247.25      250.57      884.26
 250.57      254.47     1027.10
 254.47      257.70     1107.50
 257.70      264.00     1181.60
 264.00      267.70     1140.25
 267.70      270.10     1062.95
 270.10      274.97      943.53
 274.97      277.98      799.13
 277.98      280.38      709.37
 280.38      284.70      611.03
 284.70      289.06      565.75
 289.06      296.01      552.47
 296.01      304.26      636.75
 304.26      306.86      699.18
 306.86      310.10      782.69
 310.10      315.20      874.78
 315.20      319.61      909.89
 319.61      322.69      896.61
 322.69      325.12      804.51
 325.12      330.14      766.26
 330.14      333.90      784.20
 333.90      338.28      752.98
 338.28      340.83      767.02
 340.83      346.52      806.04
 346.52      350.40      831.78
 350.40      352.49     1005.05
 352.49      357.19     1177.50
 357.19      362.01     1529.50
 362.01      366.73     1911.95
 366.73      372.99     2092.20
 372.99      377.74     1874.45
 377.74      381.24     1608.30
 381.24      384.84     1410.10
 384.84      388.47     1325.80
 388.47      393.95     1168.10
 393.95      397.61     1022.95
 397.61      404.56      983.11
 404.56      412.74     1080.65
 412.74      417.05     1025.20
 417.05      420.08      923.76
 420.08      426.27      824.63
 426.27      429.38      784.81
 429.38      433.75      755.15
 433.75      438.13      745.78
 438.13      445.71      720.79
 445.71      449.60      818.34
 449.60      458.49      929.94
 458.49      461.15      974.41
 461.15      466.99     1189.05
 466.99      471.50     1299.10
 471.50      477.79     1388.05
 477.79      482.10     1311.55
 482.10      488.38     1247.55
 488.38      493.46     1310.00
 493.46      499.12     1336.50
 499.12      502.86     1320.90
 502.86      506.57     1285.00
 506.57      510.23     1215.50
 510.23      513.25     1100.80
 513.25      519.98     1010.20
 519.98      524.84      781.52
 524.84      529.19      737.03
 529.19      534.17      703.46
 534.17      537.93      651.16
 537.93      541.14      687.05
 541.14      541.90      779.15
 541.90      550.19      903.24
 550.19      557.14      994.54
 557.14      562.17      978.92
 562.17      564.75     1010.90
 564.75      569.23     1079.55
 569.23      577.99     1163.10
 577.99      581.58     1018.70
 581.58      585.21      864.93
 585.21      588.88      763.46
 588.88      592.60      710.38
 592.60      596.33      671.34
 596.33      601.31      632.31
 601.31      604.40      607.33
 604.40      608.68      535.52
 608.68      614.88      409.07
 614.88      619.90      382.52
 619.90      625.56      411.39
 625.56      631.83      397.33
 631.83      637.48      384.83
 637.48      641.26      397.32
 641.26      645.03      410.57
 645.03      651.29      398.08
 651.29      658.83      371.53
 658.83      663.88      393.37
 663.88      666.42      413.66
 666.42      672.12      447.99
 672.12      675.92      489.35
 675.92      680.95      507.29
 680.95      684.68      489.33
 684.68      687.15      442.50
 687.15      692.13      413.62
 692.13      699.05      382.38
 699.05      702.87      421.40
 702.87      706.06      472.91
 706.06      711.10      493.97
 711.10      714.27      513.48
 714.27      719.34      547.81
 719.34      722.53      572.78
 722.53      727.00      635.21
 727.00      730.88      709.35
 730.88      734.72      821.73
 734.72      740.96      844.36
 740.96      743.99      737.42
 743.99      750.21      650.78
 750.21      756.46      627.35
 756.46      759.58      608.61
 759.58      763.31      585.98
 763.31      770.81      541.48
 770.81      774.53      528.20
 774.53      777.58      446.24
 777.58      783.83      374.43
 783.83      793.89      390.80
 793.89      813.38      405.60
 813.38      817.83      423.53
 817.83      821.70      487.53
 821.70      826.23      592.89
 826.23      830.14      719.32
 830.14      834.67      839.51
 834.67      836.64      951.11
 836.64      839.22      977.64
 839.22      843.64     1073.60
 843.64      846.67     1015.90
 846.67      849.66      884.74
 849.66      855.15      753.61
 855.15      858.15      606.88
 858.15      862.46      511.65
 862.46      864.91      448.43
 864.91      869.91      414.08
 869.91      873.03      399.24
 873.03      876.77      385.96
 876.77      881.13      350.05
 881.13      886.12      314.93
 886.12      890.51      292.28
 890.51      894.28      299.30
 894.28      903.08      289.14
 903.08      910.02      316.44
 910.02      911.93      335.95
 911.93      917.61      362.48
 917.61      920.77      389.01
 920.77      922.69      400.71
 922.69      926.50      442.07
 926.50      929.06      479.53
 929.06      932.88      515.43
 932.88      936.69      569.28
 936.69      942.97      588.77
 942.97      945.45      569.26
 945.45      951.70      533.35
 951.70      954.82      515.39
 954.82      958.54      493.53
 958.54      961.01      434.20
 961.01      966.01      409.22
 966.01      969.14      392.82
 969.14      974.77      383.45
 974.77      987.95      364.70
 987.95      994.81      353.76
 994.81     1001.05      295.21
1001.05     1004.80      275.69
1004.80     1007.30      254.61
1007.30     1010.40      242.90
1010.40     1016.65      226.50
1016.65     1019.20      238.98
1019.20     1024.90      271.75
1024.90     1029.30      284.23
1029.30     1032.50      299.05
1032.50     1036.35      342.75
1036.35     1040.70      383.33
1040.70     1044.45      348.20
1044.45     1049.40      291.22
1049.40     1051.25      284.97
1051.25     1055.05      249.06
1055.05     1061.30      230.32
1061.30     1065.05      216.26
1065.05     1071.30      199.87
1071.30     1076.35      212.34
1076.35     1078.30      238.09
1078.30     1086.40      249.79
1086.40     1096.45      209.96
1096.45     1100.30      240.40
1100.30     1105.30      277.85
1105.30     1110.40      309.06
1110.40     1114.15      316.08
1114.15     1117.35      333.24
1117.35     1119.90      360.55
1119.90     1122.45      419.09
1122.45     1128.15      450.30
1128.15     1132.55      474.48
1132.55     1139.50      518.18
1139.50     1145.05      501.00
1145.05     1151.20      341.77
1151.20     1154.95      314.44
1154.95     1160.00      275.41
1160.00     1162.50      314.43
1162.50     1168.75      319.89
1168.75     1178.80      305.82
1178.80     1183.85      300.35
1183.85     1191.95      291.74
1191.95     1194.45      245.69
1194.45     1200.05      219.14
1200.05     1203.20      208.99
1203.20     1208.20      173.86
1208.20     1211.95      164.49
1211.95     1218.25      152.77
1218.25     1225.75      144.18
1225.75     1230.10      127.77
1230.10     1234.50      105.91
1234.50     1240.20      139.47
1240.20     1245.20      123.85
1245.20     1250.20      113.69
1250.20     1254.60      105.10
1254.60     1259.60       91.82
1259.60     1264.65       71.52
1264.65     1276.55       80.86
1276.55     1284.10       66.80
1284.10     1291.65       76.15
1291.65     1300.45       91.74
1300.45     1308.00      101.10
1308.00     1314.30      111.24
1314.30     1318.00      101.08
1318.00     1324.30       88.58
1324.30     1330.60       97.15
1330.60     1333.15      119.00
1333.15     1338.80      131.48
1338.80     1341.95      116.64
1341.95     1345.05       98.69
1345.05     1350.70       89.31
1350.70     1355.75      111.16
1355.75     1371.45      124.41
1371.45     1377.70       99.41
1377.70     1382.70       79.89
1382.70     1390.25       72.85
1390.25     1393.40       64.26
1393.40     1396.50       54.11
1396.50     1407.15       48.63
1407.15     1412.20       57.98
1412.20     1424.80       63.43
1424.80     1430.40       55.61
1430.40     1434.20       45.45
1434.20     1443.00       54.03
1443.00     1449.25       40.75
1449.25     1454.95       60.25
1454.95     1461.20       44.63
1461.20     1467.50       38.37
1467.50     1471.85       32.12
1471.85     1487.60       28.98
1487.60     1493.20       22.72
1493.20     1500.75       25.83
1500.75     1506.40       21.13
1506.40     1515.80       16.44
1515.80     1524.00       10.17
1524.00     1529.65       21.87
1529.65     1531.50       32.79
1531.50     1546.60       12.48
1546.60     1556.00       26.51
1556.00     1576.10       17.90
1576.10     1608.80       14.73
1608.80     1626.95       10.78
1626.95     1635.15       16.22
1635.15     1643.30        9.18
1643.30     1677.85       14.61
1677.85      1725.0       10.63
ENDDATA            322
ENDSUBENT          353
SUBENT        23241003   20150320   20160302   20151123       2244
BIB                  9         26
REACTION   (35-BR-87(0,B-)36-KR-87,,PN/DE,,REL)
            Relative beta- delayed neutrons spectrum in arb.units.
SAMPLE     Halogens were isolated using ion exchange of halide
           ions into AgCl precipitates, interfering elements were
           removed by cation exchange. Halogens were separated
           from each  other by oxidation-reduction cycle.
           Separation time 3.5 sec after the end of irradiation.
           Mass < 0.05g.
DECAY-DATA (35-BR-87,55.6SEC)
EN-SEC     (E,N) Energy of delayed neutrons.
ANALYSIS   Data from 280 experiments.
ERR-ANALYS (E-ERR-DIG) Digitizing error of E ( X scale)
           (ERR-DIG)    Digitizing error of DATA ( Y scale)
           Quantization errors:
           scale X - 1.09 keV for E<800.keV,
                     0.546 keV for E>800.keV ;
           scale Y - 1.34 arb.units for E<800.keV,
                   - 0.0671 arb.units for E>800.keV
COMMENT    Of compiler. On Fig.1 lower there are two scales for E
           < 800 keV and >800 keV. Digitization was done for each
           scale regions separately, digitization errors are given
           in COMMON as maximal of two values
             ( for E>800 - 0.277 keV, 0.120 arb.units).
STATUS     (CURVE) Fig.1 lower of J,NP/A,317,335,1979
REL-REF    (N,,K.Kratz,R,INDC(NDS)-107,103,1979)
            The same spectrum is presented on Fig. 18 lower.
ENDBIB              26
COMMON               2          3
E-ERR-DIG  ERR-DIG
KEV        ARB-UNITS
0.98        1.30
ENDCOMMON            3
DATA                 3        240
E-MIN      E-MAX      DATA
KEV        KEV        ARB-UNITS
               3.52     39.70
   3.52        7.51    159.80
   7.51       11.46    448.69
  11.46       15.58    827.65
  15.58       20.30   1045.80
  20.30       22.99    899.09
  22.99       25.90    560.20
  25.90       31.49    316.01
  31.49       36.95    238.05
  36.95       40.83    296.11
  40.83       43.85    449.58
  43.85       48.53    647.07
  48.53       52.54    789.87
  52.54       56.62    795.23
  56.62       59.97    660.50
  59.97       63.04    507.07
  63.04       67.29    493.77
  67.29       70.31    549.82
  70.31       75.71    599.21
  75.71       79.28    558.56
  79.28       84.06    455.84
  84.06       91.67    320.45
  91.67       95.64    259.79
  95.64      100.61    229.12
 100.61      107.57    229.17
 107.57      109.99    273.90
 109.99      114.97    357.31
 114.97      117.22    460.74
 117.22      124.59    538.83
 124.59      128.71    589.57
 128.71      134.49    635.63
 134.49      138.73    667.69
 138.73      142.00    677.05
 142.00      146.48    658.40
 146.48      149.54    601.72
 149.54      154.30    514.35
 154.30      157.77    442.33
 157.77      161.65    406.99
 161.65      165.35    409.68
 165.35      170.45    457.09
 170.45      173.81    543.84
 173.81      178.38    628.59
 178.38      183.74    670.65
 183.74      186.14    651.34
 186.14      191.50    571.30
 191.50      194.61    471.26
 194.61      197.95    416.58
 197.95      203.87    411.27
 203.87      208.73    418.65
 208.73      214.12    424.68
 214.12      217.49    414.70
 217.49      222.40    400.05
 222.40      227.25    398.76
 227.25      229.86    414.12
 229.86      234.03    444.83
 234.03      239.05    510.24
 239.05      243.30    627.02
 243.30      246.05    756.47
 246.05      250.80    829.21
 250.80      254.87    813.23
 254.87      258.08    724.52
 258.08      263.47    610.48
 263.47      267.15    503.09
 267.15      271.31    413.06
 271.31      275.77    357.05
 275.77      279.16    328.38
 279.16      282.62    290.38
 282.62      285.46    251.04
 285.46      289.92    223.05
 289.92      294.36    197.06
 294.36      298.72    182.41
 298.72      302.99    188.45
 302.99      305.62    206.48
 305.62      309.39    217.18
 309.39      314.34    213.87
 314.34      320.39    195.22
 320.39      327.02    171.92
 327.02      330.84    155.28
 330.84      335.77    146.63
 335.77      339.05    139.32
 339.05      343.90    139.35
 343.90      347.74    138.04
 347.74      352.77    115.39
 352.77      357.68     94.74
 357.68      365.30     88.10
 365.30      370.15     89.49
 370.15      375.48    103.53
 375.48      380.83    121.57
 380.83      386.76    132.96
 386.76      393.79    140.34
 393.79      399.14    151.73
 399.14      402.90    164.42
 402.90      406.19    162.45
 406.19      410.04    151.80
 410.04      418.21    142.49
 418.21      428.99    147.24
 428.99      432.20    159.29
 432.20      435.87    179.32
 435.87      438.46    207.37
 438.46      442.29    216.06
 442.29      446.22    197.40
 446.22      451.71    175.41
 451.71      458.26    162.12
 458.26      462.72    143.47
 462.72      467.69    119.49
 467.69      471.00    102.16
 471.00      474.31     89.51
 474.31      479.74     82.87
 479.74      485.75     76.91
 485.75      493.92     67.60
 493.92      503.12     67.01
 503.12      507.97     71.72
 507.97      517.75     73.09
 517.75      528.09     67.84
 528.09      536.13     71.90
 536.13      540.53     77.28
 540.53      549.84     57.96
 549.84      560.15     47.37
 560.15      566.68     45.43
 566.68      572.13     38.78
 572.13      579.71     38.83
 579.71      587.87     36.88
 587.87      597.59     38.94
 597.59      607.32     45.68
 607.32      613.82     51.07
 613.82      627.35     54.45
 627.35      643.59     61.25
 643.59      651.75     62.00
 651.75      659.92     54.70
 659.92      668.03     52.76
 668.03      676.75     50.82
 676.75      683.82     43.52
 683.82      690.90     38.24
 690.90      695.80     34.27
 695.80      714.24     28.35
 714.24      720.74     35.10
 720.74      728.34     28.48
 728.34      737.02     32.53
 737.02      744.64     25.92
 744.64      749.54     19.28
 749.54      757.14     15.99
 757.14      774.48     20.74
 774.48      779.92     18.15
 779.92      797.68     15.55
 797.68      802.27      8.70
 802.27      804.34     11.62
 804.34      806.53     14.11
 806.53      807.99     11.69
 807.99      809.93      9.78
 809.93      812.44     10.18
 812.44      816.52      7.87
 816.52      819.45     10.62
 819.45      822.70     11.23
 822.70      823.95     12.17
 823.95      826.55     16.60
 826.55      828.25     18.11
 828.25      830.52     13.65
 830.52      832.46     14.63
 832.46      833.94     12.21
 833.94      837.27      9.36
 837.27      838.51      9.76
 838.51      840.34     15.13
 840.34      842.39     13.69
 842.39      844.62      8.73
 844.62      846.99     11.98
 846.99      848.99     12.62
 848.99      851.53      7.73
 851.53      853.31      9.20
 853.31      854.87     13.67
 854.87      856.65     13.20
 856.65      859.02      7.13
 859.02      861.25      4.34
 861.25      863.09      5.22
 863.09      864.63      7.77
 864.63      866.74      9.65
 866.74      868.24     11.19
 868.24      870.38     16.23
 870.38      872.16     13.54
 872.16      874.19      9.28
 874.19      876.43      8.24
 876.43      878.43      6.70
 878.43      881.17      4.42
 881.17      882.65      6.17
 882.65      884.21     11.74
 884.21      886.23      9.69
 886.23      887.98      6.78
 887.98      891.19      4.80
 891.19      892.17      9.73
 892.17      893.90     10.10
 893.90      896.76      5.81
 896.76      898.44      4.23
 898.44      900.38      3.80
 900.38      902.88      2.79
 902.88      905.34      1.92
 905.34      906.97      2.76
 906.97      909.37      2.39
 909.37      912.91      5.78
 912.91      915.99      2.80
 915.99      919.26      2.27
 919.26      921.45      3.17
 921.45      923.90      2.27
 923.90      924.67      3.28
 924.67      926.83      4.82
 926.83      929.05      4.19
 929.05      931.83      3.35
 931.83      934.06      2.34
 934.06      936.01      0.90
 936.01      941.17      0.60
 941.17      944.17      2.25
 944.17      947.18      0.98
 947.18      949.90      2.22
 949.90      952.92      1.38
 952.92      955.06      1.92
 955.06      956.97      2.86
 956.97      958.66      2.29
 958.66      961.41      0.58
 961.41      963.30      1.22
 963.30      967.07      1.79
 967.07      971.39      3.74
 971.39      973.00      4.31
 973.00      975.19      4.75
 975.19      977.40      4.28
 977.40      979.11      3.82
 979.11      991.19      0.63
 991.19      993.10      1.41
 993.10      995.27      0.94
 995.27      996.87      1.71
 996.87      998.80      3.16
 998.80     1000.45      1.25
1000.45     1002.35      2.72
1002.35     1007.00      1.35
1007.00     1008.30      3.26
1008.30     1012.40      3.70
1012.40     1014.60      2.87
1014.60     1016.80      3.37
1016.80     1019.55      2.43
1019.55     1021.50      0.72
1021.50     1023.65      1.33
1023.65     1026.15      1.70
1026.15                  0.66
ENDDATA            242
ENDSUBENT          277
SUBENT        23241004   20150320   20160302   20151123       2244
BIB                  9         38
REACTION   (33-AS-85(0,B-)34-SE-85,,PN/DE,,REL)
            Relative beta- delayed neutrons spectrum in arb.units.
SAMPLE      Arsenic was chemically isolated using volatilization
           procedure. Radioactive contamination < 0.1 %.
DECAY-DATA (33-AS-85,2.05SEC)
EN-SEC     (E,N) Energy of delayed neutrons.
ANALYSIS   Data from 400 experiments.
ERR-ANALYS (E-ERR-DIG) Digitizing error of E ( X scale)
           (ERR-DIG)    Digitizing error of DATA ( Y scale)
           Quantization errors:
           scale X - 1.67 keV,
           scale Y - 2.11 arb.units for E<2000.keV,
                     0.85 for E>2000.keV
REL-REF    (N,,K.Kratz,R,INDC(NDS)-107,103,1979)
            Spectrum is presented on Figs. 18upper and Fig.27
           from two earlier publications, respectively:
           (N,,F.M.Nuh+,J,NP/A,293,410,1977) -first ref.
            Second ref.:
             is given
            - in J,PRL,33,859,1974 of H.Franz+ as
            H.Franz,G.Herrmann,J.-V.Kratz,K.-L.Kratz,J.Phys.
             (Paris),Collog.33,C5-31,1972
            - in INDC-NDS-0107,103 of K.Kratz+ as
            H.Franz,G.Herrmann,J.-V.Kratz,K.-L.Kratz,J.Phys.,
                33 (1972) C5-31
COMMENT    - Of compiler.  For REL-REF of H.Franz+ (free text) .
           In CINDA this ref. is given as
             J,JPR/C,33,31 of 197208 Franz+ .
           In J,JPR/C,vol.33, iss.C5 on page 31 and
           in J,JPR,vol.33, page 31
           there are different articles of different authors
           S.A.Hjorth+ ( pages 23-35 in JPR),
           R.Balian+ ( pages 17-32 in JPR/C).
           - Of compiler. On Fig.1 upper there is a misprint on
           linear scale Y : 1400. instead of 1200.
           Data were digitized for Y scale with 1200. instead of
           1400. units.
STATUS     (CURVE) Fig.1 upper of J,NP/A,317,335,1979
ENDBIB              38
COMMON               2          3
E-ERR-DIG  ERR-DIG
KEV        ARB-UNITS
1.44       1.29
ENDCOMMON            3
DATA                 3        490
E-MIN      E-MAX      DATA
KEV        KEV        ARB-UNITS
              19.90       7.64
   19.90      25.63      16.09
   25.63      30.53      47.78
   30.53      35.43      71.01
   35.43      40.34      92.13
   40.34      44.41     119.60
   44.41      49.29     162.89
   49.29      52.54     205.13
   52.54      57.43     233.64
   57.43      60.69     273.77
   60.69      64.79     295.95
   64.79      68.92     280.12
   68.92      73.85     256.90
   73.85      79.58     273.80
   79.58      82.85     283.31
   82.85      87.71     322.38
   87.71      92.54     400.52
   92.54      98.17     514.56
   98.17     102.19     629.64
  102.19     107.97     684.55
  107.97     113.84     583.21
  113.84     116.39     457.58
  116.39     122.20     403.73
  122.20     129.60     343.57
  129.60     132.03     391.09
  132.03     136.94     412.21
  136.94     141.03     427.00
  141.03     145.11     454.46
  145.11     149.20     471.36
  149.20     153.26     492.48
  153.26     156.48     542.11
  156.48     161.30     622.36
  161.30     165.23     750.11
  165.23     168.30     964.45
  168.30     172.22    1186.20
  172.22     176.29    1318.15
  176.29     182.16    1252.70
  182.16     184.82    1086.90
  184.82     189.14     877.91
  189.14     192.59     675.20
  192.59     196.81     557.00
  196.81     199.33     463.00
  199.33     205.06     449.28
  205.06     209.11     506.30
  209.11     214.84     539.04
  214.84     218.12     550.66
  218.12     223.88     558.06
  223.88     228.85     520.06
  228.85     234.63     487.34
  234.63     240.37     460.95
  240.37     252.66     504.25
  252.66     258.42     528.55
  258.42     261.75     472.60
  261.75     265.02     450.44
  265.02     271.55     505.35
  271.55     276.47     528.58
  276.47     281.43     506.42
  281.43     287.21     471.59
  287.21     292.96     454.71
  292.96     297.87     471.61
  297.87     302.76     491.68
  302.76     304.35     547.64
  304.35     310.11     579.32
  310.11     313.41     548.71
  313.41     319.17     528.66
  319.17     324.11     549.78
  324.11     333.98     506.51
  333.98     338.86     523.42
  338.86     341.24     593.10
  341.24     343.63     681.80
  343.63     348.51     739.87
  348.51     354.26     776.84
  354.26     356.78     740.94
  356.78     362.62     661.76
  362.62     366.78     577.31
  366.78     370.89     553.03
  370.89     375.83     569.93
  375.83     381.56     524.54
  381.56     389.73     623.80
  389.73     394.65     593.20
  394.65     399.55     649.16
  399.55     405.28     654.45
  405.28     411.86     676.63
  411.86     416.79     642.85
  416.79     422.52     673.48
  422.52     426.59     688.26
  426.59     431.52     734.73
  431.52     438.10     688.29
  438.10     440.54     718.91
  440.54     447.04     746.38
  447.04     450.27     840.35
  450.27     456.83     868.86
  456.83     459.25     856.20
  459.25     465.00     943.84
  465.00     469.95     862.55
  469.95     473.16     897.40
  473.16     477.15    1011.40
  477.15     481.92    1130.75
  481.92     483.35    1313.40
  483.35     489.70    1539.35
  489.70     492.01    1732.55
  492.01     496.82    1845.50
  496.82     502.59    1961.70
  502.59     509.27    1810.75
  509.27     514.28    1749.50
  514.28     518.47    1647.10
  518.47     521.01    1593.25
  521.01     524.45    1491.90
  524.45     527.94    1300.80
  527.94     533.83    1087.50
  533.83     539.63    1036.90
  539.63     545.39     992.54
  545.39     551.98    1016.85
  551.98     557.75     954.56
  557.75     562.61     978.84
  562.61     567.55    1081.30
  567.55     573.34     963.03
  573.34     578.32    1003.20
  578.32     583.38     865.92
  583.38     586.74     745.56
  586.74     589.25     721.28
  589.25     593.42     665.33
  593.42     597.59     599.88
  597.59     601.70     537.59
  601.70     608.22     597.78
  608.22     610.63     646.36
  610.63     613.01     680.15
  613.01     617.79     814.23
  617.79     621.76     971.56
  621.76     624.95    1083.50
  624.95     632.28    1154.25
  632.28     633.89    1194.35
  633.89     639.67    1215.45
  639.67     640.59    1144.70
  640.59     646.42    1019.15
  646.42     653.84     989.56
  653.84     662.10     970.57
  662.10     664.67     895.62
  664.67     668.05     771.04
  668.05     675.55     716.15
  675.55     682.20     557.79
  682.20     686.25     578.91
  686.25     692.79     659.16
  692.79     697.70     628.55
  697.70     700.89     704.57
  700.89     706.59     802.78
  706.59     712.36     807.01
  712.36     716.59     762.67
  716.59     720.82     577.92
  720.82     725.81     529.35
  725.81     730.01     458.62
  730.01     735.82     350.94
  735.82     740.75     330.89
  740.75     743.19     352.01
  743.19     747.27     368.91
  747.27     753.02     412.21
  753.02     757.99     366.82
  757.99     761.26     338.32
  761.26     765.30     397.45
  765.30     772.69     456.58
  772.69     776.82     404.86
  776.82     783.40     422.82
  783.40     790.82     382.71
  790.82     794.11     365.82
  794.11     799.83     381.67
  799.83     804.73     427.08
  804.73     813.77     431.31
  813.77     816.28     409.15
  816.28     822.06     355.31
  822.06     826.98     336.32
  826.98     829.41     378.56
  829.41     837.59     400.74
  837.59     841.70     437.70
  841.70     845.87     400.76
  845.87     851.63     328.97
  851.63     857.33     374.38
  857.33     859.74     433.51
  859.74     864.61     473.64
  864.61     871.16     533.82
  871.16     877.71     516.94
  877.71     889.15     579.25
  889.15     892.37     631.00
  892.37     895.59     705.97
  895.59     902.04     757.71
  902.04     906.85     934.04
  906.85     909.31     983.67
  909.31     919.20     959.39
  919.20     925.85     908.73
  925.85     929.21     811.61
  929.21     933.40     766.21
  933.40     937.58     658.52
  937.58     945.03     627.92
  945.03     950.84     539.24
  950.84     954.95     514.97
  954.95     958.21     531.87
  958.21     962.31     564.60
  962.31     967.22     541.38
  967.22     969.63     601.57
  969.63     974.51     650.14
  974.51     976.95     688.15
  976.95     983.54     697.67
  983.54     987.67     655.44
  987.67     994.23     642.79
  994.23     998.30     691.36
  998.30     1001.60    708.26
  1001.60    1005.75    662.86
  1005.75    1012.35    604.81
  1012.35    1019.75    612.21
  1019.75    1022.30    564.71
  1022.30    1026.40    515.09
  1026.40    1028.85    498.20
  1028.85    1033.80    530.94
  1033.80    1037.85    546.78
  1037.85    1041.95    591.13
  1041.95    1046.10    573.19
  1046.10    1055.20    533.08
  1055.20    1057.70    485.58
  1057.70    1060.20    434.90
  1060.20    1068.40    448.64
  1068.40    1077.40    442.32
  1077.40    1079.90    434.94
  1079.90    1085.70    366.32
  1085.70    1090.65    347.33
  1090.65    1096.45    368.45
  1096.45    1101.40    277.66
  1101.40    1106.25    328.35
  1106.25    1113.60    381.15
  1113.60    1120.15    418.12
  1120.15    1125.00    465.64
  1125.00    1127.40    499.43
  1127.40    1130.70    573.34
  1130.70    1134.00    560.67
  1134.00    1143.80    529.01
  1143.80    1149.60    560.70
  1149.60    1153.75    535.37
  1153.75    1160.30    488.92
  1160.30    1164.4     520.61
  1164.4     1168.55    501.61
  1168.55    1172.65    470.99
  1172.65    1176.80    488.96
  1176.80    1182.55    420.33
  1182.55    1185.80    483.69
  1185.80    1190.00    417.18
  1190.00    1194.10    395.01
  1194.10    1198.20    361.24
  1198.20    1202.30    393.97
  1202.30    1207.30    377.09
  1207.30    1216.35    354.93
  1216.35    1223.00    285.26
  1223.00    1228.75    248.32
  1228.75    1234.50    259.94
  1234.50    1239.45    211.38
  1239.45    1247.65    276.85
  1247.65    1254.30    189.24
  1254.30    1265.75    174.47
  1265.75    1272.30    243.11
  1272.30    1278.90    197.73
  1278.90    1286.30    225.19
  1286.30    1291.20    206.19
  1291.20    1295.35    195.64
  1295.35    1301.95    151.31
  1301.95    1310.15    180.89
  1310.15    1324.95    171.40
  1324.95    1330.70    141.86
  1330.70    1334.80    179.87
  1334.80    1338.85    247.45
  1338.85    1347.10    184.11
  1347.10    1350.40    202.07
  1350.40    1356.95    174.63
  1356.95    1361.05    203.14
  1361.05    1365.90    267.56
  1365.90    1372.45    318.25
  1372.45    1377.35    286.58
  1377.35    1381.50    317.21
  1381.50    1386.40    299.27
  1386.40    1388.90    265.49
  1388.90    1392.20    292.94
  1392.20    1396.30    250.72
  1396.30    1401.25    238.06
  1401.25    1405.35    256.01
  1405.35    1409.40    275.02
  1409.40    1413.60    263.42
  1413.60    1417.70    213.80
  1417.70    1424.25    276.10
  1424.25    1434.10    230.72
  1434.10    1441.55    223.34
  1441.55    1448.10    209.62
  1448.10    1454.70    242.37
  1454.70    1460.50    149.47
  1460.50    1465.35    187.49
  1465.35    1472.75    233.96
  1472.75    1476.90    210.74
  1476.90    1481.80    199.13
  1481.80    1485.15    163.24
  1485.15    1491.70    134.74
  1491.70    1495.00    162.20
  1495.00    1502.40    147.43
  1502.40    1508.95    128.44
  1508.95    1514.70    170.68
  1514.70    1525.40    150.63
  1525.40    1532.80    137.98
  1532.80    1542.70    115.82
  1542.70    1551.75    102.11
  1551.75    1560.80     83.12
  1560.80    1566.50     67.29
  1566.50    1573.10     78.92
  1573.10    1582.15     62.04
  1582.15    1593.65     75.78
  1593.65    1601.90     37.79
  1601.90    1609.25     56.81
  1609.25    1616.65     70.55
  1616.65    1624.05     48.39
  1624.05    1636.35     71.63
  1636.35    1643.75     99.10
  1643.75    1655.25     79.06
  1655.25    1668.40     69.58
  1668.40    1677.45     59.04
  1677.45    1685.70     40.05
  1685.70    1692.20     60.12
  1692.20    1698.00     46.40
  1698.00    1702.95     33.74
  1702.95    1710.30     18.97
  1710.30    1729.20     32.72
  1729.20    1732.45     69.69
  1732.45    1735.80     43.31
  1735.80    1741.55     24.31
  1741.55    1748.10     54.94
  1748.10    1754.70     33.83
  1754.70    1760.45     21.17
  1760.45    1766.20     45.47
  1766.20    1771.10     57.09
  1771.10    1776.05     15.92
  1776.05    1790.00     20.16
  1790.00    1803.15     32.85
  1803.15    1812.20     18.09
  1812.20    1824.50     27.61
  1824.50    1835.20     39.25
  1835.20    1840.90     57.21
  1840.90    1849.10     42.44
  1849.10    1854.05     50.90
  1854.05    1866.40     28.74
  1866.40    1874.60     39.32
  1874.60    1879.50     19.27
  1879.50    1885.25     53.06
  1885.25    1891.05     62.57
  1891.05    1895.95     31.96
  1895.95    1902.50     62.59
  1902.50    1909.10     71.05
  1909.10    1913.20     54.16
  1913.20    1924.70     42.56
  1924.70    1937.00     52.09
  1937.00    1943.60     36.27
  1943.60    1951.80     46.84
  1951.80    1957.55     34.18
  1957.55    1970.75     23.67
  1970.75    1980.60     10.99
  1980.60    1988.80     21.56
  1988.80    1998.65     30.02
  1998.65    2002.80     19.48
  2002.80    2006.3       6.94
  2006.35    2013.90     32.06
  2013.90    2023.85     36.29
  2023.85    2030.45     15.95
  2030.45    2036.30     22.72
  2036.30    2041.30     27.80
  2041.30    2047.95     34.58
  2047.95    2051.25     20.59
  2051.25    2058.75      4.49
  2058.75    2065.40     33.29
  2065.40    2075.35     18.03
  2075.35    2082.00     12.52
  2082.00    2089.50     29.04
  2089.50    2094.50     12.08
  2094.50    2097.90     35.81
  2097.90    2102.90     52.33
  2102.90    2107.85     38.77
  2107.85    2113.65     30.71
  2113.65    2116.95     21.39
  2116.95    2124.45     17.99
  2124.45    2130.25     36.63
  2130.25    2137.70     31.54
  2137.70    2143.55     21.79
  2143.55    2150.25     27.72
  2150.25    2154.40     37.04
  2154.40    2159.35     45.08
  2159.35    2166.00     28.98
  2166.00    2176.85     22.62
  2176.85    2182.70     48.46
  2182.70    2189.30     40.40
  2189.30    2193.45     36.58
  2193.45    2200.10     23.02
  2200.10    2205.15     38.27
  2205.15    2211.80     55.64
  2211.80    2216.70     48.85
  2216.70    2221.70     30.63
  2221.70    2224.25     49.27
  2224.25    2225.90     54.78
  2225.90    2230.10     65.37
  2230.10    2234.20     48.42
  2234.20    2238.35     35.28
  2238.35    2245.00     41.63
  2245.00    2249.10     39.08
  2249.10    2254.10     27.22
  2254.10    2260.70     20.01
  2260.70    2264.90     27.21
  2264.90    2272.40     33.98
  2272.40    2276.55     29.32
  2276.55    2279.00     21.27
  2279.00    2284.85     14.48
  2284.85    2291.50     24.65
  2291.50    2297.30     14.05
  2297.30    2303.90     19.55
  2303.90    2309.75     14.04
  2309.75    2315.55     18.70
  2315.55    2321.40      7.25
  2321.40    2325.60     26.74
  2325.60    2329.75     40.72
  2329.75    2333.90     35.63
  2333.90    2340.50     15.71
  2340.50    2344.70      8.08
  2344.70    2350.50     36.47
  2350.50    2357.15     12.74
  2357.15    2367.15     22.47
  2367.15    2373.80     30.52
  2373.80    2381.25     15.68
  2381.25    2386.25     23.73
  2386.25    2390.40     16.52
  2390.40    2396.20     20.76
  2396.20    2401.20     14.40
  2401.20    2407.85     23.29
  2407.85    2414.50     27.94
  2414.50    2418.65     22.01
  2418.65    2424.45     14.80
  2424.45    2427.80     19.46
  2427.80    2434.45     27.93
  2434.45    2437.75     21.15
  2437.75    2441.90     11.82
  2441.90    2446.90     15.21
  2446.90    2451.10     19.02
  2451.10    2457.70     25.80
  2457.70    2475.95     16.89
  2475.95    2480.95     10.95
  2480.95    2487.60     15.18
  2487.60    2500.10      4.58
  2500.10    2506.75     24.49
  2506.75    2510.85     14.31
  2510.85    2532.45      4.14
  2532.45    2539.15     13.45
  2539.15    2551.60      7.51
  2551.60    2559.95     19.79
  2559.95    2568.20     12.15
  2568.20    2584.85      7.06
  2584.85    2589.90     11.29
  2589.90    2601.50     15.10
  2601.50    2610.65     12.12
  2610.65    2628.90      4.06
  2628.90    2631.40     16.77
  2631.40    2637.25     19.30
  2637.25    2646.35     11.25
  2646.35    2653.00      4.03
  2653.00    2665.45      8.69
  2665.45    2672.10     14.19
  2672.10    2685.40      4.44
  2685.40    2688.75      7.40
  2688.75    2697.90     17.14
  2697.90    2702.90      9.93
  2702.90    2717.00      6.54
  2717.00    2725.35     16.70
  2725.35    2736.95      3.55
  2736.95    2740.30      7.36
  2740.30    2746.15     16.68
  2746.15    2751.10      8.20
  2751.10    2764.40      3.53
  2764.40    2769.40      9.46
  2769.40    2773.55     14.54
  2773.55    2779.35      9.03
  2779.35    2791.80      4.79
  2791.80    2805.95      2.23
  2805.95    2814.25      9.43
  2814.25    2834.20      2.64
  2834.20    2838.35      6.44
  2838.35    2845.00     10.25
  2845.00    2850.00      6.86
  2850.00    2871.60      3.03
  2871.60    2880.75      6.84
  2880.75    2951.40      2.57
  2951.40    2962.20      4.66
  2962.20    2991.30      1.25
  2991.30    2999.60      3.36
  2999.60                 0.39
ENDDATA            492
ENDSUBENT          539
SUBENT        23241005   20150320   20160302   20151123       2244
BIB                  9         23
REACTION   (51-SB-135(0,B-)52-TE-135,,PN/DE,,REL)
            Relative beta- delayed neutrons spectrum in arb.units.
SAMPLE      Antimony was chemically isolated using volatilization
           procedure. Radioactive contamination < 0.1 %.
DECAY-DATA (51-SB-135,1.71SEC)
EN-SEC     (E,N) Energy of delayed neutrons.
ANALYSIS   Data from 210 experiments.
ERR-ANALYS (E-ERR-DIG) Digitizing error of E ( X scale)
           (ERR-DIG)    Digitizing error of DATA ( Y scale)
           Quantization errors:
           scale X - 1.43 keV for E<2000.keV,
                     1.21 keV for E>2000.keV;
           scale Y - 0.16 arb.units for E<2000.keV,
                     0.078 ard.units for E>2000.keV.
COMMENT    Of compiler. On Fig.2 upper there is two energy ranges-
           data were digitized for each range separately;
           digitizing errors are given in COMMON block as maximal
           of two values ( minimal - 0.547 keV, 0.124 arb.units).
           At energy range E>2000.keV there are lot of confluent
           lines - so digitized data are rather raw.
STATUS     (CURVE) Fig.2 upper of J,NP/A,317,335,1979
REL-REF    (N,,K.Kratz,R,INDC(NDS)-107,103,1979)
            The same spectrum is presented on Fig. 18 upper.
ENDBIB              23
COMMON               2          3
E-ERR-DIG  ERR-DIG
KEV        ARB-UNITS
 1.3900    0.52947
ENDCOMMON            3
DATA                 3        524
E          E-ERR      DATA
KEV        KEV        ARB-UNITS
             72.70      9.05
  72.70      77.52     15.64
  77.52      81.80     17.12
  81.80      88.95     15.65
  88.95      95.34     17.59
  95.34     101.32     17.05
 101.32     105.07      5.81
 105.07     108.95      9.77
 108.95     114.29     23.88
 114.29     119.37     26.75
 119.37     121.68     20.08
 121.68     128.00     19.47
 128.00     132.03     24.81
 132.03     138.92     31.41
 138.92     143.12     35.91
 143.12     146.20     35.37
 146.20     151.56     25.76
 151.56     157.79     19.95
 157.79     163.82     34.60
 163.82     166.46     38.25
 166.46     174.41     44.14
 174.41     176.85     34.14
 176.85     181.87     31.04
 181.87     187.52     33.30
 187.52     190.52     33.76
 190.52     195.15     27.49
 195.15     203.15     18.03
 203.15     208.27     21.37
 208.27     213.50     13.08
 213.50     221.93     11.53
 221.93     224.76     19.52
 224.76     229.80     12.31
 229.80     234.09     18.05
 234.09     239.05     12.47
 239.05     245.36     19.76
 245.36     251.66     18.29
 251.66     257.14     25.58
 257.14     261.46     28.61
 261.46     265.90     24.03
 265.90     271.79     22.10
 271.79     275.53     15.98
 275.53     281.88     15.05
 281.88     285.99     19.55
 285.99     290.79     23.20
 290.79     295.03     28.24
 295.03     300.25     25.68
 300.25     308.95     18.48
 308.95     313.88     20.18
 313.88     319.44     21.89
 319.44     328.77     26.93
 328.77     335.96     19.89
 335.96     343.09     25.08
 343.09     349.79     21.13
 349.79     355.40     12.84
 355.40     361.00     25.79
 361.00     371.92     18.35
 371.92     377.15     16.73
 377.15     383.10      8.05
 383.10     390.33      6.97
 390.33     405.98      4.18
 405.98     408.57     10.16
 408.57     418.29     15.90
 418.29     423.32     22.64
 423.32     427.83     15.05
 427.83     431.92     12.49
 431.92     436.75     24.36
 436.75     446.91     20.33
 446.91     452.16     17.08
 452.16     457.01      9.25
 457.01     460.03     23.90
 460.03     466.41     33.98
 466.41     470.36     26.16
 470.36     477.11     17.17
 477.11     484.99     12.13
 484.99     491.22     16.79
 491.22     494.67     20.51
 494.67     495.92     22.60
 495.92     502.30     28.34
 502.30     506.73     25.01
 506.73     511.13     21.84
 511.13     514.81     20.37
 514.81     521.96     16.80
 521.96     525.31     20.22
 525.31     530.35     26.58
 530.35     535.58     18.91
 535.58     543.46     16.27
 543.46     546.23     18.45
 546.23     550.33     20.00
 550.33     557.48     26.90
 557.48     564.14     19.85
 564.14     567.83     16.68
 567.83     575.21     14.66
 575.21     582.48      6.37
 582.48     586.58      9.24
 586.58     591.31     14.52
 591.31     593.91     21.34
 593.91     602.49     26.07
 602.49     609.95     21.58
 609.95     616.37     11.97
 616.37     622.48     21.90
 622.48     631.07     26.24
 631.07     634.93     21.75
 634.93     642.17     13.30
 642.17     647.81     17.49
 647.81     653.60     16.72
 653.60     658.86     14.01
 658.86     662.67      5.80
 662.67     667.59      3.39
 667.59     672.38      9.37
 672.38     675.85     12.86
 675.85     681.60     14.02
 681.60     690.90     11.16
 690.90     695.25     13.80
 695.25     702.50      8.53
 702.50     704.56      9.15
 704.56     710.95     12.25
 710.95     715.20     10.86
 715.20     721.01     14.20
 721.01     726.09      6.76
 726.09     729.41     10.64
 729.41     735.59     18.00
 735.59     742.58     21.88
 742.58     748.48     25.14
 748.48     757.10     13.98
 757.10     762.83     22.67
 762.83     768.07     13.37
 768.07     771.03     12.52
 771.03     775.50      9.03
 775.50     781.21      4.00
 781.21     784.49      9.58
 784.49     791.41     17.02
 791.41     794.81     19.81
 794.81     796.78     24.63
 796.78     801.92     27.65
 801.92     811.29     17.97
 811.29     813.76     24.24
 813.76     817.97     35.80
 817.97     826.58     27.74
 826.58     831.37     34.10
 831.37     834.38     37.20
 834.38     840.38     27.36
 840.38     845.35     24.34
 845.35     850.97     29.23
 850.97     856.05     28.22
 856.05     861.25     26.05
 861.25     866.495    19.39
 866.495    872.37     15.67
 872.37     877.43     12.03
 877.43     880.24     12.89
 880.24     885.23     14.59
 885.23     891.71     13.43
 891.71     895.38     12.35
 895.38     898.39      9.02
 898.39     902.03      5.61
 902.03     909.76      6.62
 909.76     913.13     10.89
 913.13     920.37     15.85
 920.37     927.67      6.55
 927.67     931.15      9.04
 931.15     938.11     10.98
 938.11     944.49     17.42
 944.49     952.44     13.08
 952.44     957.38     13.55
 957.38     959.80     15.72
 959.80     968.22     33.32
 968.22     974.65     22.63
 974.65     976.50     33.40
 976.50     981.65     35.65
 981.65     987.66     26.97
 987.66     991.31     22.40
 991.31     996.47     23.65
 996.47    1001.45     15.35
1001.45    1007.85     23.65
1007.85    1015.70     18.31
1015.70    1020.50     23.66
1020.50    1023.80     28.00
1023.80    1030.35     35.45
1030.35    1033.85     54.60
1033.85    1039.50     70.02
1039.50    1043.85     90.10
1043.85    1049.10     97.70
1049.10    1052.20     79.49
1052.20    1057.50     56.85
1057.50    1061.95     33.76
1061.95    1067.45     18.26
1067.45    1071.95     11.51
1071.95    1077.55      7.25
1077.55    1082.20     17.41
1082.20    1085.70     24.78
1085.70    1093.25     17.73
1093.25    1099.15      9.36
1099.15    1107.80      8.04
1107.80    1112.75      6.96
1112.75    1120.45      9.29
1120.45    1128.90     16.12
1128.90    1136.25     13.49
1136.25    1149.25      8.22
1149.25    1154.25      5.51
1154.25    1159.30      8.61
1159.30    1164.20      5.44
1164.20    1164.70     11.80
1164.70    1169.75     16.22
1169.75    1176.40      7.46
1176.40    1181.15      6.69
1181.15    1184.25     19.71
1184.25    1187.55     27.47
1187.55    1194.80     32.20
1194.80    1199.85     53.44
1199.85    1205.65     62.59
1205.65    1213.55     49.88
1213.55    1217.70     28.41
1217.70    1221.20     24.93
1221.20    1227.05     29.89
1227.05    1233.05     21.68
1233.05    1237.60     16.10
1237.60    1241.10     11.60
1241.10    1246.55     19.36
1246.55    1255.05     21.22
1255.05    1261.50     24.48
1261.50    1266.00     20.38
1266.00    1275.30     15.65
1275.30    1280.05     18.60
1280.05    1281.20     26.35
1281.20    1288.30     31.32
1288.30    1292.00     28.69
1292.00    1297.05     26.52
1297.05    1304.10     24.58
1304.10    1312.00     32.57
1312.00    1319.20     22.27
1319.20    1323.40     29.24
1323.40    1329.25     26.22
1329.25    1335.90     24.21
1335.90    1344.85     17.24
1344.85    1358.55      7.40
1358.55    1369.00     12.68
1369.00    1377.30     17.41
1377.30    1385.75     26.33
1385.75    1395.95     22.69
1395.95    1401.75     16.42
1401.75    1407.45     19.99
1407.45    1411.25     16.58
1411.25    1417.05      9.84
1417.05    1423.95     14.03
1423.95    1427.80     21.32
1427.80    1435.55     33.41
1435.55    1441.35     26.05
1441.35    1442.85     30.08
1442.85    1448.30     53.96
1448.30    1457.05     74.66
1457.05    1463.60     77.38
1463.60    1469.15     69.32
1469.15    1473.30     52.11
1473.30    1476.70     44.36
1476.70    1480.95     29.48
1480.95    1487.80     13.29
1487.80    1492.60     11.97
1492.60    1497.45     22.05
1497.45    1502.15     15.85
1502.15    1507.35      5.93
1507.35    1509.40      7.02
1509.40    1515.00      9.50
1515.00    1519.15     13.15
1519.15    1524.85     16.09
1524.85    1529.75     14.55
1529.75    1536.20     19.12
1536.20    1539.30     15.02
1539.30    1545.10      7.11
1545.10    1549.75     11.69
1549.75    1554.60     23.09
1554.60    1564.15     16.50
1564.15    1568.05     12.47
1568.05    1571.85      3.87
1571.85    1581.80      1.16
1581.80    1590.40      4.89
1590.40    1599.65      1.71
1599.65    1608.05      6.06
1608.05    1613.70      7.54
1613.70    1617.95     10.17
1617.95    1625.80      8.63
1625.80    1632.35     12.59
1632.35    1636.15      3.21
1636.15    1646.10      2.05
1646.10    1649.55      5.85
1649.55    1656.60      8.33
1656.60    1660.80      9.73
1660.80    1667.30     11.13
1667.30    1673.95      7.34
1673.95    1680.40      1.68
1680.40    1684.55      6.33
1684.55    1690.25      8.43
1690.25    1697.45      7.04
1697.45    1701.15      4.72
1701.15    1710.35      3.32
1710.35    1715.25      7.98
1715.25    1722.35      9.07
1722.35    1727.30      7.36
1727.30    1730.90     12.87
1730.90    1735.35      7.83
1735.35    1743.20      5.98
1743.20    1745.90      7.84
1745.90    1753.85     11.25
1753.85    1759.65      5.68
1759.65    1766.10      6.61
1766.10    1774.05      5.53
1774.05    1779.05      3.67
1779.05    1783.20      4.76
1783.20    1787.50      7.71
1787.50    1791.75      5.69
1791.75    1795.15      8.80
1795.15    1801.65     11.67
1801.65    1805.35      7.87
1805.35    1809.75      5.62
1809.75    1815.30      3.07
1815.30    1819.95     12.22
1819.95    1827.65     19.82
1827.65    1832.75     17.81
1832.75    1835.05     15.48
1835.05    1840.75     13.47
1840.75    1845.25     14.95
1845.25    1852.50      4.79
1852.50    1858.90     10.07
1858.90    1866.85      5.03
1866.85    1871.05      7.60
1871.05    1878.20      8.99
1878.20    1887.40      7.84
1887.40    1890.00     11.87
1890.00    1898.40     19.55
1898.40    1905.55     21.10
1905.55    1910.50     19.55
1910.50    1918.35     21.34
1918.35    1924.25     19.72
1924.25    1933.40     13.83
1933.40    1938.35     26.93
1938.35    1944.55     16.47
1944.55    1951.20      5.23
1951.20    1958.40      6.56
1958.40    1971.35      1.83
1971.35    1985.50      3.86
1985.50    1994.75      6.88
1994.75    2000.00      4.79
 2000.0     2006.2      7.547
 2006.2     2015.3      8.749
 2015.3     2020.7      10.34
 2020.7     2023.7      8.284
 2023.7     2031.0      5.223
 2031.0     2035.3      4.176
 2035.3     2041.9      3.402
 2041.9     2047.3      5.727
 2047.3     2051.6      4.293
 2051.6     2055.8      2.123
 2055.8     2060.0      3.402
 2060.0     2066.7      5.805
 2066.7     2070.3      3.984
 2070.3     2076.4      4.372
 2076.4     2083.0      5.341
 2083.0     2087.3      2.822
 2087.3     2092.7      1.659
 2092.7     2096.9      2.435
 2096.9     2099.4      2.629
 2099.4     2103.0      4.760
 2103.0     2107.2      6.311
 2107.2     2114.5      4.102
 2114.5     2120.5      5.187
 2120.5     2124.7      4.567
 2124.7     2127.8      3.133
 2127.8     2132.6      2.281
 2132.6     2144.7      3.599
 2144.7     2147.7      5.033
 2147.7     2150.7      5.576
 2150.7     2156.2      7.165
 2156.2     2161.0      6.119
 2161.0     2165.8      7.204
 2165.8     2170.7      8.250
 2170.7     2172.5      6.972
 2172.5     2176.1      4.840
 2176.1     2181.0      2.321
 2181.0     2186.4      4.918
 2186.4     2191.9      2.903
 2191.9     2195.5      4.609
 2195.5     2199.7      5.074
 2199.7     2202.7      4.609
 2202.7     2207.5      6.779
 2207.5     2212.4      6.392
 2212.4     2216.0      2.633
 2216.0     2221.5      1.199
 2221.5     2226.3      2.129
 2226.3     2231.2      1.742
 2231.2     2235.4      1.161
 2235.4     2240.2      0.618
 2240.2     2245.7      1.083
 2245.7     2248.1      1.394
 2248.1     2251.1      3.099
 2251.1     2256.6      4.378
 2256.6     2263.2      2.867
 2263.2     2268.6      5.309
 2268.6     2273.5      3.797
 2273.5     2275.3      5.193
 2275.3     2280.7      5.425
 2280.7     2284.4      3.875
 2284.4     2289.8      1.938
 2289.8     2292.8      2.868
 2292.8     2296.4      5.775
 2296.4     2300.1      3.837
 2300.1     2304.9      1.861
 2304.9     2308.5      3.372
 2308.5     2311.0      3.062
 2311.0     2318.8      1.861
 2318.8     2323.1      3.915
 2323.1     2327.3      2.055
 2327.3     2332.1      1.707
 2332.1     2344.2      3.335
 2344.2     2350.9      2.327
 2350.9     2358.1      2.870
 2358.1     2362.4      2.289
 2362.4     2368.4      3.452
 2368.4     2375.6      2.871
 2375.6     2381.1      3.956
 2381.1     2384.1      2.832
 2384.1     2389.0      1.825
 2389.0     2392.0      2.871
 2392.0     2394.4      3.337
 2394.4     2399.8      2.445
 2399.8     2415.0      1.903
 2415.0     2421.0      0.663
 2421.0     2424.0      1.439
 2424.0     2431.3      2.408
 2431.3     2439.8      0.509
 2439.8     2444.0      2.369
 2444.0     2450.6      1.362
 2450.6     2454.9      2.215
 2454.9     2458.5      2.409
 2458.5     2464.5      2.913
 2464.5     2468.8      1.440
 2468.8     2484.5      0.433
 2484.5     2489.3      1.867
 2489.3     2493.0      4.154
 2493.0     2497.8      2.216
 2497.8     2502.6      0.434
 2502.6     2509.3      1.287
 2509.3     2514.7      0.589
 2514.7     2516.5      1.209
 2516.5     2522.0      2.256
 2522.0     2525.6      1.907
 2525.6     2531.1      0.590
 2531.1     2532.9      1.287
 2532.9     2536.5      2.256
 2536.5     2538.3      1.520
 2538.3     2541.3      1.249
 2541.3     2548.0      0.397
 2548.0     2552.2      3.575
 2552.2     2557.0      4.118
 2557.0     2559.5      1.443
 2559.5     2563.1      0.591
 2563.1     2570.3      1.211
 2570.3     2578.2      0.863
 2578.2     2595.1      0.398
 2595.1     2598.8      1.406
 2598.8     2603.0      1.949
 2603.0     2626.0      2.298
 2626.0     2639.3      1.562
 2639.3     2646.5      0.943
 2646.5     2653.8      0.284
 2653.8     2665.9      0.749
 2665.9     2670.7      0.323
 2670.7     2674.3      1.409
 2674.3     2679.2      2.107
 2679.2     2681.0      1.525
 2681.0     2687.0      0.905
 2687.0     2702.2      0.247
 2702.2     2709.4      0.867
 2709.4     2718.5      0.364
 2718.5     2728.8      0.868
 2728.8     2734.2      1.333
 2734.2     2737.2      0.946
 2737.2     2751.1      0.249
 2751.1     2757.8      0.830
 2757.8     2770.5      0.443
 2770.5     2774.7      0.831
 2774.7     2780.1      0.521
 2780.1     2785.6      1.374
 2785.6     2804.3      0.483
 2804.3     2809.2      0.910
 2809.2     2814.0      0.406
 2814.0     2818.2      0.910
 2818.2     2829.7      0.251
 2829.7     2834.6      0.833
 2834.6     2839.4      1.337
 2839.4     2842.4      0.523
 2842.4     2855.1      0.291
 2855.1     2859.9      0.718
 2859.9     2864.2      1.222
 2864.2     2866.6      0.873
 2866.6     2871.4      0.292
 2871.4     2876.9      0.796
 2876.9     2880.5      1.145
 2880.5     2882.9      1.377
 2882.9     2886.5      2.889
 2886.5     2891.4      1.378
 2891.4     2897.4      0.254
 2897.4     2907.1      0.874
 2907.1     2911.9      1.340
 2911.9     2914.4      0.836
 2914.4     2929.5      0.294
 2929.5     2931.9      0.837
 2931.9     2938.6      1.341
 2938.6     2945.8      0.372
 2945.8     2955.5      0.256
 2955.5     2966.4      0.838
 2966.4     2976.0      0.295
 2976.0     2978.4      0.838
 2978.4     2982.7      1.381
 2982.7     2985.7      0.645
 2985.7     2991.1      0.180
 2991.1     2999.6      1.382
 2999.6     3005.1      0.142
 3005.1     3010.5      0.956
 3010.5     3014.7      0.181
 3014.7     3017.8      0.840
 3017.8     3021.4      1.111
 3021.4     3025.0      1.305
 3025.0     3030.4      0.918
 3030.4     3042.5      0.298
 3042.5     3051.6      1.345
 3051.6                 0.298
ENDDATA            526
ENDSUBENT          558
SUBENT        23241006   20150320   20160302   20151123       2244
BIB                  5         13
REACTION   ((33-AS-85(0,B-)34-SE-85,PAR,PN)//
           (33-AS-85(0,B-)34-SE-85,PAR,PN))
           Neutron intensity relative to 501.keV transition taken
           as 100. in Table 3.
           DATA and DATA-MAX were divided by 100. by compiler to
           obtain NO-DIM units .
SAMPLE      Arsenic was chemically isolated using volatilization
           procedure. Radioactive contamination < 0.1 %.
DECAY-DATA (33-AS-85,2.05SEC)
EN-SEC     (E,N) Neutron kinetic energy corrected for recoil
           energy.
             LVL-INI - Energy of neutron emitting Se-85 level .
STATUS     (TABLE) Table 3 of J,NP/A,317,335,1979
ENDBIB              13
COMMON               1          3
E-DN
KEV
 501.
ENDCOMMON            3
DATA                 5         20
E-NM       E-NM-ERR   DATA       DATA-MAX   LVL-INI
KEV        KEV        NO-DIM     NO-DIM     MEV
  57.       1.             16.E-2              5.64
 142.       3.             41.E-2              6.96
 248.       6.              5.E-2              7.67
 274.       2.             15.E-2              6.51
 501.       3.            100.E-2              6.74
 522.       3.             87.E-2              6.77
 716.       3.             51.E-2              6.96
 853.                                 5. E-2   7.67
 936.       4.             73.E-2              6.51
1168.       7.             36.E-2              6.74
1201.       8.             34.E-2              6.77
1385.                                 5. E-2   6.96
1437.       7.             40.E-2              7.67
1524.      11.             20.E-2              5.64
2038.                                 1. E-2   7.67
2394.                                 1. E-2   6.51
2623.                                 1. E-2   6.74
2650.                                 1. E-2   6.77
2840.                                 1. E-2   6.96
3553.                                 0.1E-2   7.67
ENDDATA             22
ENDSUBENT           44
SUBENT        23241007   20150320   20160302   20151123       2244
BIB                  5         13
REACTION   ((51-SB-135(0,B-)52-TE-135,PAR,PN)//
           (51-SB-135(0,B-)52-TE-135,PAR,PN))
           Neutron intensity relative to 1458.keV transition taken
           as 100. in Table 4.
           DATA and DATA-MAX were divided by 100. by compiler to
           obtain NO-DIM units .
SAMPLE      Antimony was chemically isolated using volatilization
           procedure. Radioactive contamination < 0.1 %.
DECAY-DATA (51-SB-135,1.71SEC)
EN-SEC     (E,N) Neutron kinetic energy corrected for recoil
           energy.
             LVL-INI - Energy of neutron emitting Te-135 level .
STATUS     (TABLE) Table 4 of J,NP/A,317,335,1979
ENDBIB              13
COMMON               1          3
E-DN
KEV
1458.
ENDCOMMON            3
DATA                 5         33
E-NM       E-NM-ERR   DATA       DATA-MAX   LVL-INI
KEV        KEV        NO-DIM     NO-DIM     MEV
  47.                                  5.E-2 5.29
  85.                                  5.E-2 5.86
 162.       3.             11.E-2            5.29
 268.                                  5.E-2 6.22
 377.                                  5.E-2 6.29
 430.                                  5.E-2 6.38
 435.                                  5.E-2 5.68
 458.       2.             16.E-2            5.29
 499.       3.             12.E-2            6.45
 549.       3.             13.E-2            5.68
 623.       3.             11.E-2            5.86
 783.       3.             11.E-2            5.86
 848.       2.             20.E-2            5.68
 977.       2.             25.E-2            6.22
1035.                                  5.E-2 5.86
1042.       2.             88.E-2            6.29
1090.                                  5.E-2 6.22
1136.                                  5.E-2 6.38
1159.                                  5.E-2 6.29
1201.       2.             54.E-2            6.45
1251.       4.             10.E-2            6.38
1322.       4.             24.E-2            6.45
1384.       4.             17.E-2            6.22
1458.       2.            100.E-2            6.29
1549.       3.             26.E-2            6.38
1618.       5.             10.E-2            6.45
1739.                                  3.E-2 5.29
2126.                                  7.E-2 5.68
2314.                                  5.E-2 5.86
2666.                                 1.5E-2 6.22
2735.                                 0.5E-2 6.29
2827.                                 0.2E-2 6.38
2896.                                 0.6E-2 6.45
ENDDATA             35
ENDSUBENT           57
SUBENT        23241008   20150320   20160302   20151123       2244
BIB                  7         15
REACTION   ((33-AS-85(0,B-)34-SE-85,PAR,PN)/
           (33-AS-85(0,B-)34-SE-85,,PN))
           Neutron intensities to excited states in final Se-84
           in percents in Table 2.
           DATA and DATA-ERR were divided by 100. by compiler to
           obtain NO-DIM units.
DECAY-DATA (33-AS-85,2.05SEC)
ANALYSIS   Mean values from two independent measurements:
REL-REF    (R,,J.-V.Kratz+,J,NP/A,250,13,1975)
           (R,,W.Rudolph,T,RUDOLPH,1976) Doctoral Dissertation,
           University Mainz.
EN-SEC     (E-LVL-NM,34-SE-84) Energy of final Se-84 level
             (after neutron emission)
ERR-ANALYS (DATA-ERR) Not specified.
STATUS     (TABLE) Table 2 of J,NP/A,317,335,1979
ENDBIB              15
NOCOMMON             0          0
DATA                 3          5
E-LVL-NM   DATA       DATA-ERR
KEV        NO-DIM     NO-DIM
0.            35.  E-2     7. E-2
1455.         31.  E-2     6. E-2
2122.         22.  E-2     3. E-2
2700.          8.5 E-2     2.5E-2
3299.          3.5 E-2     2. E-2
ENDDATA              7
ENDSUBENT           27
SUBENT        23241009   20150320   20160302   20151123       2244
BIB                  6         13
REACTION   ((51-SB-135(0,B-)52-TE-135,PAR,PN)/
           (51-SB-135(0,B-)52-TE-135,,PN))
           Neutron intensities to excited states in final Te-134
           in percents in Table 2.
           DATA and DATA-ERR were divided by 100. by compiler to
           obtain NO-DIM units.
REL-REF    (O,,W.Rudolph,T,RUDOLPH,1976) Doctoral Dissertation,
           University Mainz.
DECAY-DATA (51-SB-135,1.71SEC)
EN-SEC     (E-LVL-NM,52-TE-134) Energy of final Te-134 level
             (after neutron emission)
ERR-ANALYS (DATA-ERR) Not specified.
STATUS     (TABLE) Table 2 o,NP/A,317,335,1979
ENDBIB              13
NOCOMMON             0          0
DATA                 3          5
E-LVL-NM   DATA       DATA-ERR
KEV        NO-DIM     NO-DIM
0.              47.E-2     12.E-2
1279.           26.E-2     10.E-2
1576.            3.E-2     3. E-2
1691.           21.E-2     5. E-2
2397.            4.E-2     3. E-2
ENDDATA              7
ENDSUBENT           25
ENDENTRY             9
