ENTRY            D0586   20091014   20100209   20100128       D071
SUBENT        D0586001   20091014   20100209   20100128       D071
BIB                 13         46
TITLE      Measurement and parametrization of proton elastic
           scattering cross sections for nitrogen
AUTHOR     (I.Bogdanovic Radovic,Z.Siketic,M.Jaksic,A.F.Gurbich)
INSTITUTE  (3CRORBZ,4RUSFEI)
REFERENCE  (J,JAP,104,074905,2008)
FACILITY   (VDGT,3CRORBZ) 6.0 MV Tandem Van de Graaff accelerator
INC-SOURCE The beam was extracted from a sputtering ion source
           using a TiH2. The proton beam delimited by
           horizontal and vertical slits to a spot of 2 x 2 mm2
           impinged on the sample at normal incidence. The
           energy calibration of the accelerator was done using
           narrow resonance in 27Al(p,gamma)28Si at 991.88 keV
           and neutron threshold reaction 7Li(p,n)7Be at 1880.6
           keV. Final energy spread of the beam was calculated
           to be 0.1 % of the incident beam energy.
SAMPLE     a thin AlN film deposited by reactive sputtering on
           a vitreous graphite substrate was used. On the top,
           a 6 nm Au layer was evaporated for normalization
           purposes, assuming that cross sections for
           backscattering of protons from Au are Rutherford in
           the entire energy range studied.
MONITOR    (79-AU-197(P,EL)79-AU-197,,DA,,RTH)
DETECTOR   (SIBAR) three surface barrier detectors with a 2.5
           msr solid angle each were positioned at 118., 150.,
           and 165.degr. The energy resolution of the detectors
           used was 12 keV for protons in the measured energy
           range.
CORRECTION In addition, the normalization to gold eliminates
           further corrections due to:
             * the dead time,
             * knowledge of absolute solid angle value, and
             * errors due to imperfect charge collection.
ERR-ANALYS (DATA-ERR) The following factors were taken into
           consideration for estimating the uncertainty:
             * the counting statistics of the peak;
             * systematic error in determining the N(Au)/N(N)
                                                        ratio.
           Uncertainties due to dead time, solid angle, and
           improper  charge measurement are eliminated with the
           normalization to backscattering protons from gold.
           Errors of the detector angular settings were estimated
           to be negligible.
STATUS     (TABLE) Data are from IBANDL Website:
            http://www-nds.iaea.org/ibandl/
           (APRVD) Entry approved by Dr.I.Bogdanovic Radovic
HISTORY    (20091014C) SD
ENDBIB              46
COMMON               1          3
EN-RSL
PER-CENT
  0.1
ENDCOMMON            3
ENDSUBENT           53
SUBENT        D0586002   20091014   20100209   20100128       D071
BIB                  1          1
REACTION   (7-N-14(P,EL)7-N-14,,DA)
ENDBIB               1
NOCOMMON             0          0
DATA                 4        613
ANG        EN         DATA       DATA-ERR
ADEG       KEV        MB/SR      MB/SR
      118.0    2430.02     101.39       4.45
      118.0    2450.10     101.58       4.48
      118.0    2460.24      96.24        4.3
      118.0    2470.38      92.91       4.14
      118.0    2480.51      99.28       4.42
      118.0    2490.69      104.4       4.49
      118.0    2500.90       100.       4.34
      118.0    2511.14      110.5       4.69
      118.0    2521.37     108.22       4.47
      118.0    2531.64     105.09       4.51
      118.0    2541.48     111.15       4.59
      118.0    2551.75      96.69       4.22
      118.0    2561.66      98.56       4.23
      118.0    2572.00      96.43       4.23
      118.0    2582.36      95.71       4.25
      118.0    2592.27      94.04       4.15
      118.0    2602.24      92.13       3.85
      118.0    2612.64      93.87       4.08
      118.0    2622.64      90.05       3.91
      118.0    2632.65      93.45       4.07
      118.0    2658.20      85.04        3.8
      118.0    2683.43      86.19       3.78
      118.0    2708.78      87.16       3.83
      118.0    2734.24      87.54       3.89
      118.0    2759.83      84.22       3.72
      118.0    2785.04      81.35       3.61
      118.0    2810.40      81.17       3.51
      118.0    2835.85      80.87       3.59
      118.0    2860.97      75.86       3.35
      118.0    2886.65      78.17       3.44
      118.0    2911.97       75.6       3.33
      118.0    2936.92      79.32       3.54
      118.0    2962.47      73.63       3.23
      118.0    2987.61      74.54       3.29
      118.0    3013.36      71.94       3.12
      118.0    3036.31      69.02       3.12
      118.0    3063.72      68.65       3.05
      118.0    3089.33      67.39       2.98
      118.0    3113.04      68.97       3.08
      118.0    3139.81      65.88       2.94
      118.0    3150.24      62.54       2.76
      118.0    3160.21       63.3       2.98
      118.0    3170.21      66.61       2.87
      118.0    3180.70      63.09       2.87
      118.0    3190.70      84.16       3.69
      118.0    3200.72       77.7       3.47
      118.0    3210.79      62.56        2.8
      118.0    3221.35      60.96       2.71
      118.0    3231.41      59.71       2.65
      118.0    3241.50      57.65       2.62
      118.0    3251.60      60.55       2.75
      118.0    3261.73      50.41        2.3
      118.0    3271.86      53.31       2.49
      118.0    3282.02      53.88        2.5
      118.0    3292.18      50.85       2.37
      118.0    3302.38      49.82       2.27
      118.0    3312.57      60.54       2.63
      118.0    3322.27      47.77        2.2
      118.0    3332.53      43.77       2.02
      118.0    3342.76      40.25       1.97
      118.0    3353.01      38.68       1.72
      118.0    3363.31      31.06       1.41
      118.0    3373.07      27.57       1.23
      118.0    3383.40      23.08       0.96
      118.0    3393.69      32.39       1.42
      118.0    3403.52      46.81       2.16
      118.0    3413.88      51.37       2.39
      118.0    3423.74      55.47        2.6
      118.0    3434.13      58.02       2.61
      118.0    3443.99      62.55       2.79
      118.0    3454.41      62.52       2.83
      118.0    3464.31      68.92       3.05
      118.0    3479.48      67.38       2.89
      118.0    3495.18      71.02       3.12
      118.0    3509.86      72.53       3.24
      118.0    3525.13      72.53       3.31
      118.0    3540.40      74.72       3.35
      118.0    3555.70      70.02       3.14
      118.0    3571.08      70.87       3.17
      118.0    3586.44       70.3       3.05
      118.0    3601.31      67.25       2.92
      118.0    3616.75      69.38       3.06
      118.0    3631.71      70.06       3.05
      118.0    3647.22      72.01       3.21
      118.0    3662.22      69.57       3.11
      118.0    3677.25      66.78       2.91
      118.0    3692.86      65.76       2.85
      118.0    3707.96      62.78       2.78
      118.0    3723.09      64.49       2.77
      118.0    3738.23      65.05       2.81
      118.0    3753.43      60.66       2.62
      118.0    3768.66      64.82       2.62
      118.0    3783.89      61.71       2.71
      118.0    3799.20      63.76       2.83
      118.0    3814.49      67.32       2.98
      118.0    3829.29      78.86       3.28
      118.0    3844.66      82.36       3.48
      118.0    3860.05      91.92       3.83
      118.0    3874.95      98.07       4.16
      118.0    3890.41     100.02       4.13
      118.0    3905.35      94.51       4.03
      118.0    3920.88      87.61       3.77
      118.0    3935.87      79.26       3.48
      118.0    3951.44      83.06       3.53
      118.0    3961.49      77.29       3.24
      118.0    3971.51      80.06       3.32
      118.0    3981.60      72.44       3.08
      118.0    3991.64      72.01         3.
      118.0    4001.74      73.73        3.1
      118.0    4011.82      73.36       3.09
      118.0    4021.93      67.78       2.88
      118.0    4032.62      71.62       3.03
      118.0    4042.77      67.55       2.88
      118.0    4052.90      65.42       2.79
      118.0    4062.51      65.47       2.75
      118.0    4072.66      67.89       2.91
      118.0    4082.85      66.27       2.85
      118.0    4093.06        71.       3.04
      118.0    4103.25      67.19       2.87
      118.0    4113.47      63.91        2.8
      118.0    4124.84      68.99       2.98
      118.0    4133.97      65.99       3.12
      118.0    4143.66      68.87       3.14
      118.0    4153.94      65.96       2.88
      118.0    4164.22      66.87       2.98
      118.0    4174.50      66.51       2.92
      118.0    4184.25        72.       2.89
      118.0    4194.57      69.05       2.95
      118.0    4204.89       58.7        2.5
      118.0    4214.67        58.       2.51
      118.0    4225.02       60.8       2.63
      118.0    4235.40      56.37       2.53
      118.0    4245.22      56.62       2.55
      118.0    4255.60      59.99       2.63
      118.0    4265.42      59.73       2.68
      118.0    4275.86      60.05       2.66
      118.0    4285.72      57.86       2.63
      118.0    4296.16      56.62       2.47
      118.0    4306.01      57.62       2.55
      118.0    4316.50      60.07       2.63
      118.0    4326.41      60.48       2.64
      118.0    4336.29      57.17        2.5
      118.0    4346.81      55.28       2.48
      118.0    4356.75      57.33       2.56
      118.0    4377.25      56.24       2.49
      118.0    4397.18      62.56       2.82
      118.0    4417.77       56.1       2.51
      118.0    4437.80      58.51       2.67
      118.0    4458.46      58.06       2.63
      118.0    4478.58      60.78       2.73
      118.0    4498.78      58.61        2.6
      118.0    4519.01      62.17       2.81
      118.0    4539.26      68.88       2.91
      118.0    4559.55      76.57       3.22
      118.0    4569.73      74.13       3.14
      118.0    4579.90      71.02       3.13
      118.0    4590.12      63.09       2.82
      118.0    4600.33      54.41       2.48
      118.0    4610.54      55.99       2.52
      118.0    4620.15      56.03       2.54
      118.0    4630.40       59.7       2.64
      118.0    4640.64      62.02       2.83
      118.0    4650.92      62.17       2.87
      118.0    4661.16      68.67       2.89
      118.0    4670.85      65.15       2.95
      118.0    4681.15      65.64       2.95
      118.0    4691.46      68.89       3.08
      118.0    4701.77      68.11       2.91
      118.0    4711.49      65.13       2.89
      118.0    4721.83      74.63       3.35
      118.0    4732.16       76.7       3.46
      118.0    4741.91      78.34        3.2
      118.0    4752.28      71.27       3.24
      118.0    4762.07      71.13        3.2
      118.0    4772.47      67.94       3.15
      118.0    4782.84      63.79        2.9
      118.0    4792.65      56.03       2.69
      118.0    4803.10      50.47       2.38
      118.0    4812.91      46.51       2.27
      118.0    4823.35      49.29       2.32
      118.0    4833.19      43.46       2.14
      118.0    4843.66      42.05       1.97
      118.0    4853.54      39.65       1.72
      118.0    4864.01      47.66       2.17
      118.0    4873.89      52.81       2.37
      118.0    4883.79      65.92       2.95
      118.0    4894.31      63.08       2.74
      118.0    4904.25      69.41       2.94
      118.0    4914.15      64.59       2.92
      118.0    4924.72      65.52        3.2
      118.0    4934.66      63.29       2.94
      118.0    4944.61      62.02       2.63
      118.0    4955.22      61.34       2.92
      118.0    4965.19      61.54       3.09
      118.0    4975.16      64.27       2.84
      118.0    4985.13      59.66       3.04
      118.0    4995.77       62.9       3.34
      118.0    5005.82      62.98       3.14
      118.0    5015.82      76.01       3.96
      118.0    5025.86      84.87        4.2
      118.0    5035.90      82.71         4.
      118.0    5045.97      79.36       3.32
      118.0    5056.65      73.87       3.49
      118.0    5066.72      74.33       3.55
      150.0    2430.02     107.49       4.87
      150.0    2450.10      89.43       4.09
      150.0    2460.24      95.84       4.45
      150.0    2470.38      79.06       3.77
      150.0    2480.51      88.58       4.18
      150.0    2490.69     104.19       4.61
      150.0    2500.90     106.67       4.85
      150.0    2511.14     101.87       4.56
      150.0    2521.37     100.75        4.6
      150.0    2531.64      94.39       4.35
      150.0    2541.48      95.03       4.14
      150.0    2551.75      90.44        4.1
      150.0    2561.66      87.13       3.98
      150.0    2572.00      83.62       3.89
      150.0    2582.36      85.22         4.
      150.0    2592.27      81.19       3.86
      150.0    2602.24      77.28       3.41
      150.0    2612.64      81.07        3.7
      150.0    2622.64      75.99       3.58
      150.0    2632.65      77.62       3.61
      150.0    2658.20      69.26       3.36
      150.0    2683.43      79.11       3.69
      150.0    2708.78      74.09        3.5
      150.0    2734.24      67.65       3.25
      150.0    2759.83       72.9       3.45
      150.0    2785.04       72.1       3.36
      150.0    2810.40      65.92       3.05
      150.0    2835.85      68.48       3.26
      150.0    2860.97      69.76       3.29
      150.0    2886.65      65.65       3.12
      150.0    2911.97      67.84       3.21
      150.0    2936.92      62.37       3.02
      150.0    2962.47       67.8        3.2
      150.0    2987.61      65.19       3.12
      150.0    3013.36       63.6       3.03
      150.0    3036.31      57.24       2.79
      150.0    3063.72      62.57       2.93
      150.0    3089.33      63.09       2.99
      150.0    3113.04      63.61         3.
      150.0    3139.81      64.81       3.03
      150.0    3150.24      59.37       3.03
      150.0    3160.21      59.21       3.01
      150.0    3170.21      69.12       3.25
      150.0    3180.70       82.6       3.85
      150.0    3190.70     190.14       8.13
      150.0    3200.72      98.92        4.5
      150.0    3210.79      44.41        2.3
      150.0    3221.35      48.33       2.35
      150.0    3231.41       47.3       2.37
      150.0    3241.50      46.63       2.36
      150.0    3251.60      50.39       2.45
      150.0    3261.73       46.2       2.31
      150.0    3271.86      44.85       2.22
      150.0    3282.02      44.49       2.26
      150.0    3292.18      45.01       2.26
      150.0    3302.38      43.91       2.21
      150.0    3312.57      43.81       2.21
      150.0    3322.27      41.92       2.15
      150.0    3332.53      44.96       2.29
      150.0    3342.76      39.48       2.08
      150.0    3353.01      34.76       1.66
      150.0    3363.31      31.71       1.52
      150.0    3373.07      25.14        1.2
      150.0    3383.40      14.95       0.75
      150.0    3393.69      21.62       1.12
      150.0    3403.52      41.14       2.07
      150.0    3413.88      54.73       2.68
      150.0    3423.74      64.95       3.14
      150.0    3434.13      64.54       3.08
      150.0    3443.99      69.19       3.28
      150.0    3454.41      73.74       3.59
      150.0    3464.31      78.36        3.7
      150.0    3479.48      85.78        3.9
      150.0    3495.18      78.93       3.77
      150.0    3509.86      78.63       3.85
      150.0    3525.13      77.62       3.79
      150.0    3540.40      77.98       3.67
      150.0    3555.70      80.62       3.76
      150.0    3571.08      84.16       4.06
      150.0    3586.44      86.12         4.
      150.0    3601.31      84.19       3.94
      150.0    3616.75      86.36       4.04
      150.0    3631.71      86.07         4.
      150.0    3647.22      88.05        4.2
      150.0    3662.22      85.73       4.01
      150.0    3677.25      89.65       4.07
      150.0    3692.86      91.98       4.22
      150.0    3707.96      95.83       4.45
      150.0    3723.09     101.77       4.58
      150.0    3738.23     102.76       4.51
      150.0    3753.43      113.3       4.97
      150.0    3768.66     122.32       5.07
      150.0    3783.89     128.04        5.8
      150.0    3799.20     149.64       6.81
      150.0    3814.49     166.34       7.54
      150.0    3829.29     177.44       7.77
      150.0    3844.66     228.07      10.29
      150.0    3860.05     262.39      11.88
      150.0    3874.95     240.36      10.67
      150.0    3890.41     185.98       8.05
      150.0    3905.35     150.29       7.06
      150.0    3920.88     120.78        5.8
      150.0    3935.87     115.21       5.55
      150.0    3951.44      92.66       4.27
      150.0    3961.49      79.41       3.68
      150.0    3971.51      79.08       3.62
      150.0    3981.60      73.75       3.51
      150.0    3991.64      79.39       3.61
      150.0    4001.74       79.4       3.69
      150.0    4011.82        79.       3.63
      150.0    4021.93      76.47        3.6
      150.0    4032.62      69.07       3.25
      150.0    4042.77      71.21       3.32
      150.0    4052.90      75.37       3.54
      150.0    4062.51       71.9       3.39
      150.0    4072.66      69.96       3.39
      150.0    4082.85      67.34       3.25
      150.0    4093.06      76.71        3.8
      150.0    4103.25      72.74       3.44
      150.0    4113.47       68.6       3.28
      150.0    4124.84      72.68       3.62
      150.0    4133.97      84.81       4.77
      150.0    4143.66      77.89       4.16
      150.0    4153.94      82.53       4.11
      150.0    4164.22      81.02       4.25
      150.0    4174.50      92.89       4.98
      150.0    4184.25     125.41       7.18
      150.0    4194.57     116.02        6.1
      150.0    4204.89      92.61       5.18
      150.0    4214.67      62.59       3.54
      150.0    4225.02      63.79       3.74
      150.0    4235.40       62.3       3.42
      150.0    4245.22      65.61       3.45
      150.0    4255.60      59.41       3.16
      150.0    4265.42      62.56       3.43
      150.0    4275.86      58.63       3.19
      150.0    4285.72      60.97       3.45
      150.0    4296.16      67.44        3.6
      150.0    4306.01      60.49       3.23
      150.0    4316.50       66.1       3.52
      150.0    4326.41      63.03        3.4
      150.0    4336.29      65.51       3.48
      150.0    4346.81      62.72       3.51
      150.0    4356.75      65.77       3.58
      150.0    4377.25      66.19       3.68
      150.0    4397.18        67.       3.87
      150.0    4417.77      68.62       3.95
      150.0    4437.80      64.67       3.71
      150.0    4458.46      62.85       3.51
      150.0    4478.58      64.51       3.66
      150.0    4498.78      66.21        3.8
      150.0    4519.01      67.77       3.83
      150.0    4539.26      66.82        3.8
      150.0    4559.55      70.55       3.51
      150.0    4569.73      80.44       4.06
      150.0    4579.90      80.87       4.39
      150.0    4590.12      72.95       3.94
      150.0    4600.33      79.76       4.78
      150.0    4610.54      66.87       3.77
      150.0    4620.15      66.55       3.93
      150.0    4630.40      68.59       3.93
      150.0    4640.64      79.38       4.61
      150.0    4650.92      83.98       5.08
      150.0    4661.16      83.24        5.2
      150.0    4670.85      83.73        5.2
      150.0    4681.15      91.63       5.57
      150.0    4691.46      93.08       5.24
      150.0    4701.77      97.35       5.07
      150.0    4711.49     104.61       5.99
      150.0    4721.83     104.96       6.29
      150.0    4732.16      96.34       5.56
      150.0    4741.91     118.62       5.96
      150.0    4752.28     104.61         6.
      150.0    4762.07      96.83       5.39
      150.0    4772.47      89.66       5.59
      150.0    4782.84      84.71       5.14
      150.0    4792.65      65.88       4.32
      150.0    4803.10      58.32       3.61
      150.0    4812.91      49.29       3.31
      150.0    4823.35      41.25       3.02
      150.0    4833.19      40.31       2.99
      150.0    4843.66      34.72        2.6
      150.0    4853.54      33.11       2.07
      150.0    4864.01      31.35       2.16
      150.0    4873.89      38.34       2.78
      150.0    4883.79      42.18       2.82
      150.0    4894.31      51.35       3.29
      150.0    4904.25      52.35       3.78
      150.0    4914.15       52.8       3.78
      150.0    4924.72      58.57       4.33
      150.0    4934.66      57.74       3.95
      150.0    4944.61       60.3       4.28
      150.0    4955.22      66.44        4.8
      150.0    4965.19       59.8       4.67
      150.0    4975.16      60.83       4.69
      150.0    4985.13      63.34       4.76
      150.0    4995.77       69.3        5.4
      150.0    5005.82       69.6       5.27
      150.0    5015.82     103.47       7.74
      150.0    5025.86     120.64       8.83
      150.0    5035.90     138.51      10.39
      150.0    5045.97     114.74       7.86
      150.0    5056.65     116.87       8.06
      150.0    5066.72     116.37       7.95
      165.0    2430.02      96.72       4.16
      165.0    2450.10      88.31       3.83
      165.0    2450.10      88.31       3.83
      165.0    2460.24      87.62       3.84
      165.0    2470.38       70.6       3.16
      165.0    2480.51      86.22       3.75
      165.0    2490.69      101.4       4.34
      165.0    2500.90       98.8       4.24
      165.0    2511.14       90.1       3.83
      165.0    2521.37      90.94       3.82
      165.0    2531.64      85.99       3.74
      165.0    2541.48      96.06       3.97
      165.0    2551.75       84.1       3.67
      165.0    2561.66      86.07       3.72
      165.0    2572.00      77.81       3.39
      165.0    2582.36      74.22        3.3
      165.0    2592.27      77.66       3.42
      165.0    2602.24      79.09       3.34
      165.0    2612.64      73.83       3.24
      165.0    2622.64      75.28       3.31
      165.0    2632.65       74.9       3.33
      165.0    2658.20      67.62       3.04
      165.0    2683.43      69.86       3.05
      165.0    2708.78      66.18       2.96
      165.0    2734.24      64.34       3.01
      165.0    2759.83      65.79        2.9
      165.0    2785.04      63.77       2.81
      165.0    2810.40      64.94       2.87
      165.0    2835.85      58.99       2.63
      165.0    2860.97      62.49       2.77
      165.0    2886.65       61.8       2.76
      165.0    2911.97      59.45       2.63
      165.0    2936.92      60.11       2.68
      165.0    2962.47      60.41       2.65
      165.0    2987.61      59.17       2.62
      165.0    3013.36       57.3       2.49
      165.0    3036.31      59.15       2.64
      165.0    3063.72      57.41       2.53
      165.0    3089.33       57.3       2.52
      165.0    3113.04      63.76       2.82
      165.0    3139.81      60.71       2.67
      165.0    3150.24      63.61       2.96
      165.0    3160.21       69.7       3.41
      165.0    3170.21      73.75       3.32
      165.0    3180.70     104.44       4.61
      165.0    3190.70      244.5      10.38
      165.0    3200.72     113.09       4.94
      165.0    3210.79      39.32       1.99
      165.0    3221.35      43.78       2.12
      165.0    3231.41       45.1        2.2
      165.0    3241.50      43.31       2.09
      165.0    3251.60      44.35       2.16
      165.0    3261.73       45.4       2.18
      165.0    3271.86      43.41       2.12
      165.0    3282.02      43.54       2.17
      165.0    3292.18      45.43       2.35
      165.0    3302.38       46.2       2.24
      165.0    3312.57      40.83       2.04
      165.0    3322.27      37.46       1.91
      165.0    3332.53      39.71       1.98
      165.0    3342.76      36.51       1.86
      165.0    3353.01      34.62       1.61
      165.0    3363.31      30.81       1.44
      165.0    3373.07       24.6       1.11
      165.0    3383.40      15.69       0.71
      165.0    3393.69      20.85       1.02
      165.0    3403.52      40.17       1.99
      165.0    3413.88      55.73       2.66
      165.0    3423.74       60.6        2.9
      165.0    3434.13      67.01       3.09
      165.0    3443.99      75.61        3.5
      165.0    3454.41      76.09       3.64
      165.0    3464.31      74.98       3.58
      165.0    3479.48      80.04       3.59
      165.0    3495.18      82.45       3.85
      165.0    3509.86      82.82       3.86
      165.0    3525.13       92.8       4.43
      165.0    3540.40      88.65       4.13
      165.0    3555.70      86.27       3.98
      165.0    3571.08      87.54        4.1
      165.0    3586.44      80.75       3.66
      165.0    3601.31      88.41       4.13
      165.0    3616.75      92.04       4.29
      165.0    3631.71      89.57       4.02
      165.0    3647.22      89.54       4.21
      165.0    3662.22       92.1       4.31
      165.0    3677.25      97.37       4.38
      165.0    3692.86     101.32       4.54
      165.0    3707.96     104.01       4.81
      165.0    3723.09     107.94       4.82
      165.0    3738.23     111.95       4.82
      165.0    3753.43      129.6       5.62
      165.0    3768.66     132.96       5.43
      165.0    3783.89      142.9       6.25
      165.0    3799.20     169.67       7.57
      165.0    3814.49     206.58       9.35
      165.0    3829.29     235.58      10.68
      165.0    3844.66     291.35      13.31
      165.0    3860.05     318.99      14.14
      165.0    3874.95     345.59      16.11
      165.0    3890.41     262.91      11.81
      165.0    3905.35      199.8       10.5
      165.0    3920.88     139.98       6.92
      165.0    3935.87     111.35       5.38
      165.0    3951.44      84.93       3.85
      165.0    3961.49       77.9        3.7
      165.0    3971.51      76.68       3.56
      165.0    3981.60       69.2       3.34
      165.0    3991.64      70.47       3.19
      165.0    4001.74      79.24       3.67
      165.0    4011.82      70.66       3.18
      165.0    4021.93      70.35       3.38
      165.0    4032.62       69.3       3.26
      165.0    4042.77      80.24       3.62
      165.0    4052.90      65.08       3.04
      165.0    4062.51      67.73       3.16
      165.0    4072.66      62.06       3.01
      165.0    4082.85      69.66       3.37
      165.0    4093.06      71.26       3.48
      165.0    4103.25      72.88       3.48
      165.0    4113.47      72.89       3.69
      165.0    4124.84      72.56        3.8
      165.0    4133.97      75.98       4.34
      165.0    4143.66      77.47       4.22
      165.0    4153.94      77.69       4.02
      165.0    4164.22      80.57       4.21
      165.0    4174.50       92.2       4.73
      165.0    4184.25     107.08        5.2
      165.0    4194.57     133.77       6.73
      165.0    4204.89      89.74       4.35
      165.0    4214.67      73.24       3.69
      165.0    4225.02      62.73       3.64
      165.0    4235.40      56.97       3.04
      165.0    4245.22      62.56       3.31
      165.0    4255.60      65.24       3.28
      165.0    4265.42      69.07       3.82
      165.0    4275.86      69.94       3.69
      165.0    4285.72      76.74        4.4
      165.0    4296.16      68.37       3.61
      165.0    4306.01      66.57       3.54
      165.0    4316.50      65.89       3.43
      165.0    4326.41      75.19       3.99
      165.0    4336.29      72.35       3.77
      165.0    4346.81      61.53       3.27
      165.0    4356.75       69.8       3.69
      165.0    4377.25      69.73       3.69
      165.0    4397.18      68.27       3.56
      165.0    4417.77      68.31       3.77
      165.0    4437.80      70.78       3.94
      165.0    4458.46      65.53       3.72
      165.0    4478.58      68.35       3.79
      165.0    4498.78      74.51       4.38
      165.0    4519.01      75.37       4.74
      165.0    4539.26      77.83       4.96
      165.0    4559.55      74.34       4.05
      165.0    4569.73      87.66       4.45
      165.0    4579.90      69.44       3.44
      165.0    4590.12      73.47       3.84
      165.0    4600.33      79.42       4.66
      165.0    4610.54      70.71        3.8
      165.0    4620.15      68.04       3.95
      165.0    4630.40      61.83       3.46
      165.0    4640.64      73.18       4.13
      165.0    4650.92      71.51       4.34
      165.0    4661.16      85.79       5.14
      165.0    4670.85       75.2       4.46
      165.0    4681.15      71.34       3.81
      165.0    4691.46      73.49       4.05
      165.0    4701.77      79.25       3.97
      165.0    4711.49      76.26       3.99
      165.0    4721.83      72.41         4.
      165.0    4732.16        95.       5.59
      165.0    4741.91     123.04       6.56
      165.0    4752.28      128.4       7.99
      165.0    4762.07      112.7       6.95
      165.0    4772.47     119.72       8.01
      165.0    4782.84      93.97       5.91
      165.0    4792.65       83.9       6.18
      165.0    4803.10      64.37       4.59
      165.0    4812.91      52.37       4.29
      165.0    4823.35      41.42        3.6
      165.0    4833.19      35.28       3.02
      165.0    4843.66      35.35       3.18
      165.0    4853.54      31.09       1.94
      165.0    4864.01      28.58       2.19
      165.0    4873.89      25.67       1.97
      165.0    4883.79      30.44       2.15
      165.0    4894.31      36.76       2.67
      165.0    4904.25      49.81       4.29
      165.0    4914.15      62.89       5.27
      165.0    4924.72      47.33       4.08
      165.0    4934.66      59.87        5.1
      165.0    4944.61      42.38       3.46
      165.0    4955.22      53.48       4.82
      165.0    4965.19      59.54       6.55
      165.0    4975.16       49.8       4.81
      165.0    4985.13       47.8       4.53
      165.0    4995.77      60.32       6.35
      165.0    5005.82      70.82       8.13
      165.0    5015.82     111.81      12.71
      165.0    5025.86     133.61      13.54
      165.0    5035.90      133.7      10.77
      165.0    5045.97     134.74      10.68
      165.0    5056.65     135.96      12.04
      165.0    5066.72     111.94       9.61
ENDDATA            615
ENDSUBENT          621
ENDENTRY             2
