ENTRY            G4066   20190206   20190722   20190719       G043
SUBENT        G4066001   20190206   20190722   20190719       G043
BIB                 11         14
TITLE      Photodisintegration of C12 at gamma-ray energies from
           250 to 1200 MeV
AUTHOR     (S.G.Tonapetyan,N.V.Goncharov,A.I.Derebchinskii,
           O.G.Konovalov,V.M.Khvorostyan)
INSTITUTE  (4UKRKFT)
REFERENCE  (J,ZET,63,1955,1972)
           (J,JET,36,1033,1973) English translation
FACILITY   (LINAC,4UKRKFT)
INC-SOURCE (BRST)
METHOD     (EXTB,SITA)
DETECTOR   (TRD)
ERR-ANALYS (ERR-S) Statistical errors
STATUS     (CURVE) Digitized by GSYS2.4.7.
HISTORY    (20190206C) UkrNDC
ENDBIB              14
NOCOMMON             0          0
ENDSUBENT           17
SUBENT        G4066002   20190206   20190722   20190719       G043
BIB                  2          2
REACTION   (6-C-12(G,X)1-H-1,,DA/DE,,BRA)
STATUS     (CURVE) Correspond to Fig.1 in JETP 36(1973)1033
ENDBIB               2
COMMON               1          3
ANG
ADEG
90.
ENDCOMMON            3
DATA                 4        121
EN-MAX     E          DATA       ERR-S
MEV        MEV        MUB/SR/MEV MUB/SR/MEV
110.           35.0827    79.6530     2.0790
110.           45.3417    36.4610     2.1890
110.           53.8902    15.6860     2.2170
110.           62.3579     8.7950     2.2200
110.           71.8761     2.4440     0.9230
250.           74.3830    30.7650     3.5540
250.           83.9629    19.8980     3.0790
250.           94.2156    18.0330     2.8410
250.          104.0060    14.9830     2.8420
250.          114.5039     8.8550     2.1320
250.          124.2821    10.0680     2.6060
250.          134.5464     4.1770     2.1330
250.          144.6829     3.0380     1.8810
250.          154.3472     2.5780     1.1840
250.          165.1679     1.4970     1.0670
293.           39.1309   167.6980     6.9390
293.           53.9103    99.9040     7.0230
293.           65.4818    75.3570     6.7870
293.           74.1001    60.7670     3.7900
293.           83.8799    43.8800     2.9260
293.           93.8591    32.6810     2.7700
293.          104.3793    28.1240     2.6060
293.          114.3251    22.0320     2.6700
293.          124.2959    16.7070     2.1360
293.          134.6361    11.1140     3.0790
293.          144.6391     8.9970     2.1320
293.          154.6421     6.8800     2.1320
293.          164.8787     4.0520     2.3690
293.          174.6567     2.3640
293.          184.0970     1.3100
400.           73.8192    94.7970
400.           84.3149    75.3730     4.2640
400.           94.3440    70.1620     3.0790
400.          104.3470    52.3300     2.6710
400.          114.4023    46.4750     3.3160
400.          124.4315    39.1320     3.3160
400.          134.3238    28.3010     2.6690
400.          144.8419    23.4950     3.7390
400.          154.3082    18.1550     3.2040
400.          164.3005    15.4850     3.2040
400.          174.3440    10.4710     2.6060
400.          184.8108     9.6110
400.          193.7512     5.8730
400.          204.2694     4.2710
400.          214.2616     2.6700
400.          224.2538     2.1360
400.          235.2979     1.0680     1.0670
600.           56.7234   156.3002     5.1495
600.           67.7454   127.1487     4.5773
600.           79.5819   115.9600     4.2720
600.           90.5607    96.5580     3.7900
600.          104.0764    77.3920     4.2640
600.          113.7496    57.8080     2.6680
600.          117.9316    66.8920     3.7400
600.          124.1044    57.7620     3.7900
600.          134.2155    47.1590     3.7380
600.          144.3626    39.7900     2.1320
600.          154.1556    37.5770     2.1380
600.          164.1325    27.9800     2.1360
600.          174.6338    18.3830     2.6720
600.          184.0787    14.1260     1.0680
600.          195.0905    14.1420     1.6040
600.          204.0119     9.3500     0.5360
600.          214.4993     9.3650     1.0700
600.          224.4108     6.0360     0.9470
600.          234.4326     4.5890     1.0680
800.           67.3769   161.4780     5.1488
800.           78.6649   138.0490     4.2913
800.           91.0906   126.6300     4.8050
800.           98.3608   119.7918     4.2913
800.          104.0296    98.3504     3.7191
800.          108.7446    91.6040     4.2630
800.          113.8937    82.9279     3.7191
800.          124.0208    74.3723     2.5748
800.          134.3048    54.6550     2.6710
800.          144.8143    51.4740     2.6710
800.          154.2850    42.9530     2.1380
800.          164.5276    34.6540     3.3150
800.          174.7971    28.0500     1.6000
800.          184.7838    23.8010     2.1380
800.          194.2454    19.5510     2.6710
800.          204.7606    13.7020     1.0660
800.          215.2656    12.6580     1.6050
800.          224.7250     9.4740     1.0700
800.          235.2346     6.2940     0.5370
1000.          52.9361   210.3604     6.5799
1000.          59.4259   197.2176     4.8634
1000.          66.1846   188.6530     6.2938
1000.          73.5187   174.6543     6.0078
1000.          83.4068   149.7911     4.8634
1000.          93.8330   134.0840     6.2938
1000.         103.9733   120.3788     3.4330
1000.         106.5245   110.6587     4.8634
1000.         113.5683   100.3783     6.5799
1000.         117.8088    88.6600     4.8634
1000.         125.4333    82.6860     3.6400
1000.         133.5844    66.6733     4.5773
1000.         143.7094    58.9759     2.5748
1000.         154.1107    52.9957     3.1469
1000.         164.5200    43.8686     2.8608
1000.         184.7692    28.7598     2.2887
1000.         194.4926    19.4870     2.0220
1000.         204.8334    16.0640     0.6070
1000.         215.2050    14.1590     0.5300
1000.         224.6575    11.5010     1.0586
1000.         235.1584     9.9140     1.0680
1200.          93.9424   145.6770     7.0780
1200.         103.3441   125.2830     6.8770
1200.         114.1384   110.8470     5.7500
1200.         124.3214    87.9420     4.6510
1200.         134.0995    74.0210     3.2360
1200.         144.1773    68.2290     3.7380
1200.         154.2165    57.1010     4.2470
1200.         163.9848    46.2130     4.8530
1200.         174.3341    39.9790     5.0560
1200.         184.8970    29.0940     4.4490
1200.         194.6348    27.7110     4.2470
1200.         205.1788    21.9770     3.2040
1200.         214.7251    19.0820     3.6400
1200.         225.0691    14.4660     3.2360
1200.         235.2035    13.2860     4.2470
ENDDATA            123
ENDSUBENT          134
ENDENTRY             2
