ENTRY            F0545   20120405   20121218   20121204       F046
SUBENT        F0545001   20120405   20121218   20121204       F046
BIB                  8         19
TITLE      The Mg-25(p,g)Al-26 and Mg-25(p,p') resonances for
           Ep=0.31-1.84 MeV
AUTHOR     (P.M.Endt,P.de Wit,C.Alderliesten)
INSTITUTE  (2NEDUTR)
REFERENCE  (J,NP/A,459,61,1986)
FACILITY   (VDG,2NEDUTR)
DETECTOR   (GE-IN) The 90 cm2 n-type Ge detector at an angle
           of 55 degree to the beam and a front-face-to-target
           distance of 3 cm.
SAMPLE     Three enriched Mg targets (Mg-24 1.36%, Mg-25 98.25%,
           Mg-26 0.39%) have been used of thicknesses of
           5-10 mu-g/cm2 evaporated onto 0.3 mm thick Na-free Ta
           backings. Finally, the three strong resonances were
           remeasured with one and the same, relatively thick,
           target (14 mu-g/cm2) to interconnect the yields
           measured with different targets.
HISTORY    (20030424C)
           (20120405A) REACTION code in Sub 004 was changed,
           COMMON in Sub 004 was added.
ENDBIB              19
NOCOMMON             0          0
ENDSUBENT           22
SUBENT        F0545002   20030807   20050616   20050926       0000
BIB                  3          4
REACTION  1(12-MG-25(P,0),,EN)
          2(12-MG-25(P,G),,WID/STR)
ERR-ANALYS (DATA-ERR) Error in the data definition
STATUS     (TABLE) tbl.1
ENDBIB               4
NOCOMMON             0          0
DATA                 4         76
DATA      1DATA-ERR  1DATA      2DATA-ERR  2
KEV        KEV        EV         EV
 316.70    0.50000    0.43000    0.50000E-01
 389.60    0.50000    0.88000    0.80000E-01
 435.10    0.50000     1.5700    0.19000
 497.00    0.50000     1.0400    0.15000
 502.80    0.50000    0.86000    0.11000
 515.10    0.50000    0.58000    0.90000E-01
 515.60    0.50000    0.23000    0.90000E-01
 530.30    0.50000    0.40000E-03
 532.50    0.50000    0.25000    0.20000E-01
 567.40    0.50000     3.8000    0.40000
 591.20    0.50000    0.14000    0.60000E-01
 592.70    0.50000     2.6000    0.20000
 609.30    0.50000    0.17000E-010.70000E-02
 655.60    0.50000    0.39000    0.40000E-01
 685.00    0.50000     5.6000    0.80000E-01
 722.90    0.50000     2.2000    0.20000
 737.60    0.50000    0.37000    0.50000E-01
 775.20    0.50000     1.6000    0.13000
 811.40    0.50000     1.7000    0.30000
 818.50    0.50000    0.19000    0.20000
 835.10    0.50000    0.52000    0.40000E-01
 869.50    0.50000    0.69000    0.70000E-01
 881.00    0.50000     3.9000    0.40000
 889.50    0.50000    0.60000    0.50000E-01
 896.40    0.50000    0.54000    0.50000E-01
 928.40    0.50000     4.0000    0.40000
 953.40    0.50000     7.6000    0.70000
 969.30    0.50000    0.75000    0.11000
 985.80    0.50000     8.7000    0.11000
 1019.1    0.50000    0.41000E-010.15000E-01
 1025.1    0.50000     3.1000    0.30000E-01
 1042.7    0.50000     8.3000    0.70000E-01
 1083.9    0.50000     5.7000    0.60000E-01
 1103.0    0.50000     2.8000    0.30000E-01
 1134.9    0.50000     1.2500    0.12000
 1136.8    0.50000     5.6000    0.60000
 1148.1    0.50000     4.4000    0.70000
 1164.2    0.50000     2.4000    0.30000
 1179.2    0.50000    0.50000E-010.20000E-01
 1184.1    0.50000    0.39000    0.30000E-01
 1195.7    0.50000     4.5000    0.40000
 1205.2    0.50000     5.3000    0.70000
 1237.3    0.50000     8.3000     1.1000
 1239.0    0.20000     1.7000    0.30000
 1272.6    0.50000    0.10000    0.40000E-01
 1283.3    0.50000     3.7000     1.0000
 1292.3    0.50000    0.21000    0.50000E-01
 1302.1    0.60000     4.3000    0.80000
 1305.8    0.50000     13.000     2.0000
 1337.4    0.50000     1.0000    0.30000
 1342.1    0.50000     2.9000    0.30000
 1351.2    0.50000     1.2000    0.20000
 1369.8    0.50000     1.4000    0.30000
 1374.8    0.50000     14.900    0.12000
 1395.9    0.60000    0.12000E-010.30000E-02
 1514.6    0.50000     1.2000    0.40000
 1525.4    0.50000     2.9000    0.40000
 1526.0    0.20000    0.70000E-010.20000E-01
 1568.4    0.50000     1.2000    0.30000
 1579.9    0.50000     1.1000    0.30000
 1587.2    0.50000     8.2000     1.0000
 1621.9    0.60000     3.7000     1.2000
 1631.6    0.50000     7.2000    0.60000
 1637.1    0.60000     1.2000    0.20000
 1649.1    0.50000     35.000     3.0000
 1680.4    0.50000    0.40000    0.20000
 1698.7    0.50000     25.000     3.0000
 1713.8    0.50000     38.000     3.0000
 1744.0    0.20000     14.800     1.5000
 1763.0    0.50000     1.1000    0.20000
 1770.8    0.50000     2.3000    0.40000
 1773.9    0.50000     2.4000    0.80000
 1799.5    0.60000    0.18000    0.30000E-01
 1810.9    0.50000    0.90000    0.20000
 1829.0    0.20000     7.6000     1.5000
 1832.5    0.50000     2.3000    0.70000
ENDDATA             78
ENDSUBENT           87
SUBENT        F0545003   20030807   20050616   20050926       0000
BIB                  3          4
REACTION  1(12-MG-25(P,0),,EN)
          2(12-MG-25(P,INL),PAR,WID/STR)
ERR-ANALYS (DATA-ERR) Error in the data definition
STATUS     (TABLE) tbl.1
ENDBIB               4
NOCOMMON             0          0
DATA                 5         45
E-LVL      DATA      1DATA-ERR  1DATA      2DATA-ERR  2
KEV        KEV        EV         EV         EV
 585.00     985.80    0.50000    0.90000    0.20000
 585.00     1019.1    0.50000    0.90000E-010.20000E-01
 585.00     1134.9    0.50000    0.18000    0.30000E-01
 585.00     1136.8    0.50000    0.70000E-010.13000E-01
 585.00     1148.1    0.50000    0.50000E-010.20000E-01
 585.00     1164.2    0.50000    0.13000E-010.40000E-02
 585.00     1179.2    0.50000     1.0000    0.20000
 585.00     1184.1    0.50000     30.000     3.0000
 585.00     1195.7    0.50000     4.5000    0.40000
 585.00     1239.0    0.20000     46.000     5.0000
 585.00     1283.3    0.50000     490.00     50.000
 585.00     1302.1    0.60000     1.9000    0.40000
 585.00     1305.8    0.50000     3.6000    0.60000
 585.00     1351.2    0.50000     27.000     4.0000
 585.00     1369.8    0.50000     32.000     6.0000
 585.00     1395.9    0.60000     3.8000    0.60000
 585.00     1514.6    0.50000    0.80000    0.20000
 585.00     1526.0    0.20000     19.000     4.0000
 585.00     1568.4    0.50000     2100.0     400.00
 585.00     1637.1    0.60000     480.00     100.00
 585.00     1698.7    0.50000     13.000     2.0000
 585.00     1744.0    0.20000     26.000     3.0000
 585.00     1763.0    0.50000     520.00     100.00
 585.00     1770.8    0.50000     54.000     12.000
 585.00     1799.5    0.60000     120.00     20.000
 585.00     1810.9    0.50000     25.000     6.0000
 975.00     1302.1    0.60000    0.31000E-010.60000E-02
 975.00     1305.8    0.50000    0.46000    0.11000
 975.00     1351.2    0.50000    0.22000    0.50000E-01
 975.00     1369.8    0.50000    0.27000E-010.60000E-01
 975.00     1514.6    0.50000     2.0000    0.40000
 975.00     1526.0    0.20000     1.1000    0.30000
 975.00     1568.4    0.50000     52.000     12.000
 975.00     1587.2    0.50000     1.1000    0.30000
 975.00     1631.6    0.50000     2.7000     1.0000
 975.00     1637.1    0.60000     49.000     10.000
 975.00     1649.1    0.50000     1.1000    0.30000
 975.00     1698.7    0.50000     11.000     2.0000
 975.00     1744.0    0.20000     4.6000    0.50000
 975.00     1763.0    0.50000     16.000     3.0000
 975.00     1770.8    0.50000     90.000     20.000
 975.00     1799.5    0.60000     21.000     5.0000
 975.00     1810.9    0.50000     88.000     20.000
 975.00     1829.0    0.20000     750.00     150.00
 975.00     1831.0    0.20000     130.00     35.000
ENDDATA             47
ENDSUBENT           56
SUBENT        F0545004   20120405   20121218   20121204       F046
BIB                  5          7
REACTION   (12-MG-25(P,G)13-AL-26,PAR,DA,,REL)
EN-SEC     (E-MIN,G)
           (E-MAX,G)
ERR-ANALYS (EN-ERR-DIG) Energy digitizing error
           (ERR-DIG)    Data digitizing error
STATUS     (CURVE) Fig.1(a,b)
COMMENT    Data are measured in the number of counts (10**4/3 mC)
ENDBIB               7
COMMON               5          3
ANG        E-MIN      E-MAX      EN-ERR-DIG ERR-DIG
ADEG       MEV        MEV        KEV        ARB-UNITS
  55.        1.2        8.1        1.         0.003
ENDCOMMON            3
DATA                 2       1159
EN         DATA
KEV        ARB-UNITS
     310.02    0.11295
     311.78 8.6353E-02
     313.11 7.7418E-02
     315.32 8.6021E-02
     316.31    0.55290
     317.22    0.64973
     318.97    0.54384
     319.35    0.29710
     320.65    0.19125
     321.52    0.12949
     322.84 9.4127E-02
     324.61 8.5150E-02
     325.94 7.6215E-02
     328.15 6.7198E-02
     330.36 7.5801E-02
     332.13 8.4445E-02
     334.35 8.4238E-02
     336.56 8.4031E-02
     338.33 9.2675E-02
     339.68    0.17185
     340.57    0.18938
     341.88    0.14521
     343.65    0.11861
     345.41    0.10082
     347.18 9.1846E-02
     348.50 8.2911E-02
     350.27 7.3935E-02
     352.48 7.3727E-02
     354.25 6.4751E-02
     356.46 6.4543E-02
     358.68 7.3147E-02
     360.89 6.4129E-02
     363.10 6.3921E-02
     365.75 5.4862E-02
     367.97 5.4655E-02
     370.18 5.4447E-02
     372.39 4.5429E-02
     374.60 4.5222E-02
     376.81 4.5015E-02
     379.03 4.4807E-02
     380.79 3.5831E-02
     382.57 4.4476E-02
     384.78 4.4268E-02
     386.99 4.4061E-02
     388.89    0.59015
     390.75    0.98645
     392.01    0.69558
     393.71    0.38705
     394.55    0.19313
     395.86    0.11372
     397.18 8.7160E-02
     398.50 5.1793E-02
     400.26 3.4006E-02
     402.91 7.3258E-03
     405.13 1.5929E-02
     407.34 1.5722E-02
     409.11 1.5556E-02
     411.32 1.5348E-02
     413.53 1.5141E-02
     415.30 1.4975E-02
     417.07 1.4809E-02
     419.28 1.4602E-02
     421.94 1.4353E-02
     424.15 1.4146E-02
     425.92 2.2790E-02
     427.69 1.3814E-02
     429.90 1.3607E-02
     432.56 1.3358E-02
     433.96    0.32160
     434.10    0.90310
     435.01    1.01750
     435.88    0.94698
     436.29    0.81478
     436.68    0.62091
     437.53    0.43581
     437.94    0.30361
     439.23    0.14489
     440.09 7.4326E-02
     441.85 3.0108E-02
     444.06 1.2280E-02
     445.83 1.2114E-02
     447.60 2.0758E-02
     449.82 2.0551E-02
     452.03 2.9154E-02
     452.92 6.4313E-02
     455.13 4.6485E-02
     456.01 1.9970E-02
     458.22 1.0952E-02
     460.44 1.9556E-02
     462.65 1.9348E-02
     464.86 1.9141E-02
     466.63 1.8975E-02
     468.84 1.8768E-02
     471.50 1.8519E-02
     473.71 1.8311E-02
     475.48 2.6956E-02
     477.69 2.6749E-02
     479.91 2.6541E-02
     482.12 1.7523E-02
     483.01 4.3872E-02
     483.90 7.9031E-02
     485.66 3.4813E-02
     486.54 8.2983E-03
     489.20 2.5670E-02
     490.97 1.6694E-02
     493.62 1.6445E-02
     495.39 1.6279E-02
     497.60 1.6072E-02
     498.72    0.99396
     499.10    0.74722
     500.80    0.44750
     501.20    0.25362
     502.51    0.20064
     503.98    0.78201
     505.69    0.54396
     506.52    0.29718
     507.37    0.17375
     508.24    0.10318
     509.12 6.7857E-02
     511.33 5.8839E-02
     513.98 4.9780E-02
     514.88    0.10256
     515.04    0.76335
     516.35    0.70155
     516.37    0.79847
     517.17    0.43715
     517.21    0.59574
     518.01    0.26086
     518.03    0.34896
     518.88    0.18148
     519.31    0.13739
     520.63 9.3210E-02
     521.51 5.7885E-02
     523.27 4.0098E-02
     525.49 4.8701E-02
     526.81 4.8577E-02
     528.58 4.8411E-02
     530.79 3.9393E-02
     533.01 4.7996E-02
     533.07    0.31231
     534.39    0.25932
     534.81    0.18880
     536.12    0.12700
     536.99 6.5244E-02
     538.31 2.9878E-02
     540.53 3.8481E-02
     542.30 2.9504E-02
     544.51 3.8108E-02
     546.72 2.9090E-02
     548.49 3.7734E-02
     550.70 2.8716E-02
     552.92 3.7320E-02
     554.69 3.7154E-02
     556.90 3.6946E-02
     559.11 3.6739E-02
     561.77 3.6490E-02
     563.54 3.6324E-02
     565.75 6.8266E-02
     567.96 8.9774E-02
     568.26    3.30560
     569.59    3.23920
     569.94    2.27000
     570.73    1.32260
     572.00    0.68355
     572.85    0.33092
     574.16    0.13238
     576.37 8.7804E-02
     578.58 3.4914E-02
     580.35 4.3559E-02
     583.01 4.3310E-02
     585.22 4.3103E-02
     585.92 4.3024E-02
     587.05 4.2429E-02
     587.43 4.2895E-02
     588.19 4.1834E-02
     589.10 2.6653E-02
     589.20 4.2729E-02
     590.01 4.0881E-02
     590.47    0.14358
     590.93    0.18746
     590.97 5.1374E-02
     591.61    0.14298
     592.33    2.26030
     592.34    0.20103
     593.03    2.39230
     593.68    2.18600
     593.72    2.31550
     594.14    2.22730
     594.34    1.96510
     594.74    1.53840
     595.29    1.48710
     595.39    1.25870
     596.23    0.72880
     596.46    0.79096
     597.10    0.40482
     597.20    0.20057
     597.24    0.37678
     598.21    0.19835
     598.51    0.10353
     599.79 9.4583E-02
     600.69 6.4697E-02
     600.71 6.8083E-02
     601.60 3.4811E-02
     602.48 5.9106E-02
     602.96 3.4096E-02
     604.24 3.2509E-02
     605.68 2.4855E-02
     606.01 4.1154E-02
     606.77 2.6601E-02
     607.64 2.7910E-02
     608.08 2.9658E-02
     608.23 4.0946E-02
     608.95 3.7094E-02
     609.18 4.7596E-02
     609.55 4.0822E-02
     609.62 5.3283E-02
     609.84 5.0656E-02
     610.49 4.9341E-02
     610.92 4.7588E-02
     611.32 4.0656E-02
     611.79 4.2333E-02
     613.08 3.2699E-02
     613.53 3.1638E-02
     614.38 2.7442E-02
     615.30 3.1472E-02
     615.68 2.4373E-02
     617.51 2.2454E-02
     617.63 2.3051E-02
     619.73 3.1057E-02
     622.38 3.0809E-02
     624.15 3.0643E-02
     626.37 3.0435E-02
     628.58 3.0228E-02
     630.79 3.8831E-02
     633.00 2.9813E-02
     635.21 2.9606E-02
     637.87 2.9357E-02
     640.08 3.7960E-02
     642.30 3.7753E-02
     644.06 2.8777E-02
     646.28 3.7380E-02
     648.49 3.7172E-02
     650.70 2.8154E-02
     652.03 2.8030E-02
     653.80 2.7864E-02
     656.01 3.6467E-02
     656.53    0.33598
     657.83    0.22132
     658.69    0.12432
     659.56 8.0188E-02
     661.33 5.3591E-02
     663.09 4.4614E-02
     664.87 6.2069E-02
     666.20 7.9566E-02
     667.53 9.7063E-02
     669.31    0.11452
     671.07    0.10554
     673.28 9.6524E-02
     675.05 7.8737E-02
     676.81 6.0950E-02
     679.03 5.1932E-02
     680.79 4.1310E-02
     682.56 8.4948E-02
     684.34    0.15061
     685.54    3.49840
     686.43    3.60830
     687.24    2.79310
     687.58    1.71380
     688.39    0.89857
     688.80    0.54605
     689.66    0.25950
     690.21 5.2848E-02
     690.53    0.12713
     692.42 3.4941E-02
     694.63 1.7034E-02
     696.40 1.6868E-02
     698.61 7.8109E-03
     700.82 1.6453E-02
     703.03 1.6245E-02
     705.68 1.5996E-02
     707.90 1.5788E-02
     710.11 1.5580E-02
     711.43 1.5456E-02
     713.64 1.5248E-02
     715.86 1.5040E-02
     717.18 2.3765E-02
     719.40 2.3557E-02
     721.61 2.3350E-02
     724.16    1.49220
     724.47    0.93460
     724.82    0.51863
     726.07    0.21762
     726.93    0.10250
     727.80 4.9317E-02
     730.01 2.2560E-02
     732.22 1.3503E-02
     733.99 1.3337E-02
     735.76 2.2020E-02
     737.53 2.1854E-02
     738.08    0.49969
     738.49    0.37575
     739.34    0.21638
     740.21    0.12780
     741.51 3.9179E-02
     743.28 2.1314E-02
     745.49 2.1106E-02
     747.26 2.0940E-02
     749.47 2.0732E-02
     751.68 2.0525E-02
     753.89 2.0317E-02
     755.66 2.0151E-02
     757.87 1.9943E-02
     760.08 1.9735E-02
     762.29 1.9528E-02
     764.50 1.9320E-02
     766.71 1.9112E-02
     768.93 1.8904E-02
     771.14 1.8697E-02
     773.35 2.7339E-02
     774.29    0.28389
     775.50    1.63780
     776.69    1.08900
     777.03    0.62878
     777.84    0.32781
     778.68    0.14188
     779.56 8.8704E-02
     780.43 4.4373E-02
     781.75 1.7700E-02
     783.96 1.7492E-02
     786.17 1.7284E-02
     787.94 2.5968E-02
     789.71 2.5801E-02
     791.48 2.5635E-02
     793.69 2.5428E-02
     795.90 1.6370E-02
     798.11 2.5012E-02
     800.33 2.4804E-02
     802.54 2.4597E-02
     804.75 2.4389E-02
     806.96 2.4181E-02
     809.61 2.3932E-02
     810.51 8.5796E-02
     812.27    1.94410
     812.56    1.26260
     814.08    0.20051
     814.13    0.41290
     815.38    0.10304
     817.14 5.8624E-02
     817.18 5.4479E-02
     818.12    0.11419
     818.59    0.14516
     818.99    0.10090
     820.31 9.2017E-02
     820.71 4.9971E-02
     822.46 3.2230E-02
     824.24 3.8826E-02
     824.69 5.2090E-02
     826.01 3.8785E-02
     827.32 2.9904E-02
     828.65 2.7660E-02
     830.42 2.7619E-02
     831.31 3.6448E-02
     833.08 4.0831E-02
     833.97 4.7447E-02
     833.98 5.4084E-02
     835.20    0.40583
     836.46    0.33722
     836.80    0.23101
     838.04    0.13806
     838.43 7.8317E-02
     839.29 5.6172E-02
     841.09 9.1529E-02
     842.38 5.3887E-02
     842.81 4.0602E-02
     843.69 3.1732E-02
     845.90 2.9468E-02
     848.11 2.9416E-02
     849.86 7.2503E-02
     849.88 3.1587E-02
     852.07 4.9860E-02
     854.28 7.1464E-02
     856.49 4.8821E-02
     858.26 7.0529E-02
     860.47 7.0010E-02
     862.24    0.11384
     864.02    0.15767
     864.09-2.2736E-03
     865.35    0.22373
     866.69    0.35617
     866.82-2.2587E-03
     867.58    0.42233
     868.51    0.95310
     868.57    1.52830
     868.63 6.8422E-03
     869.98 6.8213E-02
     870.34    1.50580
     870.44 4.3216E-02
     870.81    1.81540
     871.26    1.97020
     871.36 2.2766E-02
     872.72 9.1372E-03
     873.02    1.88130
     873.85    1.21730
     873.88    1.54920
     874.09 5.3768E-05
     875.15    0.92941
     876.01    0.70797
     876.36 6.6178E-05
     877.32    0.57491
     878.18 7.6106E-05
     878.64    0.46398
     879.96    0.39730
     880.45 8.8516E-05
     881.09    2.96350
     881.20    4.20240
     881.75    0.30919
     882.21    0.25919
     882.70    1.34800
     883.14    0.16147
     883.53    0.70620
     884.37    0.28564
     884.53 7.9656E-02
     884.99 4.1022E-02
     885.69    0.19683
     885.90 1.6027E-02
     886.81 6.9414E-03
     887.01    0.13015
     888.34    0.12984
     889.09 2.4084E-03
     889.27    0.61636
     890.14    0.52765
     890.56    0.28419
     891.00    0.17346
     892.76    0.10668
     894.53 8.4137E-02
     895.86    0.15020
     895.90    0.63692
     897.22    0.52599
     897.64    0.32677
     898.08    0.23817
     898.95    0.12735
     900.72 8.2683E-02
     902.04 6.0247E-02
     904.69 5.9624E-02
     906.02 8.1436E-02
     908.23 8.0917E-02
     910.01    0.10263
     912.21 7.9982E-02
     914.42 5.7339E-02
     916.64 7.8944E-02
     917.96 5.6508E-02
     919.73    0.10034
     921.94 7.7697E-02
     923.71 6.6068E-02
     925.92    0.15353
     926.85    1.08230
     927.26    0.28565
     927.85    3.47130
     928.22    1.92240
     929.06    1.08130
     929.49    0.77133
     931.70    0.68180
     933.02    0.63693
     933.91    0.76926
     935.23    0.63589
     936.11    0.50273
     937.43    0.36936
     939.20    0.32429
     940.52    0.19092
     942.73    0.18988
     944.94    0.14459
     947.15    0.14355
     948.92 9.8476E-02
     951.13    0.18593
     952.03    0.49525
     953.29    8.45940
     953.69    7.57430
     953.97    4.07850
     954.76    2.04270
     955.15    0.93628
     956.01    0.49338
     956.88    0.22748
     959.55 8.9495E-02
     961.31 8.0479E-02
     963.52 6.2572E-02
     965.73 6.2364E-02
     967.06 7.9939E-02
     967.56    0.30114
     967.95    0.10640
     968.53    0.69043
     969.79    0.38057
     969.81    0.48677
     970.64    0.23005
     971.94    0.13258
     972.82 9.7098E-02
     974.59 9.6932E-02
     975.92    0.13221
     976.81    0.14982
     978.14    0.18509
     979.04    0.22926
     979.93    0.26457
     980.83    0.33529
     981.74    0.43255
     982.65    0.53866
     983.60    0.81292
     984.14    1.22880
     984.26    1.73320
     985.65    2.00740
     986.50    1.88350
     987.32    1.58250
     988.09    1.10450
     989.30    0.59114
     990.99    0.29008
     991.86    0.21036
     993.18    0.16598
     994.93    0.12157
     996.70 9.4855E-02
     998.46 7.6989E-02
     998.48    0.13894
 9.9979E+02 9.4564E-02
 1.0016E+03 7.6698E-02
 1.0033E+03 6.7683E-02
 1.0046E+03 5.8709E-02
 1.0069E+03 4.9651E-02
 1.0091E+03 4.9444E-02
 1.0113E+03 4.9236E-02
 1.0131E+03 5.7919E-02
 1.0150E+03 7.3556E-02
 1.0153E+03 4.8862E-02
 1.0159E+03 7.0442E-02
 1.0170E+03 6.8439E-02
 1.0170E+03 3.9846E-02
 1.0179E+03 6.7770E-02
 1.0184E+03 7.5120E-02
 1.0190E+03 6.8656E-02
 1.0197E+03 3.9597E-02
 1.0199E+03 7.3098E-02
 1.0213E+03 7.9761E-02
 1.0219E+03 5.7088E-02
 1.0221E+03 7.6203E-02
 1.0230E+03 7.2422E-02
 1.0237E+03 6.5772E-02
 1.0239E+03 7.5087E-02
 1.0245E+03    1.53480
 1.0245E+03    1.77370
 1.0254E+03 6.5605E-02
 1.0256E+03    0.87976
 1.0268E+03    0.39291
 1.0272E+03    0.19818
 1.0281E+03 9.1905E-02
 1.0299E+03 6.5190E-02
 1.0312E+03 4.7366E-02
 1.0329E+03 4.7200E-02
 1.0352E+03 4.6992E-02
 1.0369E+03 3.7977E-02
 1.0387E+03 3.7811E-02
 1.0418E+03    0.23185
 1.0419E+03    3.37340
 1.0430E+03    6.02790
 1.0441E+03    3.15120
 1.0449E+03    1.42510
 1.0454E+03    0.67266
 1.0467E+03    0.14107
 1.0484E+03 5.1739E-02
 1.0502E+03 9.5156E-02
 1.0520E+03 5.0078E-02
 1.0537E+03 4.9247E-02
 1.0559E+03 4.8208E-02
 1.0586E+03 4.6962E-02
 1.0608E+03 9.0171E-02
 1.0626E+03 4.5092E-02
 1.0648E+03 8.8302E-02
 1.0666E+03 8.7471E-02
 1.0692E+03 4.8081E-02
 1.0716E+03 4.8254E-02
 1.0737E+03 4.8399E-02
 1.0749E+03 6.4945E-02
 1.0761E+03 8.1492E-02
 1.0778E+03    0.10630
 1.0790E+03    0.13930
 1.0802E+03    0.22169
 1.0818E+03    0.52631
 1.0837E+03    1.50580
 1.0856E+03    2.06560
 1.0862E+03    1.23440
 1.0871E+03    0.50200
 1.0880E+03    0.27985
 1.0892E+03    0.16472
 1.0909E+03    0.12368
 1.0921E+03 9.0849E-02
 1.0942E+03 7.4533E-02
 1.0958E+03 6.6419E-02
 1.0979E+03 7.4793E-02
 1.0995E+03 6.6679E-02
 1.1016E+03 8.3283E-02
 1.1024E+03    0.17387
 1.1052E+03    2.51140
 1.1055E+03    0.89011
 1.1064E+03    0.40460
 1.1065E+03    2.53620
 1.1069E+03    0.14127
 1.1081E+03 8.3745E-02
 1.1102E+03 7.5660E-02
 1.1118E+03 8.4005E-02
 1.1134E+03 7.5891E-02
 1.1155E+03 7.6035E-02
 1.1171E+03 8.4381E-02
 1.1192E+03 9.2755E-02
 1.1208E+03 9.2871E-02
 1.1225E+03    0.10945
 1.1241E+03    0.10133
 1.1262E+03    0.10971
 1.1274E+03    0.11802
 1.1290E+03    0.13460
 1.1307E+03    0.16763
 1.1323E+03    0.20890
 1.1335E+03    0.29951
 1.1349E+03    1.44360
 1.1350E+03    1.15550
 1.1362E+03    1.50130
 1.1366E+03    1.60010
 1.1369E+03    1.84700
 1.1370E+03    1.53430
 1.1373E+03    1.93760
 1.1377E+03    2.14330
 1.1385E+03    2.09400
 1.1390E+03    1.70720
 1.1395E+03    1.31220
 1.1400E+03    0.88430
 1.1408E+03    0.56339
 1.1413E+03    0.32475
 1.1421E+03    0.24251
 1.1438E+03    0.20971
 1.1450E+03    0.17687
 1.1471E+03    0.19348
 1.1474E+03    0.35811
 1.1477E+03    0.97538
 1.1500E+03    2.41580
 1.1501E+03    1.80680
 1.1506E+03    0.97558
 1.1511E+03    0.39952
 1.1520E+03    0.22675
 1.1532E+03    0.19391
 1.1545E+03    0.16108
 1.1561E+03    0.13650
 1.1582E+03    0.12019
 1.1602E+03    0.12033
 1.1623E+03    0.12048
 1.1635E+03    0.17817
 1.1638E+03    0.47448
 1.1641E+03    1.10820
 1.1652E+03    2.03010
 1.1656E+03    2.21940
 1.1666E+03    0.80388
 1.1671E+03    0.42533
 1.1676E+03    0.26076
 1.1676E+03    0.17023
 1.1692E+03    0.13743
 1.1709E+03    0.12109
 1.1729E+03    0.14592
 1.1732E+03    0.13334
 1.1741E+03    0.12507
 1.1746E+03    0.12135
 1.1751E+03    0.12306
 1.1763E+03    0.11898
 1.1766E+03    0.12149
 1.1773E+03    0.11905
 1.1784E+03    0.11912
 1.1788E+03    0.12957
 1.1791E+03    0.12166
 1.1791E+03    0.15668
 1.1794E+03    0.13586
 1.1795E+03    0.17107
 1.1802E+03    0.15675
 1.1802E+03    0.14634
 1.1807E+03    0.13001
 1.1808E+03    0.14013
 1.1814E+03    0.13184
 1.1822E+03    0.12982
 1.1824E+03    0.13012
 1.1828E+03    0.19599
 1.1830E+03    0.12988
 1.1831E+03    0.31947
 1.1834E+03    0.19240
 1.1835E+03    0.44295
 1.1852E+03    0.46775
 1.1856E+03    0.40194
 1.1860E+03    0.31144
 1.1864E+03    0.20448
 1.1873E+03    0.14693
 1.1889E+03    0.13059
 1.1910E+03    0.14165
 1.1910E+03    0.13896
 1.1930E+03    0.16259
 1.1946E+03    1.74710
 1.1951E+03    0.18353
 1.1957E+03    3.22870
 1.1961E+03    2.83790
 1.1970E+03    1.80930
 1.1975E+03    1.15100
 1.1979E+03    0.47208
 1.1992E+03    0.24597
 1.2012E+03    0.16403
 1.2033E+03    0.18497
 1.2045E+03    0.39093
 1.2052E+03    2.38680
 1.2058E+03    5.16460
 1.2067E+03    4.44460
 1.2072E+03    2.61350
 1.2073E+03    0.94696
 1.2090E+03    0.39173
 1.2098E+03    0.20670
 1.2115E+03    0.14526
 1.2135E+03    0.12505
 1.2156E+03    0.12541
 1.2176E+03    0.12577
 1.2197E+03    0.12613
 1.2222E+03    0.12657
 1.2242E+03    0.14750
 1.2263E+03    0.14786
 1.2283E+03    0.14823
 1.2304E+03    0.14859
 1.2320E+03    0.16945
 1.2336E+03    0.16974
 1.2361E+03    0.23190
 1.2361E+03    0.35535
 1.2369E+03    1.07560
 1.2375E+03    3.83280
 1.2377E+03    6.03440
 1.2391E+03    4.90300
 1.2392E+03    3.07180
 1.2401E+03    2.06380
 1.2410E+03    1.01460
 1.2410E+03    0.68541
 1.2418E+03    0.45923
 1.2427E+03    0.31535
 1.2439E+03    0.25384
 1.2455E+03    0.19241
 1.2476E+03    0.17220
 1.2492E+03    0.15191
 1.2517E+03    0.15234
 1.2537E+03    0.15270
 1.2558E+03    0.17364
 1.2578E+03    0.19458
 1.2599E+03    0.17436
 1.2619E+03    0.17472
 1.2644E+03    0.17516
 1.2660E+03    0.17545
 1.2669E+03    0.15101
 1.2681E+03    0.15303
 1.2685E+03    0.19645
 1.2690E+03    0.15506
 1.2698E+03    0.15301
 1.2706E+03    0.19681
 1.2708E+03    0.15504
 1.2719E+03    0.16114
 1.2719E+03    0.19788
 1.2722E+03    0.19710
 1.2727E+03    0.24277
 1.2730E+03    0.30012
 1.2731E+03    0.22235
 1.2735E+03    0.19786
 1.2740E+03    0.18152
 1.2747E+03    0.21811
 1.2748E+03    0.18559
 1.2754E+03    0.19171
 1.2762E+03    0.20598
 1.2763E+03    0.23898
 1.2771E+03    0.21413
 1.2783E+03    0.32164
 1.2796E+03    0.42473
 1.2808E+03    0.67184
 1.2827E+03    1.84500
 1.2840E+03    1.74230
 1.2853E+03    1.02240
 1.2869E+03    0.59063
 1.2878E+03    0.42617
 1.2894E+03    0.32359
 1.2915E+03    0.30337
 1.2927E+03    0.44761
 1.2939E+03    0.36553
 1.2947E+03    0.30395
 1.2964E+03    0.32481
 1.2984E+03    0.34575
 1.2997E+03    0.38712
 1.3005E+03    0.44898
 1.3005E+03    0.61358
 1.3008E+03    1.21030
 1.3016E+03    2.42440
 1.3019E+03    3.49430
 1.3027E+03    3.61790
 1.3032E+03    2.87730
 1.3032E+03    2.21890
 1.3033E+03    1.64280
 1.3049E+03    1.68430
 1.3053E+03    2.07530
 1.3057E+03    2.44570
 1.3065E+03    2.87790
 1.3069E+03    2.98080
 1.3073E+03    2.71340
 1.3086E+03    2.24040
 1.3090E+03    1.74670
 1.3094E+03    1.45870
 1.3107E+03    0.86229
 1.3120E+03    0.61561
 1.3128E+03    0.45115
 1.3140E+03    0.34849
 1.3153E+03    0.28699
 1.3177E+03    0.22570
 1.3177E+03    0.16435
 1.3194E+03    0.13154
 1.3210E+03 9.8739E-02
 1.3231E+03 9.0654E-02
 1.3255E+03 9.0827E-02
 1.3280E+03 9.9230E-02
 1.3304E+03 9.9404E-02
 1.3325E+03    0.10778
 1.3341E+03    0.12435
 1.3358E+03 9.1549E-02
 1.3370E+03    0.26446
 1.3386E+03    0.21520
 1.3395E+03    0.16588
 1.3410E+03    0.59395
 1.3426E+03    0.98910
 1.3427E+03    0.52000
 1.3443E+03    0.49542
 1.3451E+03    0.47079
 1.3464E+03    0.35566
 1.3476E+03    0.27345
 1.3481E+03    0.21587
 1.3493E+03    0.18303
 1.3501E+03    0.23247
 1.3509E+03    0.38067
 1.3517E+03    0.30665
 1.3526E+03    0.19972
 1.3542E+03    0.15869
 1.3567E+03    0.15063
 1.3583E+03    0.15075
 1.3587E+03    0.20016
 1.3599E+03    0.24139
 1.3616E+03    0.28266
 1.3628E+03    0.35681
 1.3648E+03    0.46395
 1.3660E+03    0.57102
 1.3673E+03    0.63695
 1.3685E+03    0.72757
 1.3692E+03    1.08150
 1.3701E+03    0.93343
 1.3713E+03    0.81007
 1.3718E+03    0.76072
 1.3730E+03    0.70319
 1.3741E+03    3.52760
 1.3758E+03    2.31400
 1.3763E+03    0.75039
 1.3772E+03    0.50364
 1.3784E+03    0.42156
 1.3801E+03    0.40127
 1.3817E+03    0.36041
 1.3829E+03    0.29890
 1.3846E+03    0.25804
 1.3866E+03    0.25840
 1.3891E+03    0.23826
 1.3912E+03    0.24383
 1.3916E+03    0.19755
 1.3919E+03    0.23762
 1.3927E+03    0.22934
 1.3932E+03    0.17726
 1.3935E+03    0.22731
 1.3939E+03    0.22109
 1.3948E+03    0.17755
 1.3949E+03    0.22324
 1.3955E+03    0.22536
 1.3963E+03    0.22333
 1.3963E+03    0.20042
 1.3969E+03    0.21906
 1.3979E+03    0.19636
 1.3987E+03    0.18808
 1.3994E+03    0.17834
 1.3999E+03    0.17774
 1.4015E+03    0.17577
 1.4018E+03    0.17878
 1.4029E+03    0.16544
 1.4039E+03    0.15856
 1.4051E+03    0.15878
 1.4053E+03    0.15727
 1.4063E+03    0.24130
 1.4080E+03    0.15929
 1.4104E+03    0.18029
 1.4125E+03    0.16008
 1.4149E+03    0.13994
 1.4170E+03    0.16087
 1.4191E+03    0.14066
 1.4215E+03    0.12052
 1.4240E+03    0.14153
 1.4260E+03    0.14189
 1.4281E+03    0.14225
 1.4305E+03    0.12211
 1.4330E+03    0.12254
 1.4350E+03    0.12290
 1.4363E+03    0.20542
 1.4379E+03    0.12341
 1.4404E+03    0.12384
 1.4428E+03    0.12427
 1.4449E+03    0.10406
 1.4469E+03    0.10442
 1.4694E+03 9.9237E-02
 1.4718E+03 9.1105E-02
 1.4739E+03 9.1215E-02
 1.4759E+03 9.9590E-02
 1.4780E+03    0.10796
 1.4796E+03 8.3259E-02
 1.4817E+03    0.10816
 1.4841E+03 8.3502E-02
 1.4858E+03    0.10838
 1.4882E+03    0.10025
 1.4911E+03 9.2140E-02
 1.4932E+03    0.11704
 1.4948E+03 8.4074E-02
 1.4973E+03 9.2471E-02
 1.4997E+03    0.10087
 1.5018E+03    0.10924
 1.5034E+03 8.4537E-02
 1.5051E+03    0.11768
 1.5075E+03    0.11781
 1.5096E+03    0.11792
 1.5116E+03    0.11803
 1.5120E+03    0.17591
 1.5128E+03    0.24206
 1.5145E+03    0.20083
 1.5157E+03    0.15958
 1.5169E+03    0.12658
 1.5190E+03    0.11843
 1.5206E+03    0.11852
 1.5219E+03    0.13511
 1.5231E+03    0.17650
 1.5243E+03    0.52367
 1.5259E+03    0.90391
 1.5263E+03    0.57336
 1.5268E+03    0.29240
 1.5276E+03    0.25112
 1.5284E+03    0.19332
 1.5301E+03    0.16861
 1.5317E+03    0.14391
 1.5333E+03    0.12747
 1.5350E+03    0.11929
 1.5370E+03    0.11114
 1.5395E+03    0.11127
 1.5420E+03    0.11140
 1.5444E+03    0.10327
 1.5469E+03    0.10340
 1.5477E+03    0.16129
 1.5498E+03    0.12008
 1.5514E+03    0.11191
 1.5530E+03    0.12026
 1.5551E+03    0.12037
 1.5563E+03    0.17002
 1.5580E+03    0.12879
 1.5604E+03    0.12066
 1.5629E+03    0.12905
 1.5645E+03    0.13740
 1.5661E+03    0.15402
 1.5661E+03    0.19534
 1.5674E+03    0.26979
 1.5682E+03    0.31115
 1.5694E+03    0.22858
 1.5707E+03    0.17906
 1.5715E+03    0.14604
 1.5731E+03    0.13787
 1.5752E+03    0.12971
 1.5768E+03    0.12154
 1.5789E+03    0.17950
 1.5797E+03    0.24565
 1.5813E+03    0.22921
 1.5821E+03    0.17967
 1.5842E+03    0.17152
 1.5862E+03    0.17163
 1.5875E+03    0.21302
 1.5885E+03    2.00640
 1.5889E+03    1.83290
 1.5890E+03    0.84945
 1.5899E+03    0.37843
 1.5907E+03    0.22146
 1.5920E+03    0.16367
 1.5936E+03    0.14723
 1.5957E+03    0.14734
 1.5977E+03    0.15572
 1.5998E+03    0.16409
 1.6014E+03    0.18071
 1.6030E+03    0.21385
 1.6055E+03    0.21398
 1.6063E+03    0.18097
 1.6088E+03    0.17284
 1.6108E+03    0.17295
 1.6125E+03    0.18957
 1.6154E+03    0.19798
 1.6170E+03    0.21460
 1.6182E+03    0.22293
 1.6194E+03    0.25605
 1.6211E+03    0.29746
 1.6227E+03    0.33061
 1.6248E+03    0.32246
 1.6260E+03    0.29773
 1.6281E+03    0.28957
 1.6293E+03    0.31443
 1.6305E+03    0.67813
 1.6320E+03    1.35590
 1.6329E+03    1.14930
 1.6338E+03    0.60393
 1.6342E+03    0.42213
 1.6354E+03    0.33129
 1.6367E+03    0.31483
 1.6383E+03    0.30665
 1.6399E+03    0.28195
 1.6408E+03    0.24894
 1.6428E+03    0.29484
 1.6428E+03    0.28210
 1.6457E+03    0.25429
 1.6469E+03    0.50255
 1.6482E+03    0.87477
 1.6485E+03    2.77570
 1.6501E+03    5.46200
 1.6510E+03    2.44580
 1.6518E+03    1.08240
 1.6527E+03    0.54541
 1.6543E+03    0.46321
 1.6560E+03    0.38100
 1.6584E+03    0.38167
 1.6601E+03    0.34078
 1.6625E+03    0.38277
 1.6646E+03    0.38332
 1.6670E+03    0.38398
 1.6691E+03    0.34321
 1.6707E+03    0.42629
 1.6728E+03    0.38552
 1.6748E+03    0.38607
 1.6765E+03    0.42783
 1.6785E+03    0.42838
 1.6806E+03    0.42893
 1.6814E+03    0.71840
 1.6826E+03    0.47081
 1.6851E+03    0.47147
 1.6871E+03    0.43070
 1.6892E+03    0.47257
 1.6908E+03    0.51433
 1.6925E+03    0.55609
 1.6945E+03    0.59796
 1.6957E+03    0.68094
 1.6970E+03    0.84655
 1.6978E+03    1.46660
 1.6985E+03    2.87170
 1.6998E+03    3.53320
 1.7006E+03    2.74830
 1.7014E+03    2.04610
 1.7023E+03    1.09590
 1.7027E+03    0.84809
 1.7043E+03    0.60061
 1.7064E+03    0.51851
 1.7085E+03    0.51906
 1.7101E+03    0.47818
 1.7126E+03    0.56149
 1.7134E+03    1.22280
 1.7148E+03    7.95870
 1.7149E+03    3.74390
 1.7162E+03    1.18230
 1.7171E+03    0.81063
 1.7183E+03    0.48039
 1.7199E+03    0.39818
 1.7212E+03    0.39851
 1.7232E+03    0.35774
 1.7253E+03    0.35829
 1.7273E+03    0.31752
 1.7293E+03    0.34460
 1.7310E+03    0.37775
 1.7322E+03    0.39434
 1.7334E+03    0.41920
 1.7359E+03    0.41107
 1.7375E+03    0.45248
 1.7383E+03    0.49384
 1.7392E+03    0.51868
 1.7396E+03    0.56829
 1.7408E+03    0.59315
 1.7416E+03    0.64277
 1.7428E+03    0.70069
 1.7453E+03    0.71735
 1.7465E+03    0.67610
 1.7477E+03    0.97368
 1.7490E+03    0.67623
 1.7498E+03    0.55231
 1.7506E+03    0.49450
 1.7519E+03    0.34581
 1.7527E+03    0.29627
 1.7544E+03    0.26330
 1.7560E+03    0.25512
 1.7576E+03    0.25521
 1.7597E+03    0.24706
 1.7622E+03    0.23893
 1.7634E+03    0.43734
 1.7638E+03    0.34645
 1.7654E+03    0.24737
 1.7667E+03    0.28049
 1.7675E+03    0.23921
 1.7687E+03    0.28886
 1.7695E+03    0.24759
 1.7708E+03    0.28071
 1.7716E+03    0.44604
 1.7723E+03    1.01630
 1.7740E+03    0.60319
 1.7748E+03    0.39663
 1.7764E+03    0.67770
 1.7777E+03    0.35546
 1.7785E+03    0.32245
 1.7790E+03    0.28115
 1.7806E+03    0.24818
 1.7822E+03    0.23174
 1.7843E+03    0.23185
 1.7863E+03    0.24023
 1.7880E+03    0.23205
 1.7896E+03    0.24040
 1.7921E+03    0.24053
 1.7941E+03    0.24064
 1.7958E+03    0.24073
 1.7978E+03    0.23258
 1.7995E+03    0.24919
 1.8011E+03    0.25755
 1.8011E+03    0.36498
 1.8027E+03    0.27416
 1.8040E+03    0.24944
 1.8060E+03    0.26608
 1.8077E+03    0.29096
 1.8097E+03    0.31586
 1.8101E+03    0.35720
 1.8113E+03    0.39859
 1.8122E+03    0.44822
 1.8130E+03    0.40694
 1.8142E+03    0.33263
 1.8155E+03    0.30790
 1.8167E+03    0.29144
 1.8187E+03    0.27502
 1.8204E+03    0.28338
 1.8220E+03    0.32478
 1.8228E+03    0.37441
 1.8236E+03    0.40752
 1.8253E+03    0.42413
 1.8261E+03    0.50682
 1.8273E+03    0.63085
 1.8289E+03    0.77143
 1.8289E+03    0.96151
 1.8301E+03    0.83761
 1.8318E+03    0.77985
 1.8330E+03    0.73033
 1.8345E+03    1.68080
 1.8346E+03    1.47420
 1.8359E+03    0.75528
 1.8367E+03    0.57351
 1.8376E+03    0.48264
 1.8384E+03    0.44137
 1.8396E+03    0.41664
 1.8413E+03    0.39193
 1.8433E+03    0.37552
ENDDATA           1161
ENDSUBENT         1177
SUBENT        F0545005   20030807   20050616   20050926       0000
BIB                  4          5
REACTION   (12-MG-25(P,INL)12-MG-25,PAR,DA,,REL)
ERR-ANALYS (EN-ERR-DIG) Digitizing error
           (ERR-DIG) Digitizing error
STATUS     (CURVE) Fig.2,3
COMMENT    Data are measured in the number of counts (10**4/3 mC)
ENDBIB               5
COMMON               3          3
ANG        EN-ERR-DIG ERR-DIG
ADEG       KEV        ARB-UNITS
  55.0      1.          0.001
ENDCOMMON            3
DATA                 3        967
E-LVL      EN         DATA
KEV        KEV        ARB-UNITS
 585.00     978.84    0.52670E-05
 585.00     980.49    0.82112E-03
 585.00     981.74    0.33477E-02
 585.00     982.99    0.10112E-01
 585.00     983.85    0.19423E-01
 585.00     984.70    0.30429E-01
 585.00     985.16    0.44831E-01
 585.00     986.42    0.53290E-01
 585.00     987.23    0.49042E-01
 585.00     988.03    0.38014E-01
 585.00     988.83    0.30377E-01
 585.00     989.61    0.16807E-01
 585.00     991.64    0.57637E-02
 585.00     993.28    0.40477E-02
 585.00     994.93    0.23317E-02
 585.00     996.99    0.14579E-02
 585.00     999.05    0.58411E-03
 585.00     1001.1    -.28968E-03
 585.00     1004.0    -.32655E-03
 585.00     1006.5    -.35815E-03
 585.00     1009.4    -.39502E-03
 585.00     1011.0    -.12635E-02
 585.00     1012.7    -.43716E-03
 585.00     1014.3    0.38923E-03
 585.00     1016.4    0.36290E-03
 585.00     1018.0    0.11893E-02
 585.00     1019.3    0.13885E-01
 585.00     1020.9    0.62372E-02
 585.00     1021.3    0.11472E-02
 585.00     1023.8    0.11155E-02
 585.00     1025.8    0.10892E-02
 585.00     1027.9    0.10629E-02
 585.00     1088.9    0.19307E-02
 585.00     1091.0    0.19055E-02
 585.00     1093.5    0.18753E-02
 585.00     1095.2    0.26884E-02
 585.00     1097.3    0.18300E-02
 585.00     1099.4    0.18048E-02
 585.00     1101.0    0.17846E-02
 585.00     1102.7    0.34311E-02
 585.00     1104.8    0.17393E-02
 585.00     1106.9    0.17141E-02
 585.00     1108.5    0.86069E-03
 585.00     1110.2    0.25071E-02
 585.00     1112.3    0.24819E-02
 585.00     1114.4    0.24568E-02
 585.00     1116.5    0.24316E-02
 585.00     1118.5    0.15731E-02
 585.00     1120.6    0.15479E-02
 585.00     1122.3    0.69449E-03
 585.00     1124.0    0.31742E-02
 585.00     1125.6    0.14875E-02
 585.00     1126.9    0.31390E-02
 585.00     1128.5    -.21435E-03
 585.00     1130.6    0.59376E-03
 585.00     1133.1    0.30634E-02
 585.00     1133.6    0.20558E-01
 585.00     1134.1    0.28052E-01
 585.00     1135.3    0.23871E-01
 585.00     1135.7    0.20532E-01
 585.00     1136.5    0.14689E-01
 585.00     1137.3    0.12179E-01
 585.00     1138.6    0.71644E-02
 585.00     1139.8    0.21495E-02
 585.00     1141.5    0.21294E-02
 585.00     1143.6    0.29375E-02
 585.00     1145.7    0.29123E-02
 585.00     1146.9    0.45638E-02
 585.00     1149.0    0.28720E-02
 585.00     1150.7    0.28519E-02
 585.00     1152.7    0.36600E-02
 585.00     1154.4    0.28066E-02
 585.00     1156.5    0.44480E-02
 585.00     1158.6    0.19229E-02
 585.00     1160.3    0.27361E-02
 585.00     1161.9    0.35492E-02
 585.00     1163.6    0.68622E-02
 585.00     1164.4    0.26857E-02
 585.00     1167.3    0.26504E-02
 585.00     1168.6    0.51352E-02
 585.00     1170.7    0.26101E-02
 585.00     1171.9    0.50949E-02
 585.00     1173.6    0.25749E-02
 585.00     1174.0    0.67363E-02
 585.00     1176.1    0.10878E-01
 585.00     1177.8    0.13357E-01
 585.00     1178.3    0.33351E-01
 585.00     1178.9    0.93343E-01
 585.00     1179.0    0.14751
 585.00     1179.6    0.18083
 585.00     1179.9    0.16583
 585.00     1180.2    0.11416
 585.00     1181.0    0.90818E-01
 585.00     1181.3    0.78314E-01
 585.00     1181.3    0.71648E-01
 585.00     1181.9    0.82686E-01
 585.00     1182.4    0.35338
 585.00     1182.5     1.1450
 585.00     1182.8    0.16576
 585.00     1183.3     4.7280
 585.00     1183.5     2.9780
 585.00     1184.2     5.0403
 585.00     1184.5     4.2277
 585.00     1184.8     3.1026
 585.00     1186.2     1.1230
 585.00     1187.4    0.41437
 585.00     1188.2    0.16413
 585.00     1189.0    0.80546E-01
 585.00     1191.1    0.38252E-01
 585.00     1192.8    0.37748E-01
 585.00     1194.5    0.18307
 585.00     1194.9    0.37119E-01
 585.00     1195.3    0.34948
 585.00     1196.6    0.26577
 585.00     1196.6    0.18244
 585.00     1197.4    0.98860E-01
 585.00     1198.6    0.77650E-01
 585.00     1199.9    0.35608E-01
 585.00     1201.5    0.35104E-01
 585.00     1203.6    0.34474E-01
 585.00     1205.7    0.54677E-01
 585.00     1207.0    0.54300E-01
 585.00     1208.6    0.32964E-01
 585.00     1210.7    0.32334E-01
 585.00     1212.8    0.31704E-01
 585.00     1214.9    0.51907E-01
 585.00     1216.6    0.30571E-01
 585.00     1217.8    0.30194E-01
 585.00     1219.9    0.29564E-01
 585.00     1222.0    0.49767E-01
 585.00     1224.9    0.69718E-01
 585.00     1227.0    0.69088E-01
 585.00     1229.1    0.89291E-01
 585.00     1230.8    0.13045
 585.00     1232.4    0.15078
 585.00     1233.3    0.21303
 585.00     1234.1    0.27527
 585.00     1235.0    0.37918
 585.00     1235.8    0.52476
 585.00     1236.2    0.71212
 585.00     1237.1     1.1077
 585.00     1237.8     3.0866
 585.00     1238.8     4.2322
 585.00     1239.1     4.0029
 585.00     1239.9     3.4193
 585.00     1240.5     1.7733
 585.00     1241.3     1.1898
 585.00     1242.1    0.73119
 585.00     1242.5    0.41858
 585.00     1243.3    0.29333
 585.00     1243.7    0.20988
 585.00     1244.9    0.12617
 585.00     1247.0    0.63045E-01
 585.00     1249.1    0.41583E-01
 585.00     1250.8    0.41079E-01
 585.00     1252.8    0.40449E-01
 585.00     1254.9    0.39820E-01
 585.00     1256.6    0.39316E-01
 585.00     1258.3    0.38813E-01
 585.00     1260.4    0.38183E-01
 585.00     1262.4    0.37554E-01
 585.00     1264.1    0.57882E-01
 585.00     1266.2    0.57253E-01
 585.00     1268.7    0.35665E-01
 585.00     1270.0    0.35287E-01
 585.00     1272.0    0.34658E-01
 585.00     1273.7    0.75819
 585.00     1275.8    0.96021
 585.00     1277.1     1.5814
 585.00     1278.3     2.2026
 585.00     1278.7     3.0346
 585.00     1279.6     4.0737
 585.00     1280.9     9.2780
 585.00     1282.9     39.272
 585.00     1284.1     36.143
 585.00     1285.6     19.264
 585.00     1286.7     9.2604
 585.00     1288.8     5.0876
 585.00     1289.6     3.8352
 585.00     1290.4     2.9994
 585.00     1292.1     2.3694
 585.00     1293.3     1.5323
 585.00     1294.6     1.1119
 585.00     1296.7    0.89726
 585.00     1297.6    0.18941
 585.00     1298.8    0.16106
 585.00     1300.0    0.14938
 585.00     1301.5    0.22936
 585.00     1302.5    0.14352
 585.00     1303.3    0.13101
 585.00     1304.6    0.14932
 585.00     1305.8    0.13931
 585.00     1306.6    0.11763
 585.00     1307.4    0.98459E-01
 585.00     1309.4    0.79268E-01
 585.00     1310.6    0.74253E-01
 585.00     1312.3    0.61733E-01
 585.00     1313.9    0.55047E-01
 585.00     1316.0    0.54188E-01
 585.00     1317.2    0.50007E-01
 585.00     1318.5    0.48325E-01
 585.00     1320.6    0.46633E-01
 585.00     1322.2    0.43280E-01
 585.00     1324.3    0.39922E-01
 585.00     1326.4    0.37396E-01
 585.00     1328.5    0.35705E-01
 585.00     1331.0    0.34841E-01
 585.00     1332.6    0.37321E-01
 585.00     1333.9    0.34806E-01
 585.00     1335.5    0.35619E-01
 585.00     1337.6    0.33094E-01
 585.00     1339.3    0.30574E-01
 585.00     1341.4    0.32215E-01
 585.00     1343.0    0.38633E-01
 585.00     1345.0    0.55047E-01
 585.00     1346.7    0.63178E-01
 585.00     1348.0    0.88026E-01
 585.00     1348.8    0.12959
 585.00     1350.1    0.37109
 585.00     1351.2    0.93763
 585.00     1351.9    0.49589
 585.00     1353.0    0.13742
 585.00     1353.4    0.70706E-01
 585.00     1354.6    0.20557E-01
 585.00     1356.3    0.12022E-01
 585.00     1358.4    0.20104E-01
 585.00     1359.6    0.11620E-01
 585.00     1360.9    0.19801E-01
 585.00     1363.4    0.27832E-01
 585.00     1365.5    0.19247E-01
 585.00     1366.7    0.27429E-01
 585.00     1368.4    0.43894E-01
 585.00     1369.6     1.2021
 585.00     1370.2    0.58533
 585.00     1370.9    0.10192
 585.00     1371.3    0.43541E-01
 585.00     1373.8    0.34906E-01
 585.00     1375.1    0.10975E-01
 585.00     1375.9    0.76319E-02
 585.00     1377.2    0.10950E-01
 585.00     1378.8    0.92632E-02
 585.00     1380.5    0.12576E-01
 585.00     1383.0    0.92128E-02
 585.00     1383.9    0.13369E-01
 585.00     1385.1    0.10021E-01
 585.00     1386.8    0.12501E-01
 585.00     1388.4    0.91474E-02
 585.00     1390.5    0.99555E-02
 585.00     1392.6    0.10764E-01
 585.00     1393.5    0.13253E-01
 585.00     1394.6    0.10991
 585.00     1396.0    0.15822
 585.00     1396.4    0.37384E-01
 585.00     1397.6    0.17370E-01
 585.00     1398.9    0.81882E-02
 585.00     1400.5    0.98346E-02
 585.00     1402.2    0.81479E-02
 585.00     1403.5    0.11466E-01
 585.00     1405.5    0.89409E-02
 585.00     1408.0    0.97440E-02
 585.00     1409.7    0.10557E-01
 585.00     1411.0    0.80421E-02
 585.00     1412.6    0.10522E-01
 585.00     1414.3    0.11335E-01
 585.00     1415.5    0.88200E-02
 585.00     1417.2    0.96332E-02
 585.00     1418.5    0.11285E-01
 585.00     1420.1    0.79313E-02
 585.00     1422.2    0.87394E-02
 585.00     1424.3    0.87142E-02
 585.00     1426.0    0.10361E-01
 585.00     1428.1    0.86689E-02
 585.00     1429.7    0.10315E-01
 585.00     1431.0    0.12800E-01
 585.00     1432.2    0.94518E-02
 585.00     1433.9    0.11098E-01
 585.00     1435.6    0.85783E-02
 585.00     1436.8    0.11896E-01
 585.00     1438.9    0.85380E-02
 585.00     1440.2    0.12689E-01
 585.00     1441.8    0.93360E-02
 585.00     1444.7    0.93008E-02
 585.00     1447.3    0.11770E-01
 585.00     1448.5    0.10922E-01
 585.00     1450.2    0.10069E-01
 585.00     1451.8    0.10882E-01
 585.00     1453.5    0.13361E-01
 585.00     1455.2    0.10841E-01
 585.00     1456.8    0.99880E-02
 585.00     1459.4    0.10791E-01
 585.00     1460.6    0.11609E-01
 585.00     1462.7    0.12417E-01
 585.00     1463.9    0.12402E-01
 585.00     1466.0    0.12377E-01
 585.00     1468.1    0.10685E-01
 585.00     1468.9    0.10167E-01
 585.00     1471.0    0.12654E-01
 585.00     1472.3    0.12640E-01
 585.00     1473.9    0.10948E-01
 585.00     1476.0    0.11762E-01
 585.00     1477.3    0.13421E-01
 585.00     1479.3    0.11725E-01
 585.00     1481.4    0.10865E-01
 585.00     1483.9    0.12510E-01
 585.00     1484.8    0.15012E-01
 585.00     1486.4    0.11646E-01
 585.00     1488.5    0.11623E-01
 585.00     1489.3    0.14961E-01
 585.00     1491.4    0.13264E-01
 585.00     1493.5    0.16588E-01
 585.00     1495.2    0.18243E-01
 585.00     1497.2    0.18220E-01
 585.00     1499.7    0.18192E-01
 585.00     1501.8    0.19006E-01
 585.00     1503.9    0.24003E-01
 585.00     1505.6    0.24821E-01
 585.00     1507.2    0.24803E-01
 585.00     1508.5    0.28973E-01
 585.00     1509.8    0.35653E-01
 585.00     1512.3    0.44830E-01
 585.00     1513.6    0.49000E-01
 585.00     1514.0    0.54853E-01
 585.00     1515.2    0.45635E-01
 585.00     1516.5    0.46458E-01
 585.00     1517.3    0.48959E-01
 585.00     1517.7    0.55648E-01
 585.00     1519.4    0.65671E-01
 585.00     1520.3    0.76540E-01
 585.00     1521.6    0.90752E-01
 585.00     1522.4    0.10078
 585.00     1523.3    0.12504
 585.00     1523.8    0.14428
 585.00     1523.8    0.15433
 585.00     1525.6    0.17439
 585.00     1526.3    0.15179
 585.00     1527.1    0.12249
 585.00     1528.2    0.89004E-01
 585.00     1528.6    0.71427E-01
 585.00     1529.8    0.55514E-01
 585.00     1531.0    0.43785E-01
 585.00     1532.7    0.36235E-01
 585.00     1534.3    0.37054E-01
 585.00     1535.1    0.33697E-01
 585.00     1536.0    0.40382E-01
 585.00     1538.1    0.38685E-01
 585.00     1539.8    0.45361E-01
 585.00     1541.0    0.47858E-01
 585.00     1541.9    0.53706E-01
 585.00     1542.7    0.62901E-01
 585.00     1544.0    0.65398E-01
 585.00     1544.8    0.70409E-01
 585.00     1546.1    0.76253E-01
 585.00     1546.9    0.84612E-01
 585.00     1548.2    0.94639E-01
 585.00     1549.1    0.10384
 585.00     1550.4    0.12139
 585.00     1551.7    0.13477
 585.00     1553.0    0.15484
 585.00     1553.9    0.18579
 585.00     1554.2    0.42140
 585.00     1556.3    0.62481
 585.00     1557.9    0.20177
 585.00     1559.6    0.61554
 585.00     1561.3     1.0293
 585.00     1562.9     1.8615
 585.00     1563.4     3.3247
 585.00     1563.8     4.9971
 585.00     1563.8     4.1603
 585.00     1564.2     6.4604
 585.00     1565.1     7.2948
 585.00     1565.5     9.3857
 585.00     1566.0     16.497
 585.00     1567.0     26.746
 585.00     1567.8     30.091
 585.00     1569.0     22.974
 585.00     1569.8     15.022
 585.00     1570.5     6.8614
 585.00     1571.3     3.7211
 585.00     1571.7     2.4647
 585.00     1572.5     1.2072
 585.00     1574.6    0.99222
 585.00     1576.3    0.77839
 585.00     1578.3    0.77259
 585.00     1580.8    0.55644
 585.00     1582.2    0.18296
 585.00     1582.5    0.15953
 585.00     1584.1    0.14278
 585.00     1584.9    0.12268
 585.00     1585.7    0.11012
 585.00     1586.5    0.92539E-01
 585.00     1587.7    0.95036E-01
 585.00     1588.1    0.84153E-01
 585.00     1588.9    0.75776E-01
 585.00     1589.3    0.68240E-01
 585.00     1591.0    0.66548E-01
 585.00     1592.2    0.54819E-01
 585.00     1593.4    0.44763E-01
 585.00     1594.6    0.33034E-01
 585.00     1595.9    0.29673E-01
 585.00     1597.5    0.27144E-01
 585.00     1598.8    0.26294E-01
 585.00     1600.4    0.21254E-01
 585.00     1602.1    0.18725E-01
 585.00     1604.2    0.17029E-01
 585.00     1605.4    0.14504E-01
 585.00     1606.6    0.12817E-01
 585.00     1608.3    0.11961E-01
 585.00     1609.6    0.11111E-01
 585.00     1611.6    0.10251E-01
 585.00     1612.5    0.68943E-02
 585.00     1613.7    0.11064E-01
 585.00     1615.0    0.77033E-02
 585.00     1616.6    0.76847E-02
 585.00     1617.9    0.11018E-01
 585.00     1619.5    0.11836E-01
 585.00     1620.8    0.17680E-01
 585.00     1621.6    0.11813E-01
 585.00     1622.1    0.21013E-01
 585.00     1623.3    0.22673E-01
 585.00     1623.7    0.26852E-01
 585.00     1624.6    0.30190E-01
 585.00     1625.4    0.33528E-01
 585.00     1626.3    0.37703E-01
 585.00     1627.6    0.53588E-01
 585.00     1627.6    0.71161E-01
 585.00     1628.9    0.87046E-01
 585.00     1629.4    0.12972
 585.00     1629.5    0.10485
 585.00     1630.4    0.23013
 585.00     1631.6    0.33439
 585.00     1632.5    0.43875
 585.00     1632.9    0.54324
 585.00     1633.7    0.73129
 585.00     1634.7     1.7143
 585.00     1635.6     2.9065
 585.00     1636.7     4.5171
 585.00     1637.5     4.7888
 585.00     1638.6     3.6379
 585.00     1640.6     2.5495
 585.00     1640.9     1.5243
 585.00     1641.7    0.91736
 585.00     1642.5    0.56149
 585.00     1644.5    0.39355
 585.00     1645.3    0.30964
 585.00     1646.6    0.24654
 585.00     1647.8    0.20435
 585.00     1648.7    0.16228
 585.00     1650.3    0.14089
 585.00     1651.9    0.12445
 585.00     1652.7    0.11691
 585.00     1654.3    0.93458E-01
 585.00     1655.5    0.90097E-01
 585.00     1657.2    0.83384E-01
 585.00     1658.8    0.72487E-01
 585.00     1660.1    0.72473E-01
 585.00     1661.3    0.65765E-01
 585.00     1662.5    0.60730E-01
 585.00     1663.8    0.54022E-01
 585.00     1665.4    0.49819E-01
 585.00     1667.5    0.53143E-01
 585.00     1668.3    0.48950E-01
 585.00     1670.0    0.50605E-01
 585.00     1671.2    0.51428E-01
 585.00     1672.0    0.42214E-01
 585.00     1674.1    0.43864E-01
 585.00     1674.9    0.36324E-01
 585.00     1677.0    0.37137E-01
 585.00     1678.7    0.35445E-01
 585.00     1679.1    0.32093E-01
 585.00     1680.4    0.36263E-01
 585.00     1682.4    0.29546E-01
 585.00     1684.1    0.35385E-01
 585.00     1685.3    0.32024E-01
 585.00     1686.6    0.37868E-01
 585.00     1688.3    0.37012E-01
 585.00     1689.5    0.36998E-01
 585.00     1690.8    0.38658E-01
 585.00     1691.6    0.31954E-01
 585.00     1692.4    0.38639E-01
 585.00     1693.7    0.36115E-01
 585.00     1694.9    0.41122E-01
 585.00     1696.2    0.50313E-01
 585.00     1696.7    0.63697E-01
 585.00     1697.6    0.10971
 585.00     1698.3    0.21933
 585.00     1699.3    0.26785
 585.00     1700.0    0.23437
 585.00     1701.1    0.17076
 585.00     1702.1    0.85393E-01
 585.00     1703.3    0.51908E-01
 585.00     1704.1    0.47714E-01
 585.00     1704.9    0.41011E-01
 585.00     1706.6    0.38482E-01
 585.00     1707.0    0.45172E-01
 585.00     1708.2    0.35116E-01
 585.00     1709.9    0.32587E-01
 585.00     1711.5    0.28385E-01
 585.00     1713.2    0.34224E-01
 585.00     1713.6    0.20830E-01
 585.00     1714.9    0.30858E-01
 585.00     1716.1    0.28334E-01
 585.00     1716.5    0.35860E-01
 585.00     1718.2    0.37515E-01
 585.00     1719.0    0.34996E-01
 585.00     1720.7    0.34140E-01
 585.00     1722.4    0.40816E-01
 585.00     1724.5    0.40793E-01
 585.00     1725.3    0.48315E-01
 585.00     1725.7    0.38269E-01
 585.00     1727.0    0.44949E-01
 585.00     1728.2    0.50793E-01
 585.00     1730.3    0.46586E-01
 585.00     1731.1    0.49924E-01
 585.00     1732.0    0.52425E-01
 585.00     1732.4    0.64972E-01
 585.00     1733.3    0.59105E-01
 585.00     1734.5    0.49050E-01
 585.00     1735.3    0.53224E-01
 585.00     1736.2    0.59910E-01
 585.00     1737.0    0.57390E-01
 585.00     1738.7    0.60718E-01
 585.00     1739.1    0.67408E-01
 585.00     1739.9    0.69909E-01
 585.00     1740.4    0.82457E-01
 585.00     1741.6    0.78259E-01
 585.00     1742.5    0.82433E-01
 585.00     1743.7    0.86604E-01
 585.00     1745.0    0.84079E-01
 585.00     1746.2    0.81555E-01
 585.00     1747.4    0.72336E-01
 585.00     1749.1    0.69807E-01
 585.00     1749.5    0.63108E-01
 585.00     1750.7    0.56400E-01
 585.00     1751.5    0.43002E-01
 585.00     1752.3    0.36298E-01
 585.00     1754.0    0.39627E-01
 585.00     1755.3    0.49655E-01
 585.00     1757.0    0.74740E-01
 585.00     1758.8    0.11154
 585.00     1759.3    0.30475
 585.00     1760.6    0.42957
 585.00     1761.9     2.1025
 585.00     1763.0     6.3697
 585.00     1763.9     7.1223
 585.00     1764.9     2.6866
 585.00     1766.1     2.3512
 585.00     1766.9     1.2211
 585.00     1768.1    0.96932
 585.00     1768.9    0.67598
 585.00     1770.3     5.2835
 585.00     1770.6    0.59137
 585.00     1771.2     7.2072
 585.00     1772.5     11.808
 585.00     1773.7     10.050
 585.00     1774.4     4.8605
 585.00     1775.6     1.7629
 585.00     1777.7     1.5096
 585.00     1779.3     1.1730
 585.00     1781.4    0.91965
 585.00     1783.5    0.91734
 585.00     1785.1    0.99916
 585.00     1786.8    0.74627
 585.00     1789.3    0.82717
 585.00     1790.9    0.57428
 585.00     1792.6    0.57242
 585.00     1795.1    0.56964
 585.00     1796.8    0.56779
 585.00     1798.8    0.81651
 585.00     1799.8     5.5853
 585.00     1800.7     22.488
 585.00     1801.7     13.366
 585.00     1803.1     5.0795
 585.00     1803.5     2.6524
 585.00     1804.3     2.1494
 585.00     1805.1     1.7300
 585.00     1807.6     1.8109
 585.00     1808.5     2.2284
 585.00     1809.3     2.6459
 585.00     1810.2     3.9001
 585.00     1810.7     8.4184
 585.00     1812.0     9.2538
 585.00     1812.8     7.5793
 585.00     1813.9     4.1470
 585.00     1814.3     3.1424
 585.00     1816.0     2.7221
 585.00     1817.6     2.8040
 585.00     1818.9     2.8863
 585.00     1819.7     3.3037
 585.00     1821.0     3.5534
 585.00     1822.2     4.3051
 585.00     1823.5     5.1405
 585.00     1824.8     6.0596
 585.00     1826.1     7.3971
 585.00     1827.0     9.2371
 585.00     1828.3     11.160
 585.00     1829.7     20.029
 585.00     1829.9     12.163
 585.00     1831.4     18.270
 585.00     1832.6     16.176
 585.00     1834.1     10.484
 585.00     1834.4     7.8899
 585.00     1835.2     6.8848
 585.00     1836.0     5.7960
 585.00     1836.4     4.9588
 585.00     1837.2     4.2047
 585.00     1838.5     3.8686
 585.00     1840.1     3.4484
 585.00     1841.4     3.1959
 585.00     1842.2     2.8603
 585.00     1843.0     2.5247
 585.00     1844.7     2.7738
 975.00     1297.7    0.12563E-02
 975.00     1299.3    0.51678E-03
 975.00     1299.4    0.19453E-02
 975.00     1301.3    0.12807E-03
 975.00     1301.8    0.15503E-02
 975.00     1303.3    0.63222E-03
 975.00     1303.9    0.29473E-02
 975.00     1306.6    0.54095E-02
 975.00     1307.1    0.20040E-02
 975.00     1308.7    0.21573E-02
 975.00     1310.0    0.28527E-02
 975.00     1310.7    0.15900E-02
 975.00     1312.3    0.85049E-03
 975.00     1312.8    0.17370E-02
 975.00     1315.2    0.16992E-02
 975.00     1317.2    0.95331E-03
 975.00     1319.3    0.16360E-02
 975.00     1320.8    0.89650E-03
 975.00     1323.2    0.68006E-03
 975.00     1324.9    0.13691E-02
 975.00     1326.9    0.98039E-03
 975.00     1328.6    0.13123E-02
 975.00     1331.0    0.10958E-02
 975.00     1332.6    0.71344E-03
 975.00     1333.9    0.14088E-02
 975.00     1335.4    0.66925E-03
 975.00     1337.5    0.13520E-02
 975.00     1338.3    0.62506E-03
 975.00     1339.9    0.11355E-02
 975.00     1340.6    -.12710E-03
 975.00     1341.9    0.56825E-03
 975.00     1342.8    0.14485E-02
 975.00     1345.2    0.87490E-03
 975.00     1347.2    0.10219E-02
 975.00     1348.9    0.99665E-03
 975.00     1349.3    0.20618E-02
 975.00     1350.7    0.34714E-02
 975.00     1351.8    0.22025E-02
 975.00     1353.0    0.14692E-02
 975.00     1354.5    0.90828E-03
 975.00     1355.4    0.14314E-02
 975.00     1357.8    0.85778E-03
 975.00     1467.6    0.25126E-03
 975.00     1469.6    0.23419E-03
 975.00     1471.2    0.15000E-04
 975.00     1473.3    0.61449E-03
 975.00     1474.5    -.12324E-04
 975.00     1476.2    0.59058E-03
 975.00     1477.8    0.57692E-03
 975.00     1479.5    0.76878E-03
 975.00     1481.1    0.13855E-03
 975.00     1483.1    0.12147E-03
 975.00     1485.2    0.30992E-03
 975.00     1486.4    0.50519E-03
 975.00     1488.9    0.48470E-03
 975.00     1490.5    0.59991E-04
 975.00     1492.1    0.25185E-03
 975.00     1493.3    0.24161E-03
 975.00     1495.4    0.19004E-04
 975.00     1497.4    0.19258E-05
 975.00     1499.9    0.18696E-03
 975.00     1502.4    0.78303E-03
 975.00     1504.0    0.15280E-03
 975.00     1505.7    0.11668E-02
 975.00     1507.7    0.12206E-03
 975.00     1509.3    0.72497E-03
 975.00     1512.3    0.50171E-02
 975.00     1513.7    0.10145E-01
 975.00     1514.4    0.68497E-02
 975.00     1515.5    0.31400E-02
 975.00     1517.1    0.20987E-02
 975.00     1517.2    0.35374E-02
 975.00     1519.2    0.14651E-02
 975.00     1520.0    0.84169E-03
 975.00     1520.8    0.24790E-02
 975.00     1522.0    0.16467E-02
 975.00     1522.9    0.22564E-02
 975.00     1523.7    0.32772E-02
 975.00     1524.6    0.38870E-02
 975.00     1525.1    0.61443E-02
 975.00     1526.2    0.51065E-02
 975.00     1527.0    0.44831E-02
 975.00     1528.6    0.30307E-02
 975.00     1529.5    0.48736E-02
 975.00     1530.3    0.26060E-02
 975.00     1531.0    0.11605E-02
 975.00     1533.1    0.11434E-02
 975.00     1534.7    0.92425E-03
 975.00     1535.9    0.13251E-02
 975.00     1536.8    0.19348E-02
 975.00     1538.8    0.89009E-03
 975.00     1540.8    0.66749E-03
 975.00     1542.0    0.40673E-04
 975.00     1543.3    0.64700E-03
 975.00     1544.9    0.83886E-03
 975.00     1546.6    0.61967E-03
 975.00     1547.8    -.21267E-03
 975.00     1548.6    0.60260E-03
 975.00     1549.4    0.12123E-02
 975.00     1551.1    0.78763E-03
 975.00     1551.9    0.16422E-03
 975.00     1553.1    0.15926E-02
 975.00     1554.8    0.75689E-03
 975.00     1555.2    0.19866E-02
 975.00     1556.8    0.23840E-02
 975.00     1557.6    0.15551E-02
 975.00     1558.8    0.72273E-03
 975.00     1561.3    0.28089E-02
 975.00     1562.5    0.44121E-02
 975.00     1563.0    0.85090E-02
 975.00     1564.3    0.24088E-01
 975.00     1564.8    0.31473E-01
 975.00     1565.3    0.38858E-01
 975.00     1565.8    0.48710E-01
 975.00     1565.8    0.53642E-01
 975.00     1566.0    0.73373E-01
 975.00     1566.9    0.13419
 975.00     1568.4    0.21638
 975.00     1568.7    0.25337
 975.00     1569.1    0.20566
 975.00     1569.7    0.12999
 975.00     1570.4    0.59247E-01
 975.00     1571.8    0.33707E-01
 975.00     1572.1    0.27939E-01
 975.00     1572.5    0.22992E-01
 975.00     1573.2    0.11456E-01
 975.00     1574.4    0.89485E-02
 975.00     1575.7    0.72633E-02
 975.00     1577.3    0.63866E-02
 975.00     1578.5    0.38793E-02
 975.00     1579.7    0.38383E-02
 975.00     1580.9    0.37973E-02
 975.00     1581.0    0.36211E-02
 975.00     1582.2    0.29943E-02
 975.00     1582.6    0.53869E-02
 975.00     1584.3    0.21552E-02
 975.00     1585.1    0.13262E-02
 975.00     1586.3    0.15215E-02
 975.00     1586.7    0.19291E-02
 975.00     1587.8    0.11376E-01
 975.00     1588.8    0.47894E-02
 975.00     1588.9    0.76667E-02
 975.00     1589.6    0.29328E-02
 975.00     1590.8    0.21005E-02
 975.00     1592.0    0.16792E-02
 975.00     1593.6    0.10490E-02
 975.00     1594.9    0.30940E-02
 975.00     1596.1    0.16451E-02
 975.00     1598.2    0.22445E-02
 975.00     1599.4    0.28509E-02
 975.00     1600.2    0.11998E-02
 975.00     1602.2    0.97725E-03
 975.00     1603.1    0.24091E-02
 975.00     1605.1    0.23920E-02
 975.00     1606.8    0.25839E-02
 975.00     1607.9    0.72391E-03
 975.00     1609.2    0.17413E-02
 975.00     1611.7    0.15153E-02
 975.00     1613.0    0.35603E-02
 975.00     1614.2    0.29334E-02
 975.00     1615.4    0.25121E-02
 975.00     1617.0    0.33206E-02
 975.00     1617.9    0.37248E-02
 975.00     1619.9    0.28856E-02
 975.00     1620.7    0.41119E-02
 975.00     1622.0    0.55403E-02
 975.00     1623.2    0.49135E-02
 975.00     1623.7    0.55267E-02
 975.00     1625.2    0.40744E-02
 975.00     1625.7    0.63317E-02
 975.00     1626.9    0.50883E-02
 975.00     1627.8    0.77533E-02
 975.00     1628.2    0.69278E-02
 975.00     1629.7    0.10392E-01
 975.00     1630.1    0.14489E-01
 975.00     1630.6    0.18586E-01
 975.00     1631.9    0.31699E-01
 975.00     1632.8    0.36604E-01
 975.00     1634.0    0.32452E-01
 975.00     1634.4    0.38193E-01
 975.00     1635.2    0.86683E-01
 975.00     1636.4    0.12529
 975.00     1636.9    0.19353
 975.00     1638.6    0.19347
 975.00     1638.6    0.14085
 975.00     1639.7    0.87355E-01
 975.00     1640.3    0.52800E-01
 975.00     1642.5    0.26411E-01
 975.00     1643.3    0.16518E-01
 975.00     1644.8    0.10709E-01
 975.00     1645.8    0.71920E-02
 975.00     1646.0    0.73797E-02
 975.00     1646.5    0.13121E-01
 975.00     1647.0    0.47154E-02
 975.00     1647.0    0.65651E-02
 975.00     1648.1    0.30610E-02
 975.00     1649.8    0.34584E-02
 975.00     1649.8    0.55136E-02
 975.00     1651.8    0.38523E-02
 975.00     1651.9    0.48800E-02
 975.00     1653.0    0.28145E-02
 975.00     1655.5    0.23829E-02
 975.00     1657.5    0.11327E-02
 975.00     1659.1    0.21467E-02
 975.00     1659.9    0.90670E-03
 975.00     1661.2    0.17185E-02
 975.00     1662.8    0.12938E-02
 975.00     1664.1    0.27223E-02
 975.00     1665.7    0.14754E-02
 975.00     1667.7    0.22805E-02
 975.00     1668.5    0.10405E-02
 975.00     1670.6    0.30787E-02
 975.00     1671.4    0.16332E-02
 975.00     1673.0    0.18250E-02
 975.00     1674.3    0.14037E-02
 975.00     1675.9    0.15956E-02
 975.00     1677.5    0.13764E-02
 975.00     1678.4    0.26027E-02
 975.00     1679.6    0.15648E-02
 975.00     1680.8    0.52698E-03
 975.00     1682.1    0.27775E-02
 975.00     1683.3    0.19451E-02
 975.00     1684.1    0.91070E-03
 975.00     1685.4    0.29557E-02
 975.00     1686.5    0.17123E-02
 975.00     1688.6    0.23118E-02
 975.00     1689.8    0.18905E-02
 975.00     1691.1    0.27023E-02
 975.00     1692.3    0.33087E-02
 975.00     1694.4    0.32916E-02
 975.00     1695.2    0.26682E-02
 975.00     1696.0    0.38945E-02
 975.00     1697.3    0.59395E-02
 975.00     1697.8    0.88134E-02
 975.00     1698.6    0.18470E-01
 975.00     1699.3    0.40872E-01
 975.00     1700.4    0.50525E-01
 975.00     1700.7    0.46411E-01
 975.00     1701.6    0.35302E-01
 975.00     1702.6    0.17202E-01
 975.00     1703.9    0.75290E-02
 975.00     1704.3    0.54704E-02
 975.00     1705.9    0.50457E-02
 975.00     1707.5    0.54431E-02
 975.00     1709.1    0.33742E-02
 975.00     1710.4    0.43915E-02
 975.00     1712.0    0.39668E-02
 975.00     1713.6    0.35421E-02
 975.00     1713.7    0.49808E-02
 975.00     1715.3    0.49671E-02
 975.00     1715.7    0.57858E-02
 975.00     1716.9    0.45424E-02
 975.00     1718.2    0.55598E-02
 975.00     1720.3    0.61593E-02
 975.00     1720.6    0.45117E-02
 975.00     1722.7    0.53167E-02
 975.00     1724.4    0.65362E-02
 975.00     1725.6    0.59093E-02
 975.00     1726.8    0.56936E-02
 975.00     1727.2    0.71288E-02
 975.00     1728.9    0.64986E-02
 975.00     1730.1    0.79270E-02
 975.00     1731.3    0.66836E-02
 975.00     1732.2    0.81155E-02
 975.00     1733.8    0.72797E-02
 975.00     1734.2    0.83039E-02
 975.00     1735.0    0.74750E-02
 975.00     1735.4    0.64439E-02
 975.00     1737.0    0.60192E-02
 975.00     1737.9    0.68345E-02
 975.00     1738.3    0.86808E-02
 975.00     1739.1    0.74408E-02
 975.00     1740.4    0.96913E-02
 975.00     1741.2    0.78348E-02
 975.00     1741.9    0.47451E-02
 975.00     1742.0    0.65948E-02
 975.00     1744.0    0.63722E-02
 975.00     1745.1    0.41012E-02
 975.00     1746.3    0.24468E-02
 975.00     1748.0    0.30497E-02
 975.00     1749.6    0.20084E-02
 975.00     1751.2    0.13782E-02
 975.00     1752.4    0.11624E-02
 975.00     1753.6    0.74109E-03
 975.00     1754.5    0.11453E-02
 975.00     1755.7    0.23682E-02
 975.00     1757.8    0.21456E-02
 975.00     1759.0    0.37796E-02
 975.00     1759.9    0.52114E-02
 975.00     1761.2    0.60232E-02
 975.00     1762.4    0.18553E-01
 975.00     1763.9    0.51845E-01
 975.00     1764.9    0.56565E-01
 975.00     1765.9    0.38465E-01
 975.00     1766.9    0.30029E-01
 975.00     1767.9    0.24862E-01
 975.00     1767.9    0.23442E-01
 975.00     1769.6    0.48978E-01
 975.00     1770.4    0.81589E-01
 975.00     1771.8    0.23738
 975.00     1772.8    0.50017
 975.00     1774.0    0.36823
 975.00     1775.0    0.13763
 975.00     1776.1    0.22129E-01
 975.00     1778.2    0.21446E-01
 975.00     1780.2    0.12542E-01
 975.00     1782.3    0.20080E-01
 975.00     1783.9    0.11313E-01
 975.00     1785.5    0.27208E-01
 975.00     1787.6    0.18304E-01
 975.00     1789.6    0.17621E-01
 975.00     1791.7    0.16938E-01
 975.00     1792.9    0.16528E-01
 975.00     1794.9    0.15845E-01
 975.00     1796.6    0.15298E-01
 975.00     1798.6    0.22836E-01
 975.00     1800.3    0.63394E-01
 975.00     1800.8    0.15369
 975.00     1802.4    0.10382
 975.00     1802.7    0.37912E-01
 975.00     1805.2    0.28871E-01
 975.00     1807.3    0.52851E-01
 975.00     1808.5    0.85325E-01
 975.00     1809.4    0.13438
 975.00     1810.7    0.24084
 975.00     1810.8    0.39704
 975.00     1812.0    0.37197
 975.00     1813.6    0.32209
 975.00     1814.3    0.20673
 975.00     1815.1    0.16535
 975.00     1817.1    0.14000
 975.00     1818.8    0.15590
 975.00     1820.5    0.18001
 975.00     1821.7    0.18783
 975.00     1823.0    0.22852
 975.00     1823.8    0.30224
 975.00     1825.1    0.37581
 975.00     1826.0    0.49063
 975.00     1827.4    0.64642
 975.00     1828.7    0.76111
 975.00     1830.0    0.85935
 975.00     1831.2     1.3523
 975.00     1831.6     1.2535
 975.00     1833.1     1.0721
 975.00     1834.0    0.68534
 975.00     1835.1    0.51229
 975.00     1835.4    0.45461
 975.00     1836.2    0.37213
 975.00     1836.9    0.32253
 975.00     1838.1    0.26457
 975.00     1839.3    0.21483
 975.00     1840.1    0.18168
 975.00     1841.7    0.16469
 975.00     1842.5    0.13153
 975.00     1843.7    0.11468
 975.00     1844.9    0.10605
ENDDATA            969
ENDSUBENT          983
SUBENT        F0545006   20030807   20050616   20050926       0000
BIB                  3          7
REACTION   (12-MG-25(P,INL)12-MG-25,PAR,SIG)
ERR-ANALYS (EN-ERR-DIG) Digitizing error
           (ERR-DIG) Digitizing error
           (DATA-ERR1) The errors of a factor 2 in
           the experimental points originate from the errors
           in the target thickness
STATUS     (CURVE) Fig.5
ENDBIB               7
COMMON               3          3
E-LVL      EN-ERR-DIG ERR-DIG
KEV        MEV        PER-CENT
  585.0      0.001      0.2
ENDCOMMON            3
DATA                 3         14
EN         DATA       DATA-ERR1
KEV        MB         MB
0.92525    0.10553E-030.94418E-04
0.94340    0.46354E-040.34248E-04
 1.0224    0.69958E-030.51687E-03
 1.0632    0.55101E-030.49262E-03
 1.0839    0.94613E-030.80813E-03
 1.2709    0.44019    0.20778
 1.2918    0.72435    0.97289
 1.3363    0.14326    0.11677
 1.3430    0.34380    0.30712
 1.6294     1.5420    0.77821
 1.6494    0.67786    0.69065
 1.6790    0.18730    0.18287
 1.7132    0.16021    0.14323
 1.7734    0.38470    0.32832
ENDDATA             16
ENDSUBENT           32
ENDENTRY             6
