ENTRY            F0585   20081111   20090323   20090318       F034
SUBENT        F0585001   20081111   20090323   20090318       F034
BIB                 11         37
TITLE      Spin and parity assignments for 17O levels from the
           13C(a,n)16O g.s. reaction.
AUTHOR     (A.D.Robb,W.A.Schier,E.Sheldon)
INSTITUTE  (1USAVIR)
REFERENCE  (J,NP/A,147,423,1970)
FACILITY   (VDG)
DETECTOR   (SCIN) A 2.5 cm diameter*2.5 cm long stilbene crystal
           and a 2.5 cm diameter*5.0 cm long NE213 liquid
           scintillator. A further 5.0 cm diameter*2.5 cm long
           NE213 monitor detector was arranged 20 cm from the
           target perpendicular to the incident beam direction.
SAMPLE     The targets were prepared by heating a 380 mu-m thick
           tantalum strip in the presence of 13C enriched methyl
           iodide, thereby cracking a durable carbon layer
           enriched to 50.5% in 13C directly onto the strip.
           Target thickness was determined by measuring
           13C(a,n0)16O excitation functions with, respectively, a
           thick and the unknown thin target over four sharp
           resonances between Ea=3.5 and 5 MeV. By comparing
           integrated yields in corresponding resonances, a thin
           target value of 30.0+-1.7 mu-g/cm2 was derived,
           entailing an energy loss of 25 keV at Ea=4.5 MeV and
           15 keV at Ea=10.5 MeV.
METHOD     (PSD)
CORRECTION The measured yields were corrected for the energy-
           dependent detector efficiency, normalized to the
           monitor counts, and converted to an absolute scale by
           normalization to the 0 degr. yield curve.
ERR-ANALYS Random experimental errors were in general quite small,
           of the order of 1-2%, but the overall absolute error in
           the cross section was determined by that assigned to
           the excitation function and consequently ranged from
            +- 10% at the lower incident energies to +- 30% at the
           high-energy region.
           (ANG-ERR) Absolute error of the angular distributions
           (ERR-DIG) Data digitizing error
HISTORY    (20081020C)
ENDBIB              37
COMMON               2          3
E-LVL      ANG-ERR
MEV        ADEG
 0.          1.
ENDCOMMON            3
ENDSUBENT           44
SUBENT        F0585002   20081111   20090323   20090318       F034
BIB                  3          4
REACTION   (6-C-13(A,N)8-O-16,PAR,DA)
ERR-ANALYS (ANG-ERR-D) Angle digitizing error
           (DATA-ERR)  Error from the graphic bars
STATUS     (CURVE) Fig.3,8-11
ENDBIB               4
COMMON               2          3
ANG-ERR-D  ERR-DIG
ADEG       MB/SR
 0.255      0.011
ENDCOMMON            3
DATA                 4        320
EN         ANG-CM     DATA-CM    DATA-ERR
MEV        ADEG       MB/SR      MB/SR
      4.995    0.92294      30.11    0.49559
      4.995     10.321     26.915    0.55066
      4.995     21.557     19.976    0.44053
      4.995     32.525     12.817    0.38546
      4.995     43.499     8.6307
      4.995     54.745     6.5924
      4.995     65.458     5.9307
      4.995     75.904     5.8748
      4.995     86.082     5.4885
      4.995     96.259     4.7167
      4.995     106.17     4.5507
      4.995     116.08     3.9442
      4.995     125.99      3.613
      4.995      135.1     3.7223
      4.995      144.2      4.107
      4.995     153.04     4.4367
      4.995     162.15     5.0417
      4.995     167.24     5.1514
      5.185    0.58173     23.017    0.60606
      5.185     10.344     21.031    0.55096
      5.185     21.528     16.567    0.55098
      5.185     32.443     11.606    0.49587
      5.185     43.893     7.1418
      5.185     54.818     4.8811
      5.185     65.481     3.8326
      5.185     76.147     3.5555
      5.185     86.012     3.1132
      5.185     96.145     3.0014
      5.185     106.28     2.7794
      5.185     115.88     2.3922
      5.185     125.21      2.556
      5.185     134.28     3.5463
      5.185     143.36      5.859
      5.185     152.44     9.6041
      5.185     161.25     13.239
      5.185     166.32     14.561    0.44077
       5.37    0.20193      11.29
       5.37     11.111     11.021
       5.37     16.964     9.8923
       5.37     21.754     9.4084
       5.37     27.873     8.3331
       5.37     32.928      6.989
       5.37     38.782     5.6986
       5.37     43.837     4.5158
       5.37     49.956     3.6017
       5.37     55.012     2.6877
       5.37     60.333       2.15
       5.37     65.654     1.7199
       5.37     70.976     1.6661
       5.37     75.765     1.7198
       5.37     81.087     2.0423
       5.37     86.408     2.1498
       5.37     91.198     2.4723
       5.37     96.253     2.6336
       5.37     101.04     2.7948
       5.37     105.83     2.6335
       5.37     111.15     2.2571
       5.37     115.94     1.7194
       5.37       121.     1.3968
       5.37     125.79    0.96666
       5.37     129.78     1.0204
       5.37      135.1     1.0203
       5.37     139.89     1.2354
       5.37     143.88     1.8267
       5.37     148.94     2.5256
       5.37     152.66     3.7084
       5.37     157.72     4.5685
       5.37     161.71     5.5362
       5.37     166.76     6.0201
      5.415 5.7606E-02     12.838    0.43243
      5.415     11.148     12.294    0.48648
      5.415     16.749     11.805     0.3782
      5.415     22.609     10.344
      5.415     27.939     9.3151
      5.415     33.268     8.1782
      5.415      38.86     6.6088
      5.415     43.919     5.0936
      5.415     49.514     3.8485
      5.415      55.11     2.7116
      5.415     60.976      2.061
      5.415     65.776     1.5189
      5.415     71.647     1.3547
      5.415     76.453     1.5694
      5.415     81.527     1.9461
      5.415     86.333     2.1607
      5.415     91.674     2.5373
      5.415      96.75     3.0762
      5.415     101.56     3.2367
      5.415      106.9     3.4512
      5.415     111.43     3.0713
      5.415     116.76      2.475
      5.415     121.56     2.2031
      5.415      126.1     1.7151
      5.415     131.17      1.281
      5.415     135.43     1.1174
      5.415     140.24     1.1699
      5.415     144.25     1.4388
      5.415     149.32      2.302
      5.415     153.07     3.1116
      5.415     157.35     4.1372
      5.415     161.89     5.0006
      5.415     166.97     5.9718
       5.54     0.5278     12.059
       5.54     5.2936     11.762
       5.54       11.1     10.288
       5.54     22.229     7.4394
       5.54     27.064     5.8684
       5.54     32.875      4.787
       5.54     44.027     3.7028
       5.54     54.708     3.7954
       5.54     65.865     3.2014
       5.54     76.058     3.0981
       5.54     85.759     2.5049
       5.54     96.439     2.4994
       5.54     106.63     2.5922
       5.54     114.88     2.2938
       5.54     125.56     2.0923
       5.54     135.27     2.4794
       5.54     144.02     3.1612
       5.54     152.76     3.4508
       5.54     161.98      3.152
       5.54     166.34     2.7576
       5.79 7.4100E-03     10.784
       5.79     11.653     10.092
       5.79     21.838     8.1257
       5.79     33.477     5.7666
       5.79     44.148     3.7022
       5.79     55.312     2.2258
       5.79     66.486     1.5337
       5.79     76.214     1.8227
       5.79     86.434     2.5036
       5.79     96.658     3.5767
       5.79     106.87     3.9635
       5.79     116.11     3.6645
       5.79     125.82     2.7771
       5.79     135.05     2.2821
       5.79     143.81     2.5716
       5.79     153.06      3.253
       5.79     162.31     4.4246
       5.79     172.04     5.3019
      5.995     0.1155     3.8166
      5.995     11.399     3.7117
      5.995     16.801     4.1067
      5.995     22.687      3.905
      5.995     33.479     3.7009
      5.995     44.263     2.9003
      5.995     50.147     2.4997
      5.995     55.047     2.0002
      5.995     60.937     2.1962
      5.995     65.851     2.7904
      5.995     76.171     4.1773
      5.995     86.499     6.2602
      5.995     96.818     7.5478
      5.995     101.25     8.6393
      5.995     106.64     7.9407
      5.995     116.43     6.1463
      5.995     121.82     5.4477
      5.995     125.24     4.4518
      5.995     131.13     4.5483
      5.995     135.06     5.0435
      5.995     144.43     9.1154
      5.995     153.35      16.27
      5.995     162.76      24.12
      5.995     171.65     29.186
       6.22     0.7018     3.7685
       6.22     10.712     3.3735
       6.22     22.122     2.3136
       6.22     33.049     1.7956
       6.22     43.981     1.9179
       6.22     50.056      2.213
       6.22      55.16     2.5821
       6.22     66.091     2.4828
       6.22     71.193     2.5809
       6.22     76.049     2.3096
       6.22     81.634     2.0137
       6.22     85.761     1.6685
       6.22     96.692     1.5938
       6.22     106.65     1.9133
       6.22     111.03     2.2085
       6.22     116.13     2.4052
       6.22     125.36     2.6016
       6.22     135.08     2.5023
       6.22     144.07     2.3293
       6.22      153.3     2.2054
       6.22     162.28     2.4264
       6.22     171.27     2.5243
       6.48     1.1129     4.4365    0.14545
       6.48     12.195     4.0562
       6.48     23.476     2.7123
       6.48     34.385     1.5502
       6.48     45.284     1.1518
       6.48     56.543      1.317
       6.48     67.066     1.3003
       6.48      77.22     1.2835
       6.48     87.748    0.93953
       6.48     97.352    0.68633
       6.48     107.32    0.79682
       6.48     116.55     1.0163
       6.48     126.88     1.5632
       6.48     135.55     1.9281
       6.48     145.14     2.3294
       6.48     153.46     1.9669
       6.48     162.69     1.5319
       6.48     171.19     1.0422    0.18182
       7.16     0.3652     11.275     0.3423
       7.16      5.441     10.835     0.3179
       7.16     10.998     10.174     0.2933
       7.16     16.775      7.435     0.2934
       7.16     22.808     6.0162     0.2445
       7.16     28.098     3.0817
       7.16     33.171     2.3965
       7.16     38.965     1.1978
       7.16     44.529     1.2216
       7.16     49.367     1.0988
       7.16     55.178     1.5138
       7.16     60.745     1.7333
       7.16     66.068      1.806
       7.16     70.903     1.4387
       7.16     76.469     1.6093
       7.16     86.384     1.2414
       7.16     91.951     1.4608
       7.16     97.036      1.827
       7.16     101.63     1.6309
       7.16     106.71     1.7281
       7.16     111.55      1.312
       7.16     116.39     1.3359
       7.16     120.74     0.9442
       7.16     125.82     1.5304
       7.16     130.42     1.8233
       7.16     135.03     2.3851
       7.16     139.87      3.167     0.2446
       7.16     144.24     3.9244       0.22
       7.16     149.07     3.6305     0.1956
       7.16     152.94     3.7034     0.2203
       7.16      161.9     3.8002     0.2202
       7.16     167.45     3.2128     0.1711
       7.98    0.36809     4.8634     0.2459
       7.98     11.425     4.9719     0.2459
       7.98      17.08     3.6874     0.2186
       7.98     22.472     3.5778     0.1912
       7.98      28.13     2.8124     0.1913
       7.98     33.253     2.7028
       7.98     44.308     2.4288     0.2459
       7.98     55.361     2.0456
       7.98     60.749     1.2256
       7.98     66.141     1.0339
       7.98     76.386     0.6508
       7.98     86.633     0.5408
       7.98      97.15     0.5401
       7.98     102.27     0.6491
       7.98     107.13     1.0586
       7.98     116.57     1.2492
       7.98     126.28     1.4672
       7.98     135.72     1.2753
       7.98     144.07     1.0562
       7.98     153.78     0.9462
       7.98     162.41      0.973
       7.98     168.07      0.918
       8.02    0.17334     6.4754     0.2459
       8.02     11.204     6.2835     0.3005
       8.02     16.581      5.682     0.2733
       8.02     22.227     4.8893     0.2186
       8.02      27.87     3.7141     0.2187
       8.02     33.516     3.0034     0.2185
       8.02     44.007     2.7022
       8.02     50.193     2.3466
       8.02     55.301     1.5539
       8.02     66.329     1.0614
       8.02     76.552     0.8696
       8.02     87.044     0.5684     0.1913
       8.02     97.001     0.8683
       8.02     102.38     1.0592
       8.02     107.23     1.4687
       8.02     116.65     1.6867
       8.02     126.06     1.4676
       8.02     135.75     1.2757
       8.02     144.62     0.8653
       8.02     153.77     0.8648
       8.02     162.92     1.3014
       8.02     168.57      1.383
      8.328 9.3501E-02     9.6812     0.3552
      8.328     10.959     9.3794     0.3278
      8.328     17.154     8.6956     0.3825
      8.328     22.261     7.2196     0.2732
      8.328     33.292     4.9779     0.2732
      8.328     44.063     3.5833     0.2186
      8.328     55.373     2.1612
      8.328     65.879     1.2584
      8.328     76.391     0.7654
      8.328     86.642      1.092
      8.328      96.89     1.2275
      8.328     101.75     1.6641
      8.328     106.61     2.1007
      8.328     116.32     2.0995
      8.328     126.02     1.9618
      8.328     135.46     2.1793
      8.328     144.09      1.987
      8.328     153.53     1.7674
      8.328      162.7     2.0122     0.1913
      8.328     167.82     1.6838
      8.657 4.2138E-02     12.397     0.5985
      8.657     10.963     11.417     0.5713
      8.657     16.864     9.2407     0.5169
      8.657     22.495     6.0578     0.3264
      8.657     27.864     5.5408     0.2992
      8.657     33.498     4.0445      0.272
      8.657     44.235     3.2554      0.273
      8.657     54.971     2.3575     0.2176
      8.657     65.976     1.4595
      8.657     76.714     1.0513     0.2448
      8.657     86.915     0.8878
      8.657     97.117     1.2685
      8.657     107.05     1.7851     0.2176
      8.657     116.72     2.0569     0.2448
      8.657     126.11     2.1928     0.2176
      8.657     135.78      2.383     0.2177
      8.657     144.37     2.5732     0.2176
      8.657      153.5     2.8995     0.2176
      8.657     162.36     3.4706     0.2447
      8.657     167.73     3.5793     0.2448
ENDDATA            322
ENDSUBENT          335
SUBENT        F0585003   20081111   20090323   20090318       F034
BIB                  3          3
REACTION   (6-C-13(A,N)8-O-16,PAR,DA)
ERR-ANALYS (EN-ERR-DIG) Energy digitizing error
STATUS     (CURVE) Fig.4
ENDBIB               3
COMMON               3          3
ANG        EN-ERR-DIG ERR-DIG
ADEG       MEV        MB/SR
 0.         0.011      0.026
ENDCOMMON            3
DATA                 2        265
EN         DATA
MEV        MB/SR
     4.5138     3.3581
     4.5319     3.5445
      4.556      3.793
      4.564     3.9172
      4.569     5.4735
     4.5705     26.001
     4.5777     36.203
     4.5943     23.886
     4.6344     6.7158
     4.6645     7.1509
     4.6826     7.5239
     4.7067     7.7103
     4.7307     7.3367
     4.7486     6.1546
     4.7725     5.0967
     4.7904     4.2256
     4.8144     3.4166
     4.8323     2.2966
     4.8502     1.4255
     4.8743     1.6741
     4.8924     2.4825
     4.9106     4.0997
     4.9289     6.7122
     4.9414     10.693
     4.9484     19.776
     4.9617     31.035
     4.9622      35.39
     4.9683     36.198
     4.9865     37.442
     4.9984     36.136
     5.0043     35.451
     5.0097      29.79
     5.0447     20.272
     5.0686     19.401
     5.0868     20.521
      5.117     21.951
     5.1292     24.128
     5.1476     26.927
     5.1598     28.731
     5.1897     27.113
     5.2076     26.429
     5.2254       24.5
     5.2492     22.385
     5.2671     20.705
      5.285     19.585
     5.3088     17.532
     5.3383     12.617
     5.3505     14.172
     5.3745     14.234
     5.3926     14.856
     5.4108     15.789
     5.4346     13.611
     5.4522     10.376
     5.4938     6.0211
     5.5185     12.055
     5.5309     14.854
     5.5547     13.299
     5.5725      11.37
     5.5904     10.001
     5.6023     9.0057
     5.6383      8.321
     5.6503     8.0098
     5.6683     7.7608
     5.7165     8.6311
     5.7286     9.5019
     5.7468     11.057
      5.771     12.736
      5.789     12.487
     5.8009     11.118
     5.8306     8.6297
     5.8545     6.6388
     5.8724     5.3944
     5.8963     4.6476
     5.9143     4.4608
     5.9323     4.1495
     5.9563      4.087
     5.9864     4.4599
     6.0164     4.0863
     6.0405     3.7749
     6.0705     3.4635
     6.0945       3.09
     6.1185     2.7164
     6.1364     2.2186
     6.1606      3.027
     6.1787      3.711
     6.1968     4.1463
     6.2148     4.6437
     6.2388     4.3324
     6.2568     3.9589
     6.2808      3.461
     6.3048     3.2118
     6.3409     3.0248
     6.3589     3.3356
      6.371     3.8331
     6.3951     4.1439
     6.4192     4.5168
     6.4372     4.7654
     6.4493     5.1385
     6.4673     5.3871
     6.4973     4.8891
     6.5214       4.64
     6.5514     4.9507
     6.5755     4.7015
     6.6115     4.8877
     6.6296     5.1363
     6.6596     4.8871
     6.6836     4.8246
     6.7198     5.3219
     6.7498     5.1349
     6.7738     4.8235
     6.7978     4.3878
     6.8098     4.0766
     6.8337     3.4542
     6.8577     2.8941
     6.8757     2.0852
     6.8997     1.7738
     6.9237     1.7735
     6.9418     2.0843
     6.9598     2.2708
     6.9779     2.3327
     6.9959     2.4569
      7.014     2.7678
     7.0381     3.4518
     7.0502     4.5713
     7.0744     5.6908
     7.0925     6.6859
     7.1107     8.0543
      7.129     10.045
     7.1535     14.026
     7.1709     8.5512
     7.2309     7.6173
      7.291     7.6166
      7.315     7.8029
     7.3449     6.1852
     7.3748      4.754
     7.3988     4.8781
     7.4169     5.3756
      7.435     5.8108
      7.447     5.5618
     7.4711     5.8104
     7.4932     6.1831
      7.513      4.939
     7.5371     5.1875
     7.5792      5.187
     7.6032     4.8757
     7.6272     4.5643
     7.6512     4.3774
     7.6753     4.5637
     7.6873     4.9368
     7.7114     5.4964
     7.7415      5.185
     7.7715      4.687
     7.7954     4.0024
     7.8194     3.3178
     7.8313     2.6334
     7.8553      2.011
     7.8793     1.6375
     7.9154     1.9481
     7.9335     2.3833
     7.9699     5.9909
     8.0123     8.2299
      8.036     5.2436
     8.0539     4.2481
     8.0599     4.5591
       8.09     4.6831
      8.114     4.6828
     8.1381     5.2424
     8.1622     5.6153
     8.1743     6.1129
     8.1924     7.0458
     8.2166     8.6007
     8.2287     8.9738
     8.2528     9.0357
     8.2766     7.6668
     8.2949     9.5328
     8.3071     10.963
     8.3192     12.145
     8.3372     11.958
     8.3552     11.585
     8.3792     10.776
      8.415     8.9715
     8.4391     9.3445
     8.4632     10.091
     8.4933     10.401
     8.5234     10.712
     8.5414     10.898
     8.5655     11.209
     8.5836     11.707
     8.6078     13.137
     8.6319     13.759
     8.6502     15.625
     8.6802     15.127
      8.692     13.758
     8.7159     12.078
     8.7511     4.8617
     8.7812     4.7991
     8.8112     4.4255
     8.8592     4.1761
     8.8952     3.8646
     8.9193     3.6777
     8.9433     3.9262
     8.9614     4.1748
     8.9854     3.8013
     9.0094     3.9876
     9.0515     3.9249
     9.0815     3.3647
     9.1056     4.0487
     9.1296     3.7995
     9.1437     3.8611
     9.1657     4.1724
     9.2018     4.6696
     9.2259     4.8559
      9.244     5.4778
     9.2621     6.3485
     9.2862     6.5348
     9.3043     7.1567
     9.3224     7.7163
     9.3465     8.7113
     9.3546     8.7108
     9.3647     9.4576
     9.4248     9.8923
     9.4429     10.328
      9.461     10.825
      9.491     11.011
     9.5272     11.695
     9.5452      11.57
      9.563     9.4552
     9.5871     10.201
     9.6172     10.325
     9.6592     10.263
     9.6893     10.573
     9.7094     10.199
     9.7133     9.5156
     9.7313     9.3287
     9.7793     9.1415
     9.7973     8.2704
     9.8152     7.3993
     9.8331     6.5903
      9.851     5.4704
     9.8689     4.0394
     9.8928     3.2304
     9.9168     2.2348
     9.9408     2.1723
     9.9649     2.4208
     9.9829     2.1095
     9.9949     1.8606
     10.013     1.6737
     10.061     2.0464
     10.073     2.3576
     10.091     2.6059
     10.109      2.419
     10.145      2.543
     10.163      2.916
     10.199     2.8534
     10.213     2.3551
     10.223     3.3508
     10.253     3.3504
     10.278      4.221
     10.302     3.5364
      10.32     3.4118
     10.344     3.5981
     10.367      1.856
      10.41     2.6642
     10.458      2.477
     10.488     2.8499
ENDDATA            267
ENDSUBENT          279
ENDENTRY             3
