ENTRY            F0597   20050623   20050831                  F022
SUBENT        F0597001   20050623   20050831                  F022
BIB                 11         22
TITLE      Study of alpha-gamma correlation in the reaction plane
           and the mechanism of the 28Si(a,ag)28Si reaction.
AUTHOR     (K.Bodek,A.Budzanowski,L.Jarczyk,R.Kulessa,J.Majewski,
            A.Strzalkowski,W.Walus,G.Willim)
INSTITUTE  (3POLUJK,3POLIFJ)
REFERENCE  (J,APP/B,13,767,1982)
FACILITY   (CYCLO,3POLIFJ) U-120 cyclotron.
INC-SOURCE The beam with intensity 60 nA.
DETECTOR   (SIBAR) A silicon surface barrier detector located in
           the scattering chamber was used to detect alpha
           particles.
           (NAICR) Gamma rays were detected with 3*3 inches
           12S8/E-O Harshaw NaI(Ti) scintillation detector. Its
           angular resolution was +-12 deg. The range of angles
           accessible to the gamma detector was from 40 to 140 deg
METHOD     (COINC)
           (BCINT)
SAMPLE     Self supporting silicon target of the thickness 150
           mu-g/cm2.
ERR-ANALYS (ANG-ERR-D)  Digitizing error
           (ERR-DIG)    Digitizing error
HISTORY    (20031119C)
ENDBIB              22
COMMON               1          3
ANG-RSL
ADEG
 2.
ENDCOMMON            3
ENDSUBENT           29
SUBENT        F0597002   20050623   20050831                  F022
BIB                  5         10
REACTION   (14-SI-28(A,INL)14-SI-28,PAR,DA/DA,A/G,REL)
           ANG1 is an angle of alpha particles detection.
           ANG2 is an angle of gamma particles detection.
COMMENT    The normalized correlation functions were calculated
           from the measured number of coincidences Nc for the
           random coincidences and the number of counts in the
           corresponding peaks in single spectra N.
EN-SEC     (E-LVL,14-SI-28)
ERR-ANALYS (DATA-ERR) Errors from the graphic bars
STATUS     (CURVE)FIG.6,7,8,9
ENDBIB              10
COMMON               2          3
ANG-ERR-D  ERR-DIG
ADEG       ARB-UNITS
 0.02       0.001
ENDCOMMON            3
DATA                 6        216
E-LVL      EN         ANG1       ANG2       DATA       DATA-ERR
MEV        MEV        ADEG       ADEG       ARB-UNITS  ARB-UNITS
 1.7800     27.500     31.400     39.134    0.54280    0.46832E-01
 1.7800     27.500     31.400     39.470    0.48495    0.57851E-01
 1.7800     27.500     31.400     49.333    0.84589    0.46832E-01
 1.7800     27.500     31.400     59.033    0.98092    0.60606E-01
 1.7800     27.500     31.400     69.067     1.1132    0.52342E-01
 1.7800     27.500     31.400     78.610    0.75238    0.46832E-01
 1.7800     27.500     31.400     89.320    0.54582    0.44077E-01
 1.7800     27.500     31.400     99.363    0.26213    0.57851E-01
 1.7800     27.500     31.400     108.56    0.20433    0.46832E-01
 1.7800     27.500     31.400     118.93    0.34488    0.49587E-01
 1.7800     27.500     31.400     128.30    0.60388    0.55096E-01
 1.7800     27.500     31.400     138.50    0.89870    0.57851E-01
 1.7800     27.500     45.500     50.188    0.28446    0.35714E-01
 1.7800     27.500     45.500     59.752    0.40263    0.49451E-01
 1.7800     27.500     45.500     59.753    0.39027    0.56319E-01
 1.7800     27.500     45.500     69.482    0.54141    0.32967E-01
 1.7800     27.500     45.500     78.882    0.59639    0.41209E-01
 1.7800     27.500     45.500     89.127    0.56072    0.43956E-01
 1.7800     27.500     45.500     99.546    0.41790    0.49451E-01
 1.7800     27.500     45.500     109.46    0.28470    0.39835E-01
 1.7800     27.500     45.500     119.20    0.21881    0.31593E-01
 1.7800     27.500     45.500     129.62    0.17901    0.34341E-01
 1.7800     27.500     45.500     139.85    0.32741    0.39835E-01
 1.7800     27.500     52.100     40.601    0.33150    0.77348E-01
 1.7800     27.500     52.100     50.921    0.66299    0.88398E-01
 1.7800     27.500     52.100     60.902     1.0332    0.91160E-01
 1.7800     27.500     52.100     70.375     1.2542    0.10773
 1.7800     27.500     52.100     80.357     1.0221    0.99447E-01
 1.7800     27.500     52.100     90.000    0.78730    0.82873E-01
 1.7800     27.500     52.100     99.981    0.40609    0.71823E-01
 1.7800     27.500     52.100     109.79    0.24035    0.69061E-01
 1.7800     27.500     52.100     119.61    0.30388    0.58011E-01
 1.7800     27.500     52.100     129.59    0.49449    0.71823E-01
 1.7800     27.500     52.100     139.40    0.71825    0.10773
 1.7800     27.500     72.700     43.802    0.39386    0.53073E-01
 1.7800     27.500     72.700     48.593    0.54749    0.55866E-01
 1.7800     27.500     72.700     58.517    0.78492    0.67039E-01
 1.7800     27.500     72.700     64.334    0.94134    0.69832E-01
 1.7800     27.500     72.700     69.125     1.2458    0.92179E-01
 1.7800     27.500     72.700     79.049     1.3799    0.92179E-01
 1.7800     27.500     72.700     84.353     1.5587    0.10615
 1.7800     27.500     72.700     89.486     1.2095    0.72626E-01
 1.7800     27.500     72.700     99.068    0.98325    0.83799E-01
 1.7800     27.500     72.700     103.69    0.67040    0.81006E-01
 1.7800     27.500     72.700     107.79    0.49721    0.53073E-01
 1.7800     27.500     72.700     118.40    0.20113    0.53073E-01
 1.7800     27.500     72.700     123.19    0.23185    0.47486E-01
 1.7800     27.500     72.700     128.16    0.29051    0.41899E-01
 1.7800     27.500     72.700     133.12    0.35476    0.61453E-01
 1.7800     27.500     72.700     138.08    0.44414    0.55866E-01
 4.6200     24.000     167.40     58.641     1.3981    0.22761
 4.6200     24.000     167.40     78.176     1.0128    0.12506
 4.6200     24.000     167.40     98.714    0.95009    0.13506
 4.6200     24.000     167.40     118.77    0.94242    0.12256
 4.6200     24.000     167.40     138.60     1.2749    0.14257
 4.6200     26.000     162.30     37.148     1.0963    0.89370E-01
 4.6200     26.000     162.30     47.475     1.1062    0.10427
 4.6200     26.000     162.30     57.803     1.1310    0.91853E-01
 4.6200     26.000     162.30     77.718     1.0044    0.81923E-01
 4.6200     26.000     162.30     97.878    0.88024    0.69510E-01
 4.6200     26.000     162.30     108.45    0.76603    0.79440E-01
 4.6200     26.000     162.30     118.53    0.81567    0.49650E-01
 4.6200     26.000     162.30     128.86    0.84793    0.69510E-01
 4.6200     26.000     162.30     138.20    0.90998    0.81923E-01
 4.6200     26.000     167.40     37.888     1.1214    0.84615E-01
 4.6200     26.000     167.40     48.073     1.0417    0.10204
 4.6200     26.000     167.40     57.778     1.0864    0.16674
 4.6200     26.000     167.40     78.394     1.0042    0.94570E-01
 4.6200     26.000     167.40     98.282    0.88221    0.67195E-01
 4.6200     26.000     167.40     108.71    0.86226    0.67195E-01
 4.6200     26.000     167.40     118.42    0.89209    0.62217E-01
 4.6200     26.000     167.40     128.61    0.93435    0.69683E-01
 4.6200     26.000     167.40     138.80     1.0587    0.77150E-01
 4.6200     27.000     161.20     37.902     1.2231    0.82827E-01
 4.6200     27.000     161.20     48.578     1.1202    0.77807E-01
 4.6200     27.000     161.20     58.746     1.0172    0.62748E-01
 4.6200     27.000     161.20     68.916     1.0574    0.65258E-01
 4.6200     27.000     161.20     79.592    0.94944    0.60238E-01
 4.6200     27.000     161.20     90.014    0.84401    0.67768E-01
 4.6200     27.000     161.20     100.44    0.78626    0.57728E-01
 4.6200     27.000     161.20     110.86    0.80633    0.67768E-01
 4.6200     27.000     161.20     121.03    0.75862    0.60238E-01
 4.6200     27.000     161.20     131.71    0.79374    0.55218E-01
 4.6200     27.000     161.20     141.37    0.94181    0.62748E-01
 4.6200     27.000     165.20     39.192     1.1287    0.56931E-01
 4.6200     27.000     165.20     49.168     1.2177    0.56931E-01
 4.6200     27.000     165.20     59.141     1.2078    0.54455E-01
 4.6200     27.000     165.20     69.354     1.1162    0.71782E-01
 4.6200     27.000     165.20     79.325     1.0345    0.61881E-01
 4.6200     27.000     165.20     89.054     1.0221    0.59406E-01
 4.6200     27.000     165.20     99.268    0.94038    0.64356E-01
 4.6200     27.000     165.20     109.48    0.83639    0.51980E-01
 4.6200     27.000     165.20     119.45    0.82151    0.37129E-01
 4.6200     27.000     165.20     129.67    0.89574    0.47030E-01
 4.6200     27.000     165.20     139.16     1.0219    0.54455E-01
 4.6200     27.000     167.40     38.679     1.2155    0.63162E-01
 4.6200     27.000     167.40     48.243     1.2054    0.58109E-01
 4.6200     27.000     167.40     58.053     1.2862    0.58109E-01
 4.6200     27.000     167.40     68.596     1.1548    0.68215E-01
 4.6200     27.000     167.40     78.895     1.0563    0.65689E-01
 4.6200     27.000     167.40     88.948    0.95772    0.63162E-01
 4.6200     27.000     167.40     99.247    0.83644    0.58109E-01
 4.6200     27.000     167.40     109.79    0.86421    0.55583E-01
 4.6200     27.000     167.40     119.11    0.84399    0.55583E-01
 4.6200     27.000     167.40     129.41    0.82882    0.65689E-01
 4.6200     27.000     167.40     139.47     1.1143    0.60636E-01
 6.2800     24.000     167.50     57.807     1.2442    0.22487
 6.2800     24.000     167.50     78.708    0.67461    0.13742
 6.2800     24.000     167.50     98.104    0.53975    0.17490
 6.2800     24.000     167.50     118.98    0.72471    0.18240
 6.2800     24.000     167.50     138.61     1.1545    0.24486
 6.2800     26.000     162.40     38.272     1.2786    0.21391
 6.2800     26.000     162.40     48.354     1.1915    0.25869
 6.2800     26.000     162.40     58.436     1.1169    0.19899
 6.2800     26.000     162.40     78.600     1.0746    0.14427
 6.2800     26.000     162.40     99.012    0.80601    0.13681
 6.2800     26.000     162.40     109.09    0.66922    0.11939
 6.2800     26.000     162.40     119.67    0.56973    0.10944
 6.2800     26.000     162.40     128.77    0.62446    0.11193
 6.2800     26.000     162.40     139.09    0.72893    0.15670
 6.2800     26.000     167.50     38.606     1.1845    0.24153
 6.2800     26.000     167.50     48.934     1.2965    0.35109
 6.2800     26.000     167.50     59.262    0.97783    0.16932
 6.2800     26.000     167.50     79.180    0.92305    0.16683
 6.2800     26.000     167.50     99.344    0.48980    0.92129E-01
 6.2800     26.000     167.50     109.18    0.61430    0.10707
 6.2800     26.000     167.50     119.51    0.56450    0.89639E-01
 6.2800     26.000     167.50     129.10    0.83093    0.11205
 6.2800     26.000     167.50     139.18    0.94048    0.15189
 6.2800     27.000     161.20     38.456     1.2935    0.18528
 6.2800     27.000     161.20     48.023     1.2022    0.19516
 6.2800     27.000     161.20     58.321     1.2541    0.20504
 6.2800     27.000     161.20     68.127     1.3307    0.17292
 6.2800     27.000     161.20     78.187     1.1578    0.15069
 6.2800     27.000     161.20     88.248    0.97999    0.13093
 6.2800     27.000     161.20     98.305    0.90839    0.12846
 6.2800     27.000     161.20     108.36    0.92325    0.14822
 6.2800     27.000     161.20     118.42    0.67378    0.13093
 6.2800     27.000     161.20     128.73    0.56018    0.12846
 6.2800     27.000     161.20     139.02    0.75538    0.12846
 6.2800     27.000     165.40     38.151     1.3870    0.16625
 6.2800     27.000     165.40     48.692     1.2902    0.15136
 6.2800     27.000     165.40     58.497     1.1810    0.16873
 6.2800     27.000     165.40     78.356     1.0891    0.14392
 6.2800     27.000     165.40     98.937    0.64234    0.10918
 6.2800     27.000     165.40     119.05    0.69188    0.12903
 6.2800     27.000     165.40     129.10    0.69184    0.11662
 6.2800     27.000     165.40     138.92    0.83571    0.12655
 6.2800     27.000     167.50     37.790     1.2779    0.21165
 6.2800     27.000     167.50     47.735     1.3302    0.20169
 6.2800     27.000     167.50     58.177     1.0712    0.19920
 6.2800     27.000     167.50     67.873     1.1036    0.21912
 6.2800     27.000     167.50     78.315    0.86454    0.19422
 6.2800     27.000     167.50     88.508    0.76494    0.18426
 6.2800     27.000     167.50     98.204    0.65787    0.16185
 6.2800     27.000     167.50     108.90    0.65289    0.15687
 6.2800     27.000     167.50     118.09    0.64293    0.17928
 6.2800     27.000     167.50     128.54    0.81723    0.18675
 6.2800     27.000     167.50     138.48     1.1509    0.23157
 7.3800     27.000     161.30     39.397     1.3091    0.20916
 7.3800     27.000     161.30     40.179     1.2100    0.25750
 7.3800     27.000     161.30     49.323     1.0750    0.19671
 7.3800     27.000     161.30     49.796     1.1750    0.27000
 7.3800     27.000     161.30     59.241     1.0801    0.18177
 7.3800     27.000     161.30     60.396     1.3700    0.27250
 7.3800     27.000     161.30     68.921    0.99544    0.18426
 7.3800     27.000     161.30     79.082    0.96559    0.15936
 7.3800     27.000     161.30     80.369     1.3351    0.28500
 7.3800     27.000     161.30     89.245    0.89093    0.14940
 7.3800     27.000     161.30     89.742     1.0276    0.23000
 7.3800     27.000     161.30     98.924    0.80630    0.12948
 7.3800     27.000     161.30     100.34     1.0501    0.23000
 7.3800     27.000     161.30     108.84    0.85613    0.15687
 7.3800     27.000     161.30     109.71     1.0651    0.22250
 7.3800     27.000     161.30     118.52    0.72171    0.15438
 7.3800     27.000     161.30     120.07     1.0276    0.22250
 7.3800     27.000     161.30     128.45    0.51756    0.13695
 7.3800     27.000     161.30     130.18     1.0401    0.24500
 7.3800     27.000     161.30     138.60    0.60724    0.14193
 7.3800     27.000     161.30     141.03     1.1126    0.23000
 7.3800     27.000     165.50     39.125     1.1192    0.15136
 7.3800     27.000     165.50     39.224     1.5255    0.26757
 7.3800     27.000     165.50     49.090     1.4685    0.26757
 7.3800     27.000     165.50     49.342     1.0869    0.13399
 7.3800     27.000     165.50     59.197     1.4164    0.24279
 7.3800     27.000     165.50     59.310     1.2334    0.17121
 7.3800     27.000     165.50     78.930     1.1761    0.22297
 7.3800     27.000     165.50     79.512    0.86373    0.12655
 7.3800     27.000     165.50     98.663     1.0845    0.21059
 7.3800     27.000     165.50     99.461    0.74966    0.11662
 7.3800     27.000     165.50     118.15     1.0027    0.19572
 7.3800     27.000     165.50     119.41    0.66536    0.11166
 7.3800     27.000     165.50     128.26     1.0993    0.19324
 7.3800     27.000     165.50     129.38    0.75969    0.10670
 7.3800     27.000     165.50     138.13     1.1291    0.20563
 7.3800     27.000     165.50     139.35    0.89123    0.12903
 7.3800     27.000     167.60     36.012     1.5043    0.24033
 7.3800     27.000     167.60     39.736     1.2297    0.16191
 7.3800     27.000     167.60     46.485     1.5711    0.22547
 7.3800     27.000     167.60     49.846     1.2077    0.12266
 7.3800     27.000     167.60     56.685     1.2762    0.22794
 7.3800     27.000     167.60     59.716     1.0286    0.13493
 7.3800     27.000     167.60     66.878    0.87479    0.18335
 7.3800     27.000     167.60     69.583    0.89126    0.12512
 7.3800     27.000     167.60     77.356     1.0135    0.19573
 7.3800     27.000     167.60     79.698    0.74901    0.12266
 7.3800     27.000     167.60     87.329     1.0630    0.21308
 7.3800     27.000     167.60     89.564    0.66073    0.11530
 7.3800     27.000     167.60     99.924    0.53810    0.10549
 7.3800     27.000     167.60     108.02     1.1322    0.19821
 7.3800     27.000     167.60     110.04    0.47436    0.95677E-01
 7.3800     27.000     167.60     118.49     1.0850    0.23042
 7.3800     27.000     167.60     119.89    0.65103    0.11285
 7.3800     27.000     167.60     130.24    0.79091    0.12021
 7.3800     27.000     167.60     138.92     1.0304    0.20812
 7.3800     27.000     167.60     140.35    0.89153    0.14720
ENDDATA            218
ENDSUBENT          237
SUBENT        F0597003   20050623   20050831                  F022
BIB                  2          2
REACTION   (14-SI-28(A,INL)14-SI-28,PAR,DA)
STATUS     (CURVE)Fig.13
ENDBIB               2
COMMON               3          3
E-LVL      ANG-ERR-D  ERR-DIG
MEV        ADEG       PER-CENT
 1.78       0.6        0.03
ENDCOMMON            3
DATA                 3        214
EN         ANG        DATA
MEV        ADEG       MB/SR
 24.000     33.890     13.379
 24.000     37.228     16.579
 24.000     39.394     10.621
 24.000     45.446     4.7437
 24.000     48.116     5.7003
 24.000     51.081     6.3998
 24.000     53.847     3.3686
 24.000     62.004    0.71188
 24.000     64.926     1.1584
 24.000     67.172     1.9566
 24.000     70.020     2.6345
 24.000     72.600     2.9794
 24.000     75.324     2.2557
 24.000     78.058     1.5477
 24.000     80.790     1.0863
 24.000     83.398    0.97144
 24.000     85.808    0.90901
 24.000     88.409    0.86370
 24.000     91.113    0.76663
 24.000     93.814    0.70672
 24.000     96.409    0.70271
 24.000     98.575     1.0278
 24.000     101.43     1.3124
 24.000     104.60     1.3155
 24.000     107.11     1.1586
 24.000     109.55    0.85085
 24.000     111.86    0.83946
 24.000     113.84     1.1296
 24.000     116.32     1.3167
 24.000     118.43     1.4332
 24.000     121.33     1.2066
 24.000     123.94     1.0469
 24.000     126.10    0.73448
 24.000     128.52    0.61348
 24.000     130.62    0.70415
 24.000     132.96     1.1540
 24.000     135.53     1.4402
 24.000     139.27     1.5577
 24.000     142.15     1.5609
 24.000     143.82     1.2172
 24.000     146.06    0.95676
 24.000     149.13    0.95166
 24.000     150.55     1.1777
 24.000     152.75     1.3016
 24.000     155.15     1.3138
 24.000     157.46     1.3061
 24.000     159.36     1.5567
 24.000     161.56     1.6441
 24.000     164.16     1.5740
 24.000     165.88     1.7790
 24.000     168.07     2.0421
 24.000     170.28     2.0146
 24.000     172.88     2.0338
 26.000     33.935     16.216
 26.000     36.665     11.862
 26.000     39.692     8.0533
 26.000     44.865     4.2448
 26.000     47.996     5.8721
 26.000     51.174     5.5438
 26.000     56.202     2.0089
 26.000     58.862     1.1825
 26.000     61.771    0.96087
 26.000     64.512     1.3899
 26.000     67.136     2.3707
 26.000     69.998     2.8015
 26.000     72.899     2.4351
 26.000     74.948     1.8905
 26.000     78.061     1.3938
 26.000     80.501     1.0348
 26.000     83.101    0.99123
 26.000     85.763     1.2529
 26.000     88.530     1.4694
 26.000     91.146     1.2300
 26.000     93.491    0.90634
 26.000     96.296    0.78187
 26.000     99.044     1.0652
 26.000     101.33     1.3063
 26.000     104.59     1.2900
 26.000     106.97     1.5586
 26.000     109.96     1.4171
 26.000     111.83     1.0675
 26.000     113.97    0.82882
 26.000     117.03    0.92955
 26.000     119.42     1.0188
 26.000     121.18    0.85229
 26.000     123.40    0.72945
 26.000     126.28    0.75328
 26.000     128.60    0.68457
 26.000     131.01    0.64592
 26.000     133.50    0.68198
 26.000     135.30    0.85502
 26.000     137.50    0.93001
 26.000     139.53    0.82622
 26.000     141.79    0.55225
 26.000     144.30    0.52111
 26.000     146.55    0.38394
 26.000     148.32    0.27443
 26.000     150.99    0.33412
 26.000     153.06    0.45158
 26.000     155.04    0.64314
 26.000     157.81    0.73203
 26.000     159.91    0.79618
 26.000     161.71     1.0133
 26.000     164.11     1.0000
 26.000     166.06    0.83042
 26.000     168.83    0.91045
 26.000     170.81     1.2678
 26.000     173.55     1.8898
 27.000     33.086     14.770
 27.000     41.795     3.8083
 27.000     44.429     6.2261
 27.000     47.404     6.4831
 27.000     55.597     2.2866
 27.000     58.468     1.0993
 27.000     61.726     1.1987
 27.000     63.968     2.0828
 27.000     66.632     2.6253
 27.000     69.530     2.3101
 27.000     72.252     1.7574
 27.000     74.977     1.3066
 27.000     77.620    0.85951
 27.000     80.614    0.75635
 27.000     83.170     1.0610
 27.000     85.256     1.3471
 27.000     88.234     1.3604
 27.000     91.070    0.88819
 27.000     92.863    0.51661
 27.000     96.222    0.53808
 27.000     98.259     1.0405
 27.000     100.82     1.3730
 27.000     103.79     1.5552
 27.000     106.59     1.3476
 27.000     109.11     1.1409
 27.000     111.37    0.71662
 27.000     114.27    0.64520
 27.000     116.53    0.95471
 27.000     118.70     1.3389
 27.000     121.49     1.2620
 27.000     123.75    0.83630
 27.000     126.11    0.55001
 27.000     128.45    0.38750
 27.000     130.93    0.46290
 27.000     133.46    0.78025
 27.000     134.97     1.0209
 27.000     137.53     1.3576
 27.000     140.14     1.2220
 27.000     142.23    0.68425
 27.000     144.40    0.40735
 27.000     146.75    0.28920
 27.000     148.65    0.14436
 27.000     151.41    0.18619
 27.000     153.26    0.33605
 27.000     154.96    0.46397
 27.000     157.31    0.68659
 27.000     159.52    0.72000
 27.000     162.02    0.67850
 27.000     163.54    0.79765
 27.000     165.97    0.64007
 27.000     168.46    0.70829
 27.000     170.70     1.1755
 27.000     172.85     2.1220
 27.500     36.234     13.859
 27.500     37.963     8.5556
 27.500     43.497     2.1162
 27.500     47.864     6.5827
 27.500     49.704     7.2404
 27.500     56.445     2.2500
 27.500     60.031     1.3150
 27.500     61.588     1.7179
 27.500     64.360     2.6232
 27.500     67.772     3.2807
 27.500     70.879     2.7050
 27.500     72.677     1.9726
 27.500     75.727     1.2252
 27.500     77.897    0.75231
 27.500     80.824    0.64124
 27.500     83.758     1.1127
 27.500     85.650     1.6983
 27.500     89.079     1.8182
 27.500     91.244     1.1736
 27.500     93.447    0.53689
 27.500     95.956    0.37256
 27.500     99.212    0.84873
 27.500     101.12     1.1529
 27.500     104.24     1.7316
 27.500     106.56     1.3959
 27.500     109.83     1.2303
 27.500     111.81    0.86787
 27.500     113.44    0.58226
 27.500     116.52    0.65518
 27.500     118.85     1.0114
 27.500     121.75     1.0298
 27.500     123.64    0.73449
 27.500     125.80    0.49016
 27.500     128.12    0.39076
 27.500     130.29    0.52209
 27.500     132.29    0.65617
 27.500     134.55    0.85747
 27.500     136.56     1.0252
 27.500     139.39    0.93398
 27.500     141.21    0.57979
 27.500     143.78    0.50242
 27.500     146.18    0.43053
 27.500     149.71    0.18032
 27.500     151.63    0.20967
 27.500     153.81    0.27398
 27.500     156.39    0.46230
 27.500     158.93    0.53770
 27.500     161.21    0.59483
 27.500     163.14    0.64348
 27.500     165.51    0.68095
 27.500     167.63    0.66293
 27.500     169.96     1.0522
 27.500     172.79     2.0975
ENDDATA            216
ENDSUBENT          227
ENDENTRY             3
