ENTRY            F0595   20180208   20180409   20180409       F067
SUBENT        F0595001   20180208   20180409   20180409       F067
BIB                  8         13
TITLE      The optical model and distorted-wave analysis of
           cross-sections for the scattering of the 24-28 MeV
           alpha particles from Si-28.
AUTHOR     (L.Jarczyk,B.Maciuk,M.Siemaszko,W.Zipper)
INSTITUTE  (3POLSLS)
REFERENCE  (J,APP/B,7,531,1976)
FACILITY   (CYCLO,3POLIFJ) U-120
COMMENT    No information about experiment technique.
ERR-ANALYS (ANG-ERR-D)  Angle digitizing error.
           (ERR-DIG)    Data digitizing error.
HISTORY    (20031104C)
           (20180208A) Sub 002 was deleted. Duplication of
           F0594003.
ENDBIB              13
NOCOMMON             0          0
ENDSUBENT           16
NOSUBENT      F0595002   20180208   20180409   20180409       F067
SUBENT        F0595003   20050609   20050831   20050926       F022
BIB                  4          4
REACTION   (14-SI-28(A,INL)14-SI-28,PAR,DA)
ANALYSIS   Distorted wave theory.
ERR-ANALYS (DATA-ERR)  Errors from the graphic bars
STATUS     (CURVE)Fig.8
ENDBIB               4
COMMON               3          3
E-LVL      ANG-ERR-D  ERR-DIG
MEV        ADEG       PER-CENT
1.78       0.6        0.15
ENDCOMMON            3
DATA                 4        286
EN         ANG-CM     DATA-CM    DATA-ERR
MEV        ADEG       MB/SR      MB/SR
 24.000     27.660     5.9250    0.53820
 24.000     30.220     9.4540    0.74740
 24.000     32.790     16.730     1.0300
 24.000     35.550     17.090
 24.000     47.120     3.1870    0.34670
 24.000     49.890     3.8340
 24.000     49.890     4.2270
 24.000     66.400     3.2550    0.29570
 24.000     69.170     4.1570
 24.000     71.490     3.0330
 24.000     74.230     2.5620
 24.000     74.440     2.2130
 24.000     77.170     1.4330
 24.000     79.700     1.0570
 24.000     82.240    0.98440
 24.000     85.220     1.3420
 24.000     87.770     1.4160
 24.000     90.290    0.91210
 24.000     93.030    0.69880
 24.000     95.800    0.97870
 24.000     97.510     1.2500
 24.000     100.10     1.6400
 24.000     102.80     1.5530
 24.000     105.80     1.2160
 24.000     107.70     1.1210    0.43440E-01
 24.000     110.40     1.0380
 24.000     112.40     1.8780
 24.000     114.90     2.2220
 24.000     117.00     2.3850
 24.000     119.60     1.8980
 24.000     121.40     1.3480
 24.000     124.60    0.95160
 24.000     126.70    0.75330
 24.000     128.80    0.76980
 24.000     131.20     1.8160    0.91060E-01
 24.000     133.30     2.3830
 24.000     135.50     2.6000
 24.000     135.50     2.7150
 24.000     137.60     2.5440
 24.000     140.10     1.9380
 24.000     142.40     1.5180
 24.000     144.60     1.3320
 24.000     146.40     1.2140
 24.000     148.60     1.5850
 24.000     150.70     2.0800
 24.000     152.60     2.2680
 24.000     154.70     2.4080
 24.000     156.90     2.5420
 24.000     159.20     2.3180
 24.000     161.10     1.9800
 24.000     163.20     2.2550
 24.000     165.80     2.2550
 24.000     167.40     2.3420
 24.000     170.00     2.9590
 24.000     171.50     3.5210
 24.000     173.80     3.1920
 24.000     175.50     3.6170
 24.000     176.60     3.3340
 25.000     30.470     10.600     5.3340
 25.000     33.220     13.960     1.3430
 25.000     35.550     16.210
 25.000     38.520     12.890     1.0790
 25.000     47.240     2.8470    0.25600
 25.000     49.980     3.8820    0.37350
 25.000     52.950     3.4210
 25.000     63.360     1.1360    0.11650
 25.000     66.740     1.5950    0.16350
 25.000     68.850     2.7830    0.21570
 25.000     71.820     2.4390    0.15900
 25.000     74.790     2.2900
 25.000     77.550     1.2110    0.71540E-01
 25.000     80.100     1.0310
 25.000     83.070     1.0080
 25.000     85.610     1.0610
 25.000     88.150     1.0550
 25.000     90.690    0.96810
 25.000     93.240    0.90360
 25.000     95.570     1.0020
 25.000     98.320     1.1570
 25.000     100.90     1.2180
 25.000     103.40     1.0990
 25.000     105.70     1.0260
 25.000     108.30    0.87830
 25.000     110.40    0.84370
 25.000     113.40     1.2250
 25.000     115.50     1.4730
 25.000     117.60     1.2190
 25.000     120.10     1.1240
 25.000     122.30    0.73100
 25.000     125.50    0.47530
 25.000     126.90    0.56140    0.36600E-01
 25.000     129.10    0.59460
 25.000     131.40    0.86360    0.40590E-01
 25.000     133.70     1.3280
 25.000     135.80     1.3440
 25.000     136.00     1.2830
 25.000     137.90     1.3440
 25.000     140.50    0.83450    0.49310E-01
 25.000     142.80    0.51820    0.33780E-01
 25.000     144.90    0.51820    0.30620E-01
 25.000     147.10    0.49780    0.26400E-01
 25.000     149.40    0.60510    0.54420E-01
 25.000     153.60    0.68270    0.36200E-01
 25.000     156.20    0.71480    0.42240E-01
 25.000     157.60    0.70260    0.33020E-01
 25.000     159.80    0.65960    0.43000E-01
 25.000     162.30    0.60870    0.32280E-01
 25.000     164.40    0.72320
 25.000     166.80    0.85910
 25.000     168.40     1.0500
 25.000     170.10     1.2840
 25.000     172.20     1.7510
 25.000     174.60     1.9870
 25.000     176.30     2.5140
 25.000     177.50     4.0720
 26.000     27.180     7.1590    0.75200
 26.000     30.110     11.480    0.72210
 26.000     32.630     17.400     1.4060
 26.000     35.400     14.410     1.7810
 26.000     38.460     3.1160    0.56440
 26.000     41.240     2.1370    0.12190
 26.000     44.410     2.2590    0.16900
 26.000     46.700     4.6220    0.54260
 26.000     63.740     1.1430    0.12700
 26.000     68.760     3.1370
 26.000     71.520     2.9030    0.25200
 26.000     74.720     2.0130    0.13860
 26.000     77.720     1.1820    0.60500E-01
 26.000     80.070    0.89560
 26.000     82.810     1.0410
 26.000     85.120     1.4200
 26.000     87.870     1.5010
 26.000     90.010     1.2160
 26.000     93.430    0.74620
 26.000     95.560    0.62830
 26.000     98.080    0.83390
 26.000     100.40     1.1510
 26.000     102.90     1.6880
 26.000     105.20     1.5620
 26.000     108.00     1.1970
 26.000     110.40    0.94800
 26.000     113.10    0.83450
 26.000     115.40    0.96950
 26.000     117.10     1.1510
 26.000     119.40     1.3680
 26.000     121.80     1.3310
 26.000     124.30    0.98610
 26.000     126.90    0.76830    0.57470E-01
 26.000     129.20    0.81220
 26.000     131.40    0.81680    0.46610E-01
 26.000     133.40     1.0370
 26.000     135.60     1.2950    0.73890E-01
 26.000     137.90     1.3320
 26.000     140.60     1.0370    0.65280E-01
 26.000     142.60    0.73950    0.59750E-01
 26.000     145.20    0.45640    0.31430E-01
 26.000     147.10    0.47980    0.44550E-01
 26.000     149.20    0.41540    0.23700E-01
 26.000     151.50    0.63690    0.40090E-01
 26.000     153.60    0.71570    0.45050E-01
 26.000     155.50    0.84540    0.43290E-01
 26.000     157.60     1.1280    0.77680E-01
 26.000     159.50     1.1100    0.63320E-01
 26.000     161.80     1.1930
 26.000     164.00     1.1160
 26.000     166.30     1.1480
 26.000     168.40     1.0210
 26.000     170.10    0.93480
 26.000     172.70    0.81380
 26.000     174.80    0.84610
 26.000     176.00     1.1480    0.99650E-01
 26.000     177.30     1.6650    0.95040E-01
 27.000     28.310     7.3670    0.67420
 27.000     31.190     11.800    0.93970
 27.000     33.670     17.030     1.6610
 27.000     36.490     11.490    0.71380
 27.000     39.090     8.5050    0.52790
 27.000     47.940     3.3210    0.34400
 27.000     61.510    0.97580
 27.000     64.230     1.2020
 27.000     67.110     1.9250
 27.000     69.820     2.4770
 27.000     72.370     2.3590
 27.000     75.430     1.3500
 27.000     78.490    0.81170
 27.000     83.350    0.89630
 27.000     86.060     1.1040
 27.000     88.600     1.1660
 27.000     93.660    0.40350
 27.000     96.350    0.59540
 27.000     98.820    0.89310
 27.000     101.10     1.1940
 27.000     103.60     1.2970
 27.000     106.60     1.0480
 27.000     108.80    0.85580
 27.000     111.10    0.76310
 27.000     113.80    0.92960
 27.000     115.50     1.1570
 27.000     118.00     1.2100
 27.000     120.60    0.94580
 27.000     122.60    0.65560
 27.000     124.80    0.44460
 27.000     127.30    0.48540
 27.000     129.60    0.79030
 27.000     132.00     1.1350
 27.000     134.40     1.2120
 27.000     136.90     1.1540
 27.000     138.90    0.84960
 27.000     141.10    0.42870
 27.000     143.30    0.22470
 27.000     145.80    0.35800
 27.000     148.10    0.51400
 27.000     149.80    0.49750
 27.000     152.10    0.56750
 27.000     154.20    0.46870
 27.000     156.40    0.44380
 27.000     158.70    0.49530
 27.000     160.70    0.63380
 27.000     162.80    0.78910
 27.000     167.00     1.0900
 27.000     169.30     1.1780
 27.000     171.80     2.0480
 27.000     173.40     2.6780
 27.000     175.50     3.6010
 27.000     176.90     4.2910
 27.000     178.20     4.6590
 28.000     27.910     7.3990
 28.000     30.920     12.590
 28.000     34.350     10.810    0.73390
 28.000     36.360     7.9590    0.68110
 28.000     38.760     3.2100    0.25560
 28.000     41.840     2.2870    0.23680
 28.000     47.940     5.0650    0.58600
 28.000     64.090     2.2360
 28.000     67.040     2.4020
 28.000     70.230     2.2640
 28.000     72.450     1.6670
 28.000     75.560     1.0420
 28.000     78.280    0.59630
 28.000     80.990    0.68410    0.38490E-01
 28.000     83.430    0.96110
 28.000     86.080     1.3280    0.67070E-01
 28.000     88.810     1.4190
 28.000     91.030     1.0560    0.59390E-01
 28.000     93.770    0.55110    0.24670E-01
 28.000     96.190    0.41480    0.30550E-01
 28.000     99.010    0.66450    0.33530E-01
 28.000     101.20     1.2070
 28.000     103.60     1.4870
 28.000     106.00     1.3710
 28.000     108.80     1.1450
 28.000     113.70    0.51540
 28.000     115.80    0.58160
 28.000     118.00    0.74440
 28.000     120.80    0.78240
 28.000     123.00    0.62200
 28.000     125.00    0.45300    0.17670E-01
 28.000     127.40    0.29730    0.21930E-01
 28.000     129.80    0.30080
 28.000     131.90    0.51740    0.35100E-01
 28.000     134.40    0.70330
 28.000     136.50    0.65890
 28.000     138.90    0.52380
 28.000     141.60    0.36120
 28.000     143.50    0.33470
 28.000     145.90    0.27050    0.15210E-01
 28.000     148.00    0.28740
 28.000     149.90    0.30370    0.17070E-01
 28.000     152.50    0.25360    0.11340E-01
 28.000     154.80    0.25240    0.18600E-01
 28.000     156.60    0.42470    0.23890E-01
 28.000     158.30    0.65830
 28.000     160.80    0.95050
 28.000     162.90    0.99890
 28.000     164.80    0.95130
 28.000     167.50    0.99990
 28.000     169.10     1.3220
 28.000     170.80    0.88220
 28.000     170.80    0.83520
 28.000     171.40     1.7390
 28.000     171.80    0.92690
 28.000     172.30    0.77380
 28.000     173.10     2.8640
 28.000     174.70     1.0070
 28.000     175.60     4.1570
 28.000     177.30     6.4790
ENDDATA            288
ENDSUBENT          301
ENDENTRY             3
