ENTRY            13903   20040816
SUBENT        13903001   20040816
BIB                 10         15
INSTITUTE  (1USATNL,1USADKE,2FR BRC)
REFERENCE  (J,PR/C,68,044610,2003)
AUTHOR     (M.M.Nagadi,C.R.Howell,W.Tornow,G.J.Weisel,
           M.A.Al-Ohali,R.T.Braun,H.R.Setze,Z.Chen,R.L.Walter,
           J.P.Delaroche,P.Romain)
TITLE      Dispersive optical-model and coupled-channel
            descriptions of neutron scattering from 27Al and 59Co
            up to 80 MeV
FACILITY   (ACCEL,1USATNL)
SAMPLE     Cylindrical samples, >99.9% pure.
METHOD     (TOF)
ERR-ANALYS (DATA-ERR) No information on source of uncertainties.
STATUS     Data received by email, G. Weisel, 2004/7/13.
           No reply received from G. Weisel to author proof.
HISTORY    (20040713C)
ENDBIB              15
NOCOMMON             0          0
ENDSUBENT           18
SUBENT        13903002   20040713
BIB                  6          9
REACTION   (13-AL-27(N,EL)13-AL-27,,DA)
INC-SOURCE (D-D)
DETECTOR   (SCIN) Liquid organic scintillators: 2 primary
            detectors, 3rd used as a monitor, and 4th to monitor
            time distribution of source neutrons.
MONITOR    (1-H-1(N,EL)1-H-1,,DA)
CORRECTION Corrected for finite geometry, flux attenuation, and
            multiple scattering using code EFFIGY15.
ERR-ANALYS Normalization uncertainties about 4%.
ENDBIB               9
COMMON               2          3
EN         EN-RSL
MEV        MEV
 15.431      0.067
ENDCOMMON            3
DATA                 3         35
ANG-CM     DATA-CM    DATA-ERR
ADEG       MB/SR      MB/SR
 18.50     633.96      11.47
 21.35     525.73      16.16
 24.20     345.71       6.81
 27.04     279.66      10.29
 29.87     165.33       6.81
 32.73      99.44       4.33
 35.74      51.17       2.26
 39.30      26.80       1.27
 43.58      16.67       0.47
 47.42      22.68       1.28
 50.51      33.54       1.76
 54.30      51.34       1.13
 58.07      63.69       1.41
 61.87      64.75       1.32
 66.66      64.71       2.24
 71.52      54.46       1.60
 76.43      35.09       1.44
 81.44      26.88       0.79
 86.58      17.66       0.32
 91.82      14.23       0.34
 96.99      13.37       0.29
102.01      13.76       0.14
106.94      14.76       0.31
111.83      14.96       0.64
116.71      14.39       0.63
121.58      13.53       0.47
126.48      13.34       0.29
131.37      12.33       0.15
136.22      12.58       0.35
141.00      10.66       0.28
145.76      10.00       0.16
150.62       8.12       0.21
154.63       7.84       0.20
155.65       7.75       0.23
160.74       9.91       0.15
ENDDATA             37
ENDSUBENT           55
SUBENT        13903003   20040713
BIB                  5         10
REACTION   (13-AL-27(N,EL)13-AL-27,,POL/DA,,ANA)
INC-SOURCE (ATOMI,D-D). Average beam polarization 0.54.
DETECTOR   (SCIN) Liquid organic scintillators: 2 primary
            detectors, and 3rd to monitor time distribution of
            source neutrons.
CORRECTION Corrected for finite geometry, flux attenuation, and
            multiple scattering using code JANE.
ERR-ANALYS Relative uncertainties about 5%.
           Scale uncertainty of about 3% associated with the
            determination of the beam polarization.
ENDBIB              10
COMMON               4          3
EN         EN-RSL     POL-BM     POL-BM-ERR
MEV        MEV        NO-DIM     NO-DIM
 15.425      0.344      0.54       0.02
ENDCOMMON            3
DATA                 3         15
ANG-CM     DATA-CM    DATA-ERR
ADEG       NO-DIM     NO-DIM
 25.38     -0.227      0.027
 30.21     -0.331      0.043
 35.06     -0.479      0.051
 38.33     -0.757      0.065
 42.33     -0.623      0.064
 47.33     -0.146      0.066
 52.27     -0.040      0.038
 61.86     -0.140      0.045
 71.61     -0.342      0.039
 81.55     -0.568      0.058
 91.88     -0.404      0.077
103.94      0.306      0.061
116.71      0.429      0.079
129.43      0.101      0.069
141.02      0.000      0.097
ENDDATA             17
ENDSUBENT           36
SUBENT        13903004   20040713
BIB                  6          9
REACTION   (27-CO-59(N,EL)27-CO-59,,DA)
INC-SOURCE (D-D)
DETECTOR   (SCIN) Liquid organic scintillators: 2 primary
            detectors, 3rd used as a monitor, and 4th to monitor
            time distribution of source neutrons.
MONITOR    (1-H-1(N,EL)1-H-1,,DA)
CORRECTION Corrected for finite geometry, flux attenuation, and
            multiple scattering using code EFFIGY15.
ERR-ANALYS Normalization uncertainties about 4%.
ENDBIB               9
NOCOMMON             0          0
DATA                 5        190
EN         EN-RSL     ANG-CM     DATA-CM    DATA-ERR
MEV        MEV        ADEG       MB/SR      MB/SR
  9.953      0.083     17.90     1790.48     37.64
  9.953      0.083     21.61     1446.95     35.78
  9.953      0.083     24.42     1155.51     33.06
  9.953      0.083     27.23      861.33     26.53
  9.953      0.083     30.05      619.01     17.81
  9.953      0.083     33.81      408.37     14.35
  9.953      0.083     37.57      227.88      8.99
  9.953      0.083     41.34      117.50      5.29
  9.953      0.083     45.11       61.31      4.07
  9.953      0.083     49.09       25.09      1.80
  9.953      0.083     53.87        8.57      1.05
  9.953      0.083     59.57        5.42      0.57
  9.953      0.083     64.23        8.42      0.79
  9.953      0.083     67.17       10.84      0.74
  9.953      0.083     70.01       13.46      0.61
  9.953      0.083     73.81       16.65      0.52
  9.953      0.083     77.67       17.82      0.55
  9.953      0.083     81.55       20.94      0.59
  9.953      0.083     85.41       22.39      0.60
  9.953      0.083     89.27       22.19      0.63
  9.953      0.083     93.19       22.19      0.64
  9.953      0.083     97.09       19.89      0.59
  9.953      0.083    100.96       17.88      0.56
  9.953      0.083    104.88       15.93      0.53
  9.953      0.083    108.82       12.31      0.40
  9.953      0.083    112.82       10.47      0.50
  9.953      0.083    122.04        7.55      0.43
  9.953      0.083    126.17        7.21      0.42
  9.953      0.083    130.28        7.56      0.42
  9.953      0.083    134.41        7.82      0.43
  9.953      0.083    138.51        8.70      0.49
  9.953      0.083    142.58       10.58      0.53
  9.953      0.083    145.58       12.08      0.56
  9.953      0.083    148.53       13.79      0.61
  9.953      0.083    152.37       17.31      0.61
  9.953      0.083    156.21       20.11      0.62
  9.953      0.083    160.03       22.49      0.87
 11.944      0.074     17.73     1576.88     34.01
 11.944      0.074     21.42     1212.34     34.49
 11.944      0.074     24.19      900.26     27.95
 11.944      0.074     26.99      633.49     19.63
 11.944      0.074     29.80      441.40     15.10
 11.944      0.074     33.56      249.03      9.19
 11.944      0.074     37.44      129.23      5.52
 11.944      0.074     41.50       55.85      2.45
 11.944      0.074     45.92       29.45      1.73
 11.944      0.074     50.42       16.96      0.81
 11.944      0.074     54.58       12.98      0.84
 11.944      0.074     58.57        9.22      0.48
 11.944      0.074     62.88        6.98      0.47
 11.944      0.074     66.46        5.73      0.27
 11.944      0.074     70.11        7.20      0.33
 11.944      0.074     74.41       10.40      0.46
 11.944      0.074     78.23       15.33      0.47
 11.944      0.074     81.94       19.21      0.47
 11.944      0.074     85.65       22.15      0.36
 11.944      0.074     89.40       22.96      0.43
 11.944      0.074     93.18       22.08      0.45
 11.944      0.074     97.01       19.80      0.49
 11.944      0.074    100.90       16.33      0.46
 11.944      0.074    104.85       13.06      0.39
 11.944      0.074    108.90       10.14      0.32
 11.944      0.074    113.03        8.65      0.29
 11.944      0.074    117.22        7.96      0.28
 11.944      0.074    122.41        7.61      0.34
 11.944      0.074    126.49        8.47      0.36
 11.944      0.074    130.51        9.39      0.38
 11.944      0.074    134.48       10.91      0.41
 11.944      0.074    138.39       11.86      0.39
 11.944      0.074    142.27       12.64      0.31
 11.944      0.074    148.14       13.70      0.45
 11.944      0.074    152.06       14.64      0.43
 11.944      0.074    156.00       14.87      0.44
 11.944      0.074    159.93       16.26      0.44
 15.425      0.069     17.55     1408.33     37.00
 15.425      0.069     21.21      976.96     28.72
 15.425      0.069     23.97      709.23     25.95
 15.425      0.069     26.76      444.47     12.89
 15.425      0.069     29.57      324.10     12.98
 15.425      0.069     33.50      143.68      5.57
 15.425      0.069     37.93       62.49      2.12
 15.425      0.069     42.74       37.35      1.21
 15.425      0.069     47.13       35.42      1.39
 15.425      0.069     50.90       32.74      0.91
 15.425      0.069     54.49       27.35      1.08
 15.425      0.069     58.16       18.78      0.73
 15.425      0.069     62.40       10.47      0.52
 15.425      0.069     66.34        7.05      0.26
 15.425      0.069     70.28        9.02      0.49
 15.425      0.069     74.51       15.72      0.59
 15.425      0.069     78.15       21.67      0.56
 15.425      0.069     81.76       25.61      0.52
 15.425      0.069     85.41       27.86      0.42
 15.425      0.069     89.12       26.15      0.52
 15.425      0.069     92.88       22.81      0.54
 15.425      0.069     96.70       18.05      0.51
 15.425      0.069    100.64       12.76      0.38
 15.425      0.069    104.78        9.59      0.28
 15.425      0.069    109.11        7.82      0.23
 15.425      0.069    113.44        7.43      0.23
 15.425      0.069    117.57        8.34      0.25
 15.425      0.069    122.52        9.75      0.36
 15.425      0.069    126.40       10.61      0.37
 15.425      0.069    130.27       11.20      0.37
 15.425      0.069    134.18       11.34      0.37
 15.425      0.069    138.12       10.87      0.36
 15.425      0.069    142.09       11.14      0.37
 15.425      0.069    145.07       11.01      0.37
 15.425      0.069    148.03       10.54      0.37
 15.425      0.069    151.95       11.44      0.36
 15.425      0.069    155.88       10.52      0.34
 15.425      0.069    159.87       11.04      0.35
 16.879      0.108     16.91     1219.58     37.58
 16.879      0.108     20.27      855.48     33.22
 16.879      0.108     23.70      459.19     17.28
 16.879      0.108     26.45      281.60     13.35
 16.879      0.108     29.68      129.71      5.60
 16.879      0.108     33.87       54.64      1.57
 16.879      0.108     39.71       47.94      1.66
 16.879      0.108     43.94       64.41      1.20
 16.879      0.108     47.30       70.73      1.75
 16.879      0.108     50.57       60.10      1.55
 16.879      0.108     53.96       48.71      1.65
 16.879      0.108     57.72       31.26      1.15
 16.879      0.108     62.33       16.88      0.61
 16.879      0.108     66.43       13.37      0.42
 16.879      0.108     70.32       15.89      0.65
 16.879      0.108     74.58       23.54      0.83
 16.879      0.108     78.22       31.45      0.78
 16.879      0.108     81.70       35.28      0.90
 16.879      0.108     85.17       38.00      0.78
 16.879      0.108     88.65       33.84      1.08
 16.879      0.108     92.23       25.95      0.93
 16.879      0.108     95.99       17.47      0.59
 16.879      0.108    100.26       12.91      0.50
 16.879      0.108    105.05        8.67      0.32
 16.879      0.108    109.62        9.28      0.37
 16.879      0.108    113.66       11.48      0.40
 16.879      0.108    117.43       11.49      0.31
 16.879      0.108    122.14       12.13      0.49
 16.879      0.108    125.96       10.84      0.40
 16.879      0.108    129.74       10.85      0.47
 16.879      0.108    133.56        9.32      0.31
 16.879      0.108    137.66        8.18      0.24
 16.879      0.108    142.03        6.78      0.31
 16.879      0.108    145.23        7.29      0.35
 16.879      0.108    148.24        8.76      0.36
 16.879      0.108    151.99        9.60      0.38
 16.879      0.108    155.93        8.68      0.35
 16.879      0.108    160.57        9.17      0.35
 18.862      0.124     16.50     1050.51     38.87
 18.862      0.124     18.90      731.78     27.12
 18.862      0.124     19.80      711.82     37.05
 18.862      0.124     22.30      406.99     18.18
 18.862      0.124     26.30      140.98      6.44
 18.862      0.124     30.60       47.22      1.23
 18.862      0.124     35.80       40.89      2.01
 18.862      0.124     40.60       74.29      1.88
 18.862      0.124     43.80       89.56      1.43
 18.862      0.124     47.00       89.59      1.54
 18.862      0.124     50.30       78.93      1.93
 18.862      0.124     53.70       58.38      1.70
 18.862      0.124     57.70       36.55      1.32
 18.862      0.124     62.50       20.95      0.71
 18.862      0.124     66.50       17.40      0.89
 18.862      0.124     70.10       23.62      0.70
 18.862      0.124     74.10       30.68      0.64
 18.862      0.124     77.70       34.69      0.73
 18.862      0.124     81.20       39.45      0.98
 18.862      0.124     84.70       37.18      1.20
 18.862      0.124     88.30       29.27      0.94
 18.862      0.124     92.10       20.95      0.56
 18.862      0.124     96.00       15.66      0.51
 18.862      0.124    100.30       10.76      0.37
 18.862      0.124    105.00        8.29      0.30
 18.862      0.124    109.60        8.87      0.35
 18.862      0.124    113.70       11.78      0.33
 18.862      0.124    117.40       13.28      0.34
 18.862      0.124    120.10       13.51      0.33
 18.862      0.124    121.80       14.45      0.42
 18.862      0.124    125.20       12.56      0.43
 18.862      0.124    128.80        8.79      0.32
 18.862      0.124    132.90        5.64      0.35
 18.862      0.124    137.70        4.49      0.26
 18.862      0.124    142.40        4.76      0.29
 18.862      0.124    145.40        6.21      0.32
 18.862      0.124    148.30        6.62      0.30
 18.862      0.124    152.20        6.99      0.32
 18.862      0.124    156.10        8.34      0.36
 18.862      0.124    159.60       10.49      0.38
ENDDATA            192
ENDSUBENT          206
SUBENT        13903005   20040713
BIB                  5         12
REACTION   (27-CO-59(N,EL)27-CO-59,,POL/DA,,ANA)
INC-SOURCE (ATOMI,D-D). Average beam polarization 0.54.
DETECTOR   (SCIN) Liquid organic scintillators: 2 primary
            detectors, and 3rd to monitor time distribution of
            source neutrons.
CORRECTION Corrected for finite geometry, flux attenuation, and
            multiple scattering using code JANE.
ERR-ANALYS Relative uncertainties about 5%.
           Scale uncertainty of about 3% associated with the
            determination of the beam polarization.
           Scale uncertainty of about 3% associated with the
            determination of the beam polarization.
ENDBIB              12
COMMON               4          3
EN         EN-RSL     POL-BM     POL-BM-ERR
MEV        MEV        NO-DIM     NO-DIM
 15.273      0.435      0.54       0.02
ENDCOMMON            3
DATA                 3         24
ANG-CM     DATA-CM    DATA-ERR
ADEG       NO-DIM     NO-DIM
 17.42     -0.044      0.010
 19.79     -0.011      0.016
 22.16      0.041      0.021
 24.61      0.045      0.031
 28.14      0.153      0.033
 32.50      0.217      0.025
 40.81     -0.264      0.034
 45.47     -0.519      0.038
 49.73     -0.730      0.036
 53.59     -0.822      0.038
 58.19     -0.989      0.049
 65.14     -0.589      0.078
 76.87      0.020      0.070
 80.94     -0.222      0.068
 85.04     -0.287      0.039
 93.59     -0.540      0.053
103.99     -0.555      0.066
115.78     -0.065      0.056
124.93      0.280      0.047
129.50      0.260      0.057
134.33      0.267      0.062
144.38     -0.593      0.069
149.28     -0.652      0.064
153.07     -0.417      0.053
ENDDATA             26
ENDSUBENT           47
ENDENTRY             5
