ENTRY            13901   20050919   20060111                  1337
SUBENT        13901001   20050919   20060111                  1337
BIB                 13         34
INSTITUTE  (1USALAS,1USALRL)
REFERENCE  (J,PR/C,69,024601,2004)
           (C,2001TSUKUB,1,234,2001)
AUTHOR     (N.Fotiades,G.J.Johns,R.O.Nelson,M.B.Chadwick,M.Devlin,
           W.S.Wilburn,P.G.Young,J.A.Becker,D.E.Archer,
           L.A.Bernstein,P.E.Garrett,C.A.McGrath,D.P.McNabb,
           W.Younes)
TITLE      Measurements and calculations of 238U(n,xn gamma)
            partial gamma-ray cross sections
FACILITY   (ACCEL,1USALAS) WNR at LANSCE.
INC-SOURCE (SPALL) Protons on tantalum target.
SAMPLE     Two sets of runs made with different samples; all
            samples enriched to 99.798% 238U:
           1) 1998: 238U foil, 730 mg/cm2 thick.
           2) 1999: two 238U foils, 840 mg/cm2 thick in total,
              along with 4 matural Fe foils, 2 in front and 2 in
              back of the 238U foils.
METHOD     (TOF)
DETECTOR   (GE-IN) GEANIE detector for gammas.
           (FISCH) 235U and 238U fission chamber used to measure
            neutron flux.
CORRECTION Corrected for:
           . finite beam spot size,
           . gamma attenuation in sample,
           . deadtimes.
           Not corrected for secondary effects, such as multiple
            scattering and emission of fission neutrons.
ERR-ANALYS (ERR-S) Statistical uncertainty.
           Details of systematic uncertainties are given in
            Table I of article.
STATUS     Data received by email from N. Fotiadis, 2004/6/29.
           (APRVD) Approved by N. Fotiadis, 2004/6/30.
HISTORY    (20040630C)
           (20050918C) DR Second reference added
ENDBIB              34
NOCOMMON             0          0
ENDSUBENT           37
SUBENT        13901002   20040630
BIB                  1          2
REACTION   (92-U-238(N,XN)0-G-0,PAR,SIG,G)
             x < 5
ENDBIB               2
NOCOMMON             0          0
DATA                 6       1242
E          E          EN         EN-ERR     DATA       ERR-S
KEV        KEV        MEV        MEV        MB         MB
 103.5                  1.11       0.030     369.14     13.443
 103.5                  1.17       0.060     475.46     13.537
 103.5                  1.30       0.070     544.13     13.888
 103.5                  1.45       0.090     604.94     13.382
 103.5                  1.64       0.100     689.29     13.349
 103.5                  1.86       0.120     733.17     12.996
 103.5                  2.13       0.150     803.72     12.711
 103.5                  2.46       0.190     908.85     12.975
 103.5                  2.88       0.240    1055.02     13.678
 103.5                  3.40       0.290    1184.01     13.905
 103.5                  4.46       0.160    1366.37     19.107
 103.5                  4.81       0.280    1402.33     18.793
 103.5                  5.42       0.360    1440.75     18.420
 103.5                  6.19       0.440    1396.82     18.243
 103.5                  7.13       0.540    1089.56     17.312
 103.5                  8.27       0.620     676.20     15.719
 103.5                  8.70       0.270     586.85     24.933
 103.5                  9.25       0.300     518.79     25.001
 103.5                  9.86       0.330     502.85     24.541
 103.5                 10.53       0.360     490.99     25.649
 103.5                 11.27       0.400     446.69     26.098
 103.5                 12.09       0.450     403.99     26.777
 103.5                 13.01       0.500     405.15     27.510
 103.5                 14.04       0.560     378.94     27.797
 103.5                 15.19       0.630     367.15     27.763
 103.5                 16.50       0.710     366.47     27.715
 103.5                 17.98       0.810     396.64     28.407
 103.5                 19.68       0.930     342.71     27.126
 103.5                 21.63       1.080     278.62     25.977
 103.5                 23.89       1.250     269.52     24.790
 103.5                 26.53       1.470     228.26     24.158
 103.5                 29.64       1.740     200.13     21.919
 103.5                 33.35       2.080     189.62     20.642
 103.5                 37.81       2.520     148.85     18.906
 103.5                 43.27       3.110     132.55     17.268
 103.5                 50.05       3.890     120.31     15.578
 103.5                 58.62       4.970     101.62     14.158
 103.5                 69.29       5.960      77.05     13.164
 103.5                 84.46       4.340      70.98     11.303
 104.2                  1.45       0.090       1.43     10.490
 104.2                  1.64       0.100       8.82     10.534
 104.2                  1.86       0.120       6.47     10.303
 104.2                  2.13       0.150      19.96     10.152
 104.2                  2.46       0.190      14.08     10.252
 104.2                  2.88       0.240       4.42     10.669
 104.2                  3.40       0.290      25.25     10.813
 104.2                  4.46       0.160      31.88     14.879
 104.2                  4.81       0.280      41.28     14.755
 104.2                  5.42       0.360      24.52     14.284
 104.2                  6.19       0.440      44.82     14.260
 104.2                  7.13       0.540      87.34     14.471
 104.2                  8.27       0.620     115.60     14.412
 104.2                  8.70       0.270     129.22     23.384
 104.2                  9.25       0.300     130.24     24.212
 104.2                  9.86       0.330     121.52     23.703
 104.2                 10.53       0.360     146.88     25.062
 104.2                 11.27       0.400     155.59     26.211
 104.2                 12.09       0.450     171.37     27.466
 104.2                 13.01       0.500     292.21     28.905
 104.2                 14.04       0.560     443.04     30.335
 104.2                 15.19       0.630     491.69     30.338
 104.2                 16.50       0.710     505.00     30.214
 104.2                 17.98       0.810     525.81     30.955
 104.2                 19.68       0.930     479.80     29.553
 104.2                 21.63       1.080     346.56     27.888
 104.2                 23.89       1.250     251.01     26.116
 104.2                 26.53       1.470     193.61     24.542
 104.2                 29.64       1.740     164.68     22.598
 104.2                 33.35       2.080     144.27     20.610
 104.2                 37.81       2.520     135.98     18.983
 104.2                 43.27       3.110     112.54     17.454
 104.2                 50.05       3.890      90.67     15.326
 104.2                 58.62       4.970      68.59     13.971
 104.2                 69.29       5.960      56.97     13.028
 104.2                 84.46       4.340      36.07     11.856
 122.0                  1.11       0.033      15.49      2.755
 122.0                  1.17       0.058      11.65      3.066
 122.0                  1.30       0.073      18.97      3.806
 122.0                  1.45       0.086      17.65      3.890
 122.0                  1.64       0.103      32.03      4.153
 122.0                  1.86       0.125      42.18      4.270
 122.0                  2.13       0.153      35.68      4.175
 122.0                  2.46       0.190      32.85      4.104
 122.0                  2.88       0.241      34.11      4.300
 122.0                  3.40       0.290      39.02      4.615
 122.0                  4.46       0.161      48.00      6.465
 122.0                  4.81       0.281      31.16      6.265
 122.0                  5.42       0.356      43.61      6.548
 122.0                  6.19       0.435      64.44      6.603
 122.0                  7.13       0.539      86.86      6.908
 122.0                  8.27       0.622     146.81      7.280
 122.0                  8.70       0.271     154.83     11.879
 122.0                  9.25       0.297     179.27     12.299
 122.0                  9.86       0.327     193.30     12.006
 122.0                 10.53       0.362     209.81     12.788
 122.0                 11.27       0.401     186.71     13.108
 122.0                 12.09       0.446     200.88     13.573
 122.0                 13.01       0.498     149.29     13.329
 122.0                 14.04       0.558     176.77     14.048
 122.0                 15.19       0.629     137.18     13.639
 122.0                 16.50       0.713     119.53     12.993
 122.0                 17.98       0.812     130.79     13.380
 122.0                 19.68       0.931      89.06     12.359
 122.0                 21.63       1.075      95.89     12.233
 122.0                 23.89       1.251      75.51     11.518
 122.0                 26.53       1.467      95.32     11.051
 122.0                 29.64       1.738      59.93     10.069
 122.0                 33.35       2.081      54.05      9.509
 122.0                 37.81       2.524      56.26      8.413
 122.0                 43.27       3.105      50.18      7.806
 122.0                 50.05       3.887      46.33      6.370
 122.0                 58.62       4.966      39.73      5.675
 122.0                 69.29       5.964      29.73      4.955
 122.0                 84.46       4.345      25.66      4.139
 129.3                  8.70       0.270       0.72      2.803
 129.3                  9.86       0.330       0.68      2.871
 129.3                 10.53       0.360       1.34      3.047
 129.3                 17.98       0.810       1.37      3.597
 129.3                 21.63       1.080       8.44      3.543
 129.3                 23.89       1.250      14.66      3.489
 129.3                 26.53       1.470      17.01      3.272
 129.3                 29.64       1.740      14.18      3.005
 129.3                 33.35       2.080       8.58      2.674
 129.3                 37.81       2.520       7.72      2.458
 129.3                 43.27       3.110       5.83      2.222
 129.3                 50.05       3.890       4.98      1.998
 129.3                 58.62       4.970       5.44      1.807
 129.3                 69.29       5.960       6.00      1.633
 129.3                 84.46       4.340       4.25      1.484
 148.8                  1.17       0.060       2.86      9.508
 148.8                  1.30       0.070       8.37      9.867
 148.8                  1.45       0.090      10.87      9.655
 148.8                  1.64       0.100       3.51      9.697
 148.8                  1.86       0.120      12.25      9.472
 148.8                  2.13       0.150       7.92      9.202
 148.8                  2.46       0.190      21.63      9.447
 148.8                  2.88       0.240      24.79      9.871
 148.8                  3.40       0.290      47.77      9.907
 148.8                  4.46       0.160      70.53     13.215
 148.8                  4.81       0.280      56.56     12.661
 148.8                  5.42       0.360      83.45     12.875
 148.8                  6.19       0.440      87.18     13.764
 148.8                  7.13       0.540     196.81     14.953
 148.8                  8.27       0.620     303.52     15.683
 148.8                  8.70       0.270     323.93     25.564
 148.8                  9.25       0.300     332.11     26.414
 148.8                  9.86       0.330     293.73     25.663
 148.8                 10.53       0.360     262.86     26.950
 148.8                 11.27       0.400     257.26     27.950
 148.8                 12.09       0.450     211.69     28.872
 148.8                 13.01       0.500     167.75     29.518
 148.8                 14.04       0.560     137.04     28.931
 148.8                 15.19       0.630      49.56     28.373
 148.8                 16.50       0.710      37.94     28.392
 148.8                 17.98       0.810      49.97     28.916
 148.8                 19.68       0.930      27.32     27.670
 148.8                 21.63       1.080      29.24     27.005
 148.8                 23.89       1.250      58.55     26.075
 148.8                 26.53       1.470      30.83     24.667
 148.8                 29.64       1.740      31.10     22.494
 158.5                  1.11       0.030      29.47      2.826
 158.5                  1.17       0.060      47.02      2.926
 158.5                  1.30       0.070      72.46      3.132
 158.5                  1.45       0.090     110.41      3.301
 158.5                  1.64       0.100     147.59      3.491
 158.5                  1.86       0.120     180.78      3.546
 158.5                  2.13       0.150     204.38      3.506
 158.5                  2.46       0.190     247.73      3.638
 158.5                  2.88       0.240     320.45      3.968
 158.5                  3.40       0.290     394.53      4.176
 158.5                  4.46       0.160     521.40      5.896
 158.5                  4.81       0.280     568.38      5.877
 158.5                  5.42       0.360     625.44      5.972
 158.5                  6.19       0.440     668.21      6.184
 158.5                  7.13       0.540     557.47      5.975
 158.5                  8.27       0.620     324.65      5.117
 158.5                  8.70       0.270     277.51      7.993
 158.5                  9.25       0.300     258.99      7.972
 158.5                  9.86       0.330     221.08      7.673
 158.5                 10.53       0.360     210.67      7.956
 158.5                 11.27       0.400     202.83      8.114
 158.5                 12.09       0.450     198.78      8.353
 158.5                 13.01       0.500     200.64      8.704
 158.5                 14.04       0.560     192.51      8.898
 158.5                 15.19       0.630     193.62      8.982
 158.5                 16.50       0.710     196.57      9.055
 158.5                 17.98       0.810     187.99      9.174
 158.5                 19.68       0.930     184.40      8.881
 158.5                 21.63       1.080     185.64      8.646
 158.5                 23.89       1.250     180.85      8.258
 158.5                 26.53       1.470     176.95      8.102
 158.5                 29.64       1.740     163.48      7.266
 158.5                 33.35       2.080     158.01      6.795
 158.5                 37.81       2.520     148.33      6.177
 158.5                 43.27       3.110     139.83      5.526
 158.5                 50.05       3.890     121.69      4.881
 158.5                 58.62       4.970     108.26      4.475
 158.5                 69.29       5.960      93.00      3.986
 158.5                 84.46       4.340      84.39      3.741
 160.3                  1.11       0.030       2.16      2.926
 160.3                  1.17       0.060       0.30      2.932
 160.3                  1.30       0.070       2.16      2.918
 160.3                  1.45       0.090       1.04      2.854
 160.3                  2.88       0.240       3.74      2.968
 160.3                  3.40       0.290       3.47      2.945
 160.3                  4.46       0.160       5.42      3.905
 160.3                  4.81       0.280       9.89      3.791
 160.3                  5.42       0.360       5.00      3.756
 160.3                  6.19       0.440      10.79      3.998
 160.3                  7.13       0.540       5.00      4.040
 160.3                  9.25       0.300       2.21      6.610
 160.3                 11.27       0.400       0.33      7.198
 160.3                 12.09       0.450      12.15      7.690
 160.3                 13.01       0.500      99.40      9.033
 160.3                 14.04       0.560     195.27     10.108
 160.3                 15.19       0.630     238.85     10.477
 160.3                 16.50       0.710     265.99     10.848
 160.3                 17.98       0.810     294.12     11.251
 160.3                 19.68       0.930     269.00     10.608
 160.3                 21.63       1.080     185.90      9.726
 160.3                 23.89       1.250     109.16      8.816
 160.3                 26.53       1.470      72.14      8.055
 160.3                 29.64       1.740      51.17      7.136
 160.3                 33.35       2.080      38.01      6.587
 160.3                 37.81       2.520      33.33      5.987
 160.3                 43.27       3.110      33.56      5.372
 160.3                 50.05       3.890      27.36      4.878
 160.3                 58.62       4.970      21.48      4.383
 160.3                 69.29       5.960      25.55      4.149
 160.3                 84.46       4.340      15.53      3.736
 211.2                  1.11       0.030       1.83      1.058
 211.2                  1.45       0.090       0.65      1.069
 211.2                  1.64       0.100       0.37      1.090
 211.2                  1.86       0.120       3.08      1.096
 211.2                  2.13       0.150       4.42      1.086
 211.2                  2.46       0.190       9.25      1.146
 211.2                  2.88       0.240      17.38      1.261
 211.2                  3.40       0.290      32.75      1.347
 211.2                  4.46       0.160      62.72      1.967
 211.2                  4.81       0.280      83.26      2.019
 211.2                  5.42       0.360     110.36      2.144
 211.2                  6.19       0.440     136.77      2.292
 211.2                  7.13       0.540     123.76      2.305
 211.2                  8.27       0.620      65.47      2.003
 211.2                  8.70       0.270      52.50      3.131
 211.2                  9.25       0.300      44.65      3.119
 211.2                  9.86       0.330      36.25      2.960
 211.2                 10.53       0.360      31.59      3.068
 211.2                 11.27       0.400      29.36      3.132
 211.2                 12.09       0.450      25.45      3.182
 211.2                 13.01       0.500      26.97      3.284
 211.2                 14.04       0.560      26.32      3.369
 211.2                 15.19       0.630      24.91      3.399
 211.2                 16.50       0.710      24.53      3.440
 211.2                 17.98       0.810      26.68      3.522
 211.2                 19.68       0.930      25.46      3.450
 211.2                 21.63       1.080      20.90      3.341
 211.2                 23.89       1.250      27.12      3.304
 211.2                 26.53       1.470      26.82      3.293
 211.2                 29.64       1.740      28.00      3.082
 211.2                 33.35       2.080      25.28      2.863
 211.2                 37.81       2.520      22.63      2.615
 211.2                 43.27       3.110      20.13      2.373
 211.2                 50.05       3.890      18.28      2.081
 211.2                 58.62       4.970      15.86      1.885
 211.2                 69.29       5.960      13.87      1.741
 211.2                 84.46       4.340      11.15      1.560
 212.5                  5.42       0.280       0.02      2.254
 212.5                  8.27       0.540       6.26      2.872
 212.5                  8.70       0.620       5.51      2.987
 212.5                  9.25       0.270       5.22      4.127
 212.5                  9.86       0.300       8.31      4.113
 212.5                 10.53       0.330       4.67      4.026
 212.5                 12.09       0.400       5.96      4.279
 212.5                 13.01       0.450       5.42      4.412
 212.5                 14.04       0.500      29.82      4.847
 212.5                 15.19       0.560      73.80      5.422
 212.5                 16.50       0.630     108.12      5.732
 212.5                 17.98       0.710     135.73      5.986
 212.5                 19.68       0.810     152.90      6.307
 212.5                 21.63       0.930     147.70      6.126
 212.5                 23.89       1.080     109.07      5.779
 212.5                 26.53       1.250      65.83      5.305
 212.5                 29.64       1.470      40.34      4.935
 212.5                 33.35       1.740      28.64      4.597
 212.5                 37.81       2.080      24.21      4.179
 212.5                 43.27       2.520      21.97      3.883
 212.5                 50.05       3.110      17.84      3.486
 212.5                 58.62       3.890      16.90      3.006
 212.5                 69.29       4.970      13.00      2.643
 212.5                 84.46       5.960      10.63      2.343
 257.8                  1.17       0.060       0.58      0.917
 257.8                  1.30       0.070       1.35      0.968
 257.8                  1.45       0.090       0.73      0.947
 257.8                  1.64       0.100       2.47      0.989
 257.8                  1.86       0.120       3.67      0.991
 257.8                  2.13       0.150       4.62      0.979
 257.8                  2.46       0.190       4.21      1.004
 257.8                  2.88       0.240       5.18      1.065
 257.8                  3.40       0.290       4.96      1.068
 257.8                  4.46       0.160       6.54      1.433
 257.8                  4.81       0.280       8.92      1.417
 257.8                  5.42       0.360      11.24      1.417
 257.8                  6.19       0.440      15.97      1.507
 257.8                  7.13       0.540      20.22      1.562
 257.8                  8.27       0.620      13.78      1.518
 257.8                  8.70       0.270      13.32      2.466
 257.8                  9.25       0.300      11.43      2.513
 257.8                  9.86       0.330       9.86      2.477
 257.8                 10.53       0.360      10.69      2.599
 257.8                 11.27       0.400      12.22      2.702
 257.8                 12.09       0.450      11.47      2.759
 257.8                 13.01       0.500      11.29      2.846
 257.8                 14.04       0.560      14.07      2.897
 257.8                 15.19       0.630      11.19      2.934
 257.8                 16.50       0.710      12.87      2.950
 257.8                 17.98       0.810      13.92      3.065
 257.8                 19.68       0.930      15.04      3.000
 257.8                 21.63       1.080      11.41      2.944
 257.8                 23.89       1.250      13.36      2.873
 257.8                 26.53       1.470      13.03      2.830
 257.8                 29.64       1.740      12.16      2.642
 257.8                 33.35       2.080      13.57      2.396
 257.8                 37.81       2.520       9.40      2.269
 257.8                 43.27       3.110       8.61      2.056
 257.8                 50.05       3.890       7.36      1.854
 257.8                 58.62       4.970       6.23      1.686
 257.8                 69.29       5.960       5.19      1.478
 257.8                 84.46       9.430       3.00      1.309
 260.1                  1.17       0.060       1.60      0.915
 260.1                  1.30       0.070       0.68      0.927
 260.1                  1.45       0.090       0.86      0.915
 260.1                  1.64       0.100       0.47      0.937
 260.1                  1.86       0.120       0.96      0.930
 260.1                  2.13       0.150       1.53      0.922
 260.1                  2.46       0.190       0.87      0.944
 260.1                  2.88       0.240       1.39      0.998
 260.1                  3.40       0.290       1.82      1.004
 260.1                  4.46       0.160       0.29      1.325
 260.1                  4.81       0.280       0.77      1.288
 260.1                  5.42       0.360       0.19      1.272
 260.1                  6.19       0.440       0.41      1.318
 260.1                  7.13       0.540       1.51      1.352
 260.1                  8.27       0.620       2.80      1.355
 260.1                  8.70       0.270       4.54      2.232
 260.1                  9.25       0.300       3.03      2.283
 260.1                  9.86       0.330       2.43      2.268
 260.1                 10.53       0.360       6.59      2.449
 260.1                 11.27       0.400       6.84      2.508
 260.1                 12.09       0.450      10.36      2.609
 260.1                 13.01       0.500      14.09      2.709
 260.1                 14.04       0.560      26.75      2.911
 260.1                 15.19       0.630      42.42      3.104
 260.1                 16.50       0.710      57.58      3.297
 260.1                 17.98       0.810      74.05      3.530
 260.1                 19.68       0.930      81.71      3.525
 260.1                 21.63       1.080      62.58      3.312
 260.1                 23.89       1.250      40.57      3.007
 260.1                 26.53       1.470      27.25      2.745
 260.1                 29.64       1.740      20.10      2.456
 260.1                 33.35       2.080      18.50      2.297
 260.1                 37.81       2.520      14.65      2.058
 260.1                 43.27       3.110      12.28      1.937
 260.1                 50.05       3.890       8.46      1.670
 260.1                 58.62       4.970       7.06      1.479
 260.1                 69.29       5.960       4.95      1.389
 260.1                 84.46       9.430       3.63      1.200
 635.2                  1.11       0.030     167.33      2.952
 635.2                  1.17       0.060     164.71      2.823
 635.2                  1.30       0.070     142.18      2.651
 635.2                  1.45       0.090     123.89      2.409
 635.2                  1.64       0.100     112.07      2.256
 635.2                  1.86       0.120     108.85      2.138
 635.2                  2.13       0.150     103.62      2.024
 635.2                  2.46       0.190      95.62      1.962
 635.2                  2.88       0.240      99.42      1.988
 635.2                  3.40       0.290     105.02      1.945
 635.2                  4.46       0.160      91.63      2.418
 635.2                  4.81       0.280      84.98      2.277
 635.2                  5.42       0.360      79.59      2.179
 635.2                  6.19       0.440      66.55      2.143
 635.2                  7.13       0.540      35.80      1.967
 635.2                  8.27       0.620       7.21      1.786
 635.2                  8.70       0.270       0.77      2.805
 635.2                  9.25       0.300       1.44      2.905
 678.4                  1.11       0.030      16.54      1.615
 678.4                  1.17       0.060      23.89      1.691
 678.4                  1.30       0.070      26.90      1.696
 678.4                  1.45       0.090      33.43      1.681
 678.4                  1.64       0.100      37.50      1.656
 678.4                  1.86       0.120      43.56      1.632
 678.4                  2.13       0.150      50.85      1.625
 678.4                  2.46       0.190      59.36      1.650
 678.4                  2.88       0.240      72.08      1.742
 678.4                  3.40       0.290      81.64      1.790
 678.4                  4.46       0.160      93.19      2.392
 678.4                  4.81       0.280      95.68      2.320
 678.4                  5.42       0.360      99.06      2.291
 678.4                  6.19       0.440      97.18      2.290
 678.4                  7.13       0.540      68.03      2.085
 678.4                  8.27       0.620      32.27      1.791
 678.4                  8.70       0.270      26.62      2.840
 678.4                  9.25       0.300      19.51      2.809
 678.4                  9.86       0.330      18.02      2.726
 678.4                 10.53       0.360      15.17      2.808
 678.4                 11.27       0.400      17.42      2.902
 678.4                 12.09       0.450      14.75      2.897
 678.4                 13.01       0.500      13.92      2.964
 678.4                 14.04       0.560      12.82      2.947
 678.4                 15.19       0.630      13.73      2.964
 678.4                 16.50       0.710      10.74      2.889
 678.4                 17.98       0.810       9.64      2.976
 678.4                 19.68       0.930       9.44      2.953
 678.4                 21.63       1.080      12.44      2.937
 678.4                 23.89       1.250       8.55      2.837
 678.4                 26.53       1.470       7.43      2.729
 678.4                 29.64       1.740      11.09      2.549
 678.4                 33.35       2.080      11.93      2.431
 678.4                 37.81       2.520      11.66      2.264
 678.4                 43.27       3.110      11.18      2.135
 678.4                 50.05       3.890      14.07      1.893
 678.4                 58.62       4.970      11.01      1.778
 678.4                 69.29       5.960      15.93      1.628
 678.4                 84.46       9.430      15.21      1.464
 680.1                  1.11       0.030     111.03      2.529
 680.1                  1.17       0.060     111.14      2.437
 680.1                  1.30       0.070      97.76      2.280
 680.1                  1.45       0.090      92.60      2.113
 680.1                  1.64       0.100      81.29      1.956
 680.1                  1.86       0.120      80.11      1.865
 680.1                  2.13       0.150      76.35      1.775
 680.1                  2.46       0.190      70.32      1.712
 680.1                  2.88       0.240      66.65      1.726
 680.1                  3.40       0.290      67.76      1.725
 680.1                  4.46       0.160      62.17      2.225
 680.1                  4.81       0.280      57.71      2.100
 680.1                  5.42       0.360      56.20      2.067
 680.1                  6.19       0.440      46.96      2.017
 680.1                  7.13       0.540      27.58      1.856
 680.1                  8.27       0.620       7.45      1.616
 680.1                  8.70       0.270       6.43      2.598
 680.1                  9.25       0.300       4.90      2.624
 680.1                 10.53       0.360       2.41      2.661
 680.1                 11.27       0.400       0.06      2.657
 680.1                 13.01       0.500       2.35      2.836
 680.1                 33.35       2.080       0.51      2.329
 680.1                 37.81       2.520       3.60      2.196
 680.1                 43.27       3.110       2.92      2.011
 680.1                 50.05       3.890       4.31      1.893
 680.1                 58.62       4.970       4.37      1.683
 680.1                 69.29       5.960       3.16      1.586
 680.1                 84.46       9.430       3.47      1.470
 687.0      687.6       1.11       0.030     125.94      2.720
 687.0      687.6       1.17       0.060     135.00      2.681
 687.0      687.6       1.30       0.070     134.75      2.621
 687.0      687.6       1.45       0.090     128.64      2.439
 687.0      687.6       1.64       0.100     116.94      2.271
 687.0      687.6       1.86       0.120     112.69      2.147
 687.0      687.6       2.13       0.150     113.15      2.066
 687.0      687.6       2.46       0.190     116.64      2.035
 687.0      687.6       2.88       0.240     122.33      2.095
 687.0      687.6       3.40       0.290     128.10      2.115
 687.0      687.6       4.46       0.160     124.36      2.701
 687.0      687.6       4.81       0.280     118.27      2.567
 687.0      687.6       5.42       0.360     114.13      2.501
 687.0      687.6       6.19       0.440     106.27      2.474
 687.0      687.6       7.13       0.540      68.02      2.278
 687.0      687.6       8.27       0.620      41.94      2.071
 687.0      687.6       8.70       0.270      37.31      3.269
 687.0      687.6       9.25       0.300      33.51      3.332
 687.0      687.6       9.86       0.330      28.75      3.229
 687.0      687.6      10.53       0.360      30.98      3.384
 687.0      687.6      11.27       0.400      31.66      3.438
 687.0      687.6      12.09       0.450      26.98      3.490
 687.0      687.6      13.01       0.500      26.93      3.568
 687.0      687.6      14.04       0.560      34.82      3.757
 687.0      687.6      15.19       0.630      34.66      3.745
 687.0      687.6      16.50       0.710      39.87      3.885
 687.0      687.6      17.98       0.810      39.15      4.009
 687.0      687.6      19.68       0.930      33.35      3.795
 687.0      687.6      21.63       1.080      25.81      3.627
 687.0      687.6      23.89       1.250      17.43      3.529
 687.0      687.6      26.53       1.470      17.77      3.310
 687.0      687.6      29.64       1.740      14.46      3.100
 687.0      687.6      33.35       2.080      12.23      2.810
 687.0      687.6      37.81       2.520      10.67      2.673
 687.0      687.6      43.27       3.110       8.91      2.432
 687.0      687.6      50.05       3.890       6.08      2.132
 687.0      687.6      58.62       4.970       6.31      1.953
 687.0      687.6      69.29       5.960       3.95      1.739
 687.0      687.6      84.46       9.430       3.52      1.703
 818.4                  1.10       0.033      43.84      1.314
 818.4                  1.17       0.058      70.18      1.445
 818.4                  1.30       0.073      74.41      1.472
 818.4                  1.45       0.086      66.34      1.371
 818.4                  1.64       0.103      61.20      1.306
 818.4                  1.86       0.125      46.90      1.162
 818.4                  2.13       0.153      34.90      1.063
 818.4                  2.46       0.190      27.00      1.030
 818.4                  2.88       0.241      26.81      1.043
 818.4                  3.41       0.312      25.65      1.025
 818.4                  4.46       0.161      24.23      1.301
 818.4                  4.81       0.281      18.41      1.238
 818.4                  5.42       0.356      17.81      1.251
 818.4                  6.19       0.435      17.36      1.266
 818.4                  7.13       0.539      10.17      1.209
 818.4                  8.27       0.622       0.00      0.000
 818.4                  9.25       0.297       0.93      1.964
 818.4                  9.86       0.327       1.18      1.957
 818.4                 10.53       0.362       0.43      2.071
 818.4                 12.09       0.446       0.88      2.230
 818.4                 13.01       0.498       3.65      2.295
 818.4                 14.04       0.558       2.73      2.187
 818.4                 15.19       0.629       5.10      2.263
 818.4                 16.50       0.713       5.65      2.280
 818.4                 17.98       0.812       5.67      2.422
 818.4                 19.68       0.931       8.72      2.362
 818.4                 21.63       1.075       4.15      2.277
 818.4                 23.89       1.251       0.03      2.258
 818.4                 26.53       1.467       2.17      2.252
 818.4                 33.35       2.081       4.63      1.960
 818.4                 37.81       2.524       5.93      1.847
 818.4                 43.27       3.105       1.16      1.687
 818.4                 50.05       3.887       2.89      1.617
 818.4                 58.62       4.966       2.12      1.457
 818.4                 69.29       5.964       3.41      1.395
 886.2                  1.11       0.030     124.42      2.631
 886.2                  1.17       0.060     165.70      2.911
 886.2                  1.30       0.070     171.46      2.907
 886.2                  1.45       0.090     161.21      2.661
 886.2                  1.64       0.100     139.91      2.427
 886.2                  1.86       0.120     111.85      2.162
 886.2                  2.13       0.150      96.49      1.958
 886.2                  2.46       0.190      88.95      1.900
 886.2                  2.88       0.240      92.75      1.962
 886.2                  3.40       0.290     101.78      2.002
 886.2                  4.46       0.160      94.22      2.547
 886.2                  4.81       0.280      90.40      2.423
 886.2                  5.42       0.360      85.41      2.358
 886.2                  6.19       0.440      78.62      2.327
 886.2                  7.13       0.540      53.46      2.147
 886.2                  8.27       0.620      29.75      1.921
 886.2                  8.70       0.270      24.15      3.018
 886.2                  9.25       0.300      22.93      3.132
 886.2                  9.86       0.330      19.70      2.967
 886.2                 10.53       0.360      19.41      3.152
 886.2                 11.27       0.400      14.74      3.137
 886.2                 12.09       0.450      17.91      3.237
 886.2                 13.01       0.500      17.47      3.288
 886.2                 14.04       0.560      17.02      3.293
 886.2                 15.19       0.630      14.49      3.195
 886.2                 16.50       0.710      16.36      3.317
 886.2                 17.98       0.810      13.09      3.376
 886.2                 19.68       0.930      13.67      3.285
 886.2                 21.63       1.080      11.66      3.155
 886.2                 23.89       1.250      10.82      3.131
 886.2                 26.53       1.470      11.13      3.071
 886.2                 29.64       1.740      11.20      2.861
 886.2                 33.35       2.080       6.77      2.642
 886.2                 37.81       2.520       7.36      2.440
 886.2                 43.27       3.110       6.87      2.198
 886.2                 50.05       3.890       7.49      1.990
 886.2                 58.62       4.970       3.55      1.826
 886.2                 69.29       5.960       5.36      1.635
 886.2                 84.46       9.430       3.13      1.526
 888.9                  1.11       0.030       6.44      1.133
 888.9                  1.17       0.060      22.49      1.472
 888.9                  1.30       0.070      26.69      1.599
 888.9                  1.45       0.090      27.73      1.569
 888.9                  1.64       0.100      25.46      1.565
 888.9                  1.86       0.120      19.17      1.480
 888.9                  2.13       0.150      13.00      1.375
 888.9                  2.46       0.190       9.05      1.375
 888.9                  2.88       0.240       7.96      1.439
 888.9                  3.40       0.290       7.87      1.446
 888.9                  4.46       0.160       7.24      1.920
 888.9                  4.81       0.280       6.27      1.827
 888.9                  5.42       0.360       4.49      1.813
 888.9                  6.19       0.440       3.42      1.848
 888.9                  7.13       0.540       1.26      1.811
 888.9                  9.86       0.330       0.78      2.854
 888.9                 16.50       0.710       0.03      3.285
 888.9                 21.63       1.080       0.49      3.250
 888.9                 23.89       1.250       1.14      3.203
 888.9                 33.35       2.080       1.57      2.720
 888.9                 43.27       3.110       0.49      2.306
 888.9                 50.05       3.890       1.70      2.193
 888.9                 58.62       4.970       0.89      1.938
 888.9                 69.29       5.960       2.56      1.819
 888.9                 84.46       9.430       3.60      1.694
 905.6                  1.11       0.03       32.43      1.557
 905.6                  1.17       0.06       54.50      1.849
 905.6                  1.30       0.07       59.99      1.928
 905.6                  1.45       0.09       61.06      1.896
 905.6                  1.64       0.10       55.80      1.806
 905.6                  1.86       0.12       47.84      1.692
 905.6                  2.13       0.15       44.21      1.611
 905.6                  2.46       0.19       40.80      1.599
 905.6                  2.88       0.24       45.91      1.691
 905.6                  3.40       0.29       48.88      1.724
 905.6                  4.46       0.16       48.38      2.292
 905.6                  4.81       0.28       45.86      2.189
 905.6                  5.42       0.36       43.69      2.151
 905.6                  6.19       0.44       39.48      2.166
 905.6                  7.13       0.54       28.82      2.055
 905.6                  8.27       0.62       12.85      1.853
 905.6                  8.70       0.27        7.69      2.951
 905.6                  9.25       0.30        9.75      3.071
 905.6                  9.86       0.33        4.84      2.934
 905.6                 10.53       0.36        5.65      3.114
 905.6                 11.27       0.40        8.29      3.212
 905.6                 12.09       0.45        6.24      3.258
 905.6                 13.01       0.50        8.29      3.409
 905.6                 14.04       0.56        4.44      3.386
 905.6                 21.63       1.08        0.12      3.321
 905.6                 29.64       1.74        1.41      2.871
 905.6                 33.35       2.08        0.60      2.671
 905.6                 37.81       2.52        0.99      2.466
 905.6                 43.27       3.11        0.99      2.328
 905.6                 50.05       3.89        1.27      2.067
 905.6                 58.62       4.97        0.93      1.976
 905.6                 84.46       9.43        0.81      1.647
 911.1      911.9       1.11       0.03        1.86      0.867
 911.1      911.9       1.17       0.06       15.06      1.275
 911.1      911.9       1.30       0.07       27.43      1.554
 911.1      911.9       1.45       0.09       33.05      1.622
 911.1      911.9       1.64       0.10       37.57      1.657
 911.1      911.9       1.86       0.12       41.37      1.645
 911.1      911.9       2.13       0.15       41.20      1.597
 911.1      911.9       2.46       0.19       41.35      1.594
 911.1      911.9       2.88       0.24       46.13      1.682
 911.1      911.9       3.40       0.29       46.52      1.696
 911.1      911.9       4.46       0.16       48.15      2.257
 911.1      911.9       4.81       0.28       47.32      2.176
 911.1      911.9       5.42       0.36       48.23      2.164
 911.1      911.9       6.19       0.44       43.96      2.162
 911.1      911.9       7.13       0.54       31.94      2.048
 911.1      911.9       8.27       0.62       20.01      1.917
 911.1      911.9       8.70       0.27       18.68      3.085
 911.1      911.9       9.25       0.30       16.31      3.086
 911.1      911.9       9.86       0.33       13.68      3.023
 911.1      911.9      10.53       0.36       15.77      3.216
 911.1      911.9      11.27       0.40       12.99      3.258
 911.1      911.9      12.09       0.45       12.31      3.254
 911.1      911.9      13.01       0.50       14.31      3.408
 911.1      911.9      14.04       0.56       14.27      3.445
 911.1      911.9      15.19       0.63       12.77      3.449
 911.1      911.9      16.50       0.71       14.42      3.488
 911.1      911.9      17.98       0.81       16.73      3.634
 911.1      911.9      19.68       0.93       15.88      3.596
 911.1      911.9      21.63       1.08       16.09      3.563
 911.1      911.9      23.89       1.25       11.22      3.351
 911.1      911.9      26.53       1.47       11.97      3.280
 911.1      911.9      29.64       1.74       11.59      2.977
 911.1      911.9      33.35       2.08        9.60      2.802
 911.1      911.9      37.81       2.52       13.17      2.579
 911.1      911.9      43.27       3.11       10.48      2.309
 911.1      911.9      50.05       3.89        8.88      2.178
 911.1      911.9      58.62       4.97        8.89      2.010
 911.1      911.9      69.29       5.96        8.85      1.928
 911.1      911.9      84.46       9.43        6.26      1.713
 920.5      921.2       1.11       0.03       22.63      1.312
 920.5      921.2       1.17       0.06       38.42      1.532
 920.5      921.2       1.30       0.07       41.69      1.588
 920.5      921.2       1.45       0.09       37.04      1.498
 920.5      921.2       1.64       0.10       31.02      1.402
 920.5      921.2       1.86       0.12       21.25      1.269
 920.5      921.2       2.13       0.15       16.07      1.174
 920.5      921.2       2.46       0.19       11.61      1.152
 920.5      921.2       2.88       0.24       12.55      1.218
 920.5      921.2       3.40       0.29       13.02      1.243
 920.5      921.2       4.46       0.16       10.65      1.653
 920.5      921.2       4.81       0.28        8.67      1.586
 920.5      921.2       5.42       0.36        9.95      1.600
 920.5      921.2       6.19       0.44        8.91      1.621
 920.5      921.2       7.13       0.54        4.87      1.550
 920.5      921.2       8.27       0.62        0.26      1.474
 920.5      921.2       9.25       0.30        0.24      2.488
 920.5      921.2       9.86       0.33        1.09      2.471
 920.5      921.2      12.09       0.45        0.64      2.722
 920.5      921.2      13.01       0.50        0.99      2.758
 920.5      921.2      14.04       0.56        2.48      2.820
 920.5      921.2      16.50       0.71        4.73      2.918
 920.5      921.2      17.98       0.81        7.33      3.038
 920.5      921.2      19.68       0.93        4.92      2.932
 920.5      921.2      21.63       1.08        4.03      2.912
 920.5      921.2      23.89       1.25        1.75      2.802
 920.5      921.2      26.53       1.47        0.84      2.628
 920.5      921.2      29.64       1.74        2.00      2.480
 931.5                  1.11       0.033       0.82      0.312
 931.5                  1.17       0.058       2.02      0.443
 931.5                  1.3        0.073       2.46      0.547
 931.5                  1.45       0.086       4.20      0.674
 931.5                  1.64       0.103       6.97      0.741
 931.5                  1.86       0.125      10.57      0.824
 931.5                  2.13       0.153      11.22      0.816
 931.5                  2.46       0.190       9.28      0.804
 931.5                  2.88       0.241      10.91      0.866
 931.5                  3.40       0.290      11.12      0.923
 931.5                  4.46       0.161      15.86      1.324
 931.5                  4.81       0.281      12.96      1.270
 931.5                  5.42       0.356      15.01      1.275
 931.5                  6.19       0.435      12.35      1.270
 931.5                  7.13       0.539       9.90      1.259
 931.5                  8.27       0.622       4.14      1.183
 931.5                  8.70       0.271       4.06      1.907
 931.5                  9.25       0.297       3.00      1.938
 931.5                  9.86       0.327       4.73      1.875
 931.5                 10.53       0.362       3.60      1.995
 931.5                 11.27       0.401       1.22      2.026
 931.5                 12.09       0.446       2.48      2.064
 931.5                 13.01       0.498       2.03      2.027
 931.5                 14.04       0.558       2.49      2.018
 931.5                 15.19       0.629       6.05      2.061
 931.5                 16.50       0.713       6.44      2.049
 931.5                 17.98       0.812       4.41      2.120
 931.5                 19.68       0.931       1.66      2.027
 931.5                 21.63       1.075       4.80      2.100
 931.5                 23.89       1.251       1.73      1.946
 931.5                 26.53       1.467       1.12      1.861
 931.5                 29.64       1.738       0.95      1.747
 931.5                 33.35       2.081       0.60      1.590
 931.5                 37.81       2.524       1.73      1.466
 931.5                 58.62       4.966       0.17      1.072
 931.5                 69.29       5.964       1.25      0.954
 931.5                 84.46       9.435       0.46      0.871
 942.8                  2.88       0.241       0.84      1.003
 942.8                  3.40       0.290       0.93      0.995
 942.8                  4.46       0.161       1.82      1.333
 942.8                  4.81       0.281       2.29      1.313
 942.8                  5.42       0.356       2.57      1.344
 942.8                  6.19       0.435       2.84      1.374
 942.8                  7.13       0.539       2.17      1.385
 942.8                  8.27       0.622       5.83      1.350
 942.8                  8.70       0.271       4.07      2.171
 942.8                  9.25       0.297       3.98      2.281
 942.8                  9.86       0.327      11.17      2.351
 942.8                 10.53       0.362       9.88      2.510
 942.8                 11.27       0.401       6.59      2.573
 942.8                 12.09       0.446      11.93      2.675
 942.8                 13.01       0.498      10.69      2.788
 942.8                 14.04       0.558      11.18      2.745
 942.8                 15.19       0.629      14.10      2.784
 942.8                 16.50       0.713      12.39      2.852
 942.8                 17.98       0.812       9.92      3.005
 942.8                 19.68       0.931       9.52      2.843
 942.8                 21.63       1.075       6.58      2.778
 942.8                 23.89       1.251       7.86      2.728
 942.8                 26.53       1.467       2.37      2.546
 942.8                 29.64       1.738       5.06      2.392
 942.8                 33.35       2.081       6.42      2.237
 942.8                 43.27       3.105       7.60      1.956
 942.8                 50.05       3.887       2.39      1.765
 942.8                 58.62       4.966       0.08      1.709
 942.8                 69.29       5.964       3.38      1.523
 942.8                 84.46       9.435       0.32      1.458
 952.7                  1.11       0.03       32.03      1.545
 952.7                  1.17       0.06       64.40      1.966
 952.7                  1.30       0.07       75.05      2.113
 952.7                  1.45       0.09       74.02      2.012
 952.7                  1.64       0.10       67.58      1.917
 952.7                  1.86       0.12       58.10      1.791
 952.7                  2.13       0.15       50.08      1.690
 952.7                  2.46       0.19       45.79      1.631
 952.7                  2.88       0.24       45.78      1.678
 952.7                  3.40       0.29       49.91      1.730
 952.7                  4.46       0.16       49.56      2.293
 952.7                  4.81       0.28       44.18      2.193
 952.7                  5.42       0.36       45.75      2.196
 952.7                  6.19       0.44       40.14      2.202
 952.7                  7.13       0.54       31.79      2.127
 952.7                  8.27       0.62       20.44      2.004
 952.7                  8.70       0.27       16.72      3.200
 952.7                  9.25       0.30       17.25      3.290
 952.7                  9.86       0.33       16.73      3.257
 952.7                 10.53       0.36       14.81      3.386
 952.7                 11.27       0.40       16.25      3.542
 952.7                 12.09       0.45       15.85      3.513
 952.7                 13.01       0.50       16.08      3.580
 952.7                 14.04       0.56       18.28      3.664
 952.7                 15.19       0.63       19.94      3.675
 952.7                 16.50       0.71       17.06      3.699
 952.7                 17.98       0.81       19.34      3.846
 952.7                 19.68       0.93       21.97      3.773
 952.7                 21.63       1.08       28.77      3.784
 952.7                 23.89       1.25       27.54      3.663
 952.7                 26.53       1.47       23.32      3.482
 952.7                 29.64       1.74       27.91      3.353
 952.7                 33.35       2.08       24.71      3.045
 952.7                 37.81       2.52       28.02      2.928
 952.7                 43.27       3.11       24.67      2.609
 952.7                 50.05       3.89       25.53      2.410
 952.7                 58.62       4.97       21.92      2.270
 952.7                 69.29       5.96       20.97      1.989
 952.7                 84.46       9.43       17.98      1.786
 957.3                  1.17       0.06       11.59      1.149
 957.3                  1.30       0.07       27.27      1.502
 957.3                  1.45       0.09       42.57      1.681
 957.3                  1.64       0.10       52.27      1.754
 957.3                  1.86       0.12       55.57      1.736
 957.3                  2.13       0.15       54.85      1.694
 957.3                  2.46       0.19       54.06      1.668
 957.3                  2.88       0.24       57.07      1.742
 957.3                  3.40       0.29       63.78      1.801
 957.3                  4.46       0.16       69.06      2.417
 957.3                  4.81       0.28       72.09      2.368
 957.3                  5.42       0.36       70.79      2.337
 957.3                  6.19       0.44       65.34      2.337
 957.3                  7.13       0.54       44.14      2.193
 957.3                  8.27       0.62       21.75      1.966
 957.3                  8.70       0.27       15.42      3.148
 957.3                  9.25       0.30       14.78      3.152
 957.3                  9.86       0.33       14.93      3.131
 957.3                 10.53       0.36       16.33      3.281
 957.3                 11.27       0.40       11.82      3.324
 957.3                 12.09       0.45       13.50      3.423
 957.3                 13.01       0.50       18.73      3.543
 957.3                 14.04       0.56       21.26      3.605
 957.3                 15.19       0.63       23.46      3.603
 957.3                 16.50       0.71       25.17      3.706
 957.3                 17.98       0.81       25.17      3.834
 957.3                 19.68       0.93       18.83      3.669
 957.3                 21.63       1.08       20.46      3.579
 957.3                 23.89       1.25       15.84      3.419
 957.3                 26.53       1.47       18.12      3.346
 957.3                 29.64       1.74       12.87      3.037
 957.3                 33.35       2.08       11.53      2.859
 957.3                 37.81       2.52       14.94      2.631
 957.3                 43.27       3.11       11.91      2.356
 957.3                 50.05       3.89        9.98      2.222
 957.3                 58.62       4.97        7.64      2.051
 957.3                 69.29       5.96        7.79      1.826
 957.3                 84.46       9.43        6.00      1.567
 962.0                  1.11       0.03        0.84      0.874
 962.0                  1.17       0.06        3.03      0.943
 962.0                  1.30       0.07        4.41      1.106
 962.0                  1.45       0.09        9.08      1.262
 962.0                  1.64       0.10       12.99      1.334
 962.0                  1.86       0.12       16.23      1.374
 962.0                  2.13       0.15       18.29      1.374
 962.0                  2.46       0.19       18.84      1.393
 962.0                  2.88       0.24       19.88      1.470
 962.0                  3.40       0.29       19.75      1.495
 962.0                  4.46       0.16       22.44      2.020
 962.0                  4.81       0.28       20.72      1.951
 962.0                  5.42       0.36       20.13      1.959
 962.0                  6.19       0.44       20.82      2.024
 962.0                  7.13       0.54       21.44      2.021
 962.0                  8.27       0.62       17.97      1.959
 962.0                  8.70       0.27       17.20      3.241
 962.0                  9.25       0.30       19.50      3.255
 962.0                  9.86       0.33       15.01      3.185
 962.0                 10.53       0.36       14.60      3.306
 962.0                 11.27       0.40       16.23      3.477
 962.0                 12.09       0.45       10.88      3.466
 962.0                 13.01       0.50       17.35      3.612
 962.0                 14.04       0.56       14.89      3.568
 962.0                 15.19       0.63       16.67      3.550
 962.0                 16.50       0.71       12.09      3.562
 962.0                 17.98       0.81        9.39      3.656
 962.0                 19.68       0.93       13.87      3.666
 962.0                 21.63       1.08       14.29      3.528
 962.0                 23.89       1.25       13.37      3.446
 962.0                 26.53       1.47       13.78      3.380
 962.0                 29.64       1.74       10.82      3.148
 962.0                 33.35       2.08       10.01      2.906
 962.0                 37.81       2.52       10.22      2.688
 962.0                 43.27       3.11       10.67      2.518
 962.0                 50.05       3.89        9.42      2.302
 962.0                 58.62       4.97        7.21      2.029
 962.0                 69.29       5.96        7.44      1.946
 962.0                 84.46       9.43        6.78      1.852
 966.9      967.3       1.11       0.03        5.88      0.964
 966.9      967.3       1.17       0.06       11.49      1.084
 966.9      967.3       1.30       0.07       11.74      1.187
 966.9      967.3       1.45       0.09       15.12      1.310
 966.9      967.3       1.64       0.10       16.82      1.347
 966.9      967.3       1.86       0.12       14.70      1.339
 966.9      967.3       2.13       0.15       14.14      1.311
 966.9      967.3       2.46       0.19       16.04      1.357
 966.9      967.3       2.88       0.24       19.51      1.462
 966.9      967.3       3.40       0.29       23.69      1.532
 966.9      967.3       4.46       0.16       27.08      2.081
 966.9      967.3       4.81       0.28       27.34      2.031
 966.9      967.3       5.42       0.36       28.54      2.041
 966.9      967.3       6.19       0.44       27.38      2.078
 966.9      967.3       7.13       0.54       19.14      2.007
 966.9      967.3       8.27       0.62       10.39      1.865
 966.9      967.3       8.70       0.27        6.24      3.012
 966.9      967.3       9.25       0.30        9.19      3.092
 966.9      967.3       9.86       0.33        6.55      3.025
 966.9      967.3      10.53       0.36       10.80      3.192
 966.9      967.3      11.27       0.40       10.56      3.319
 966.9      967.3      12.09       0.45        6.15      3.401
 966.9      967.3      13.01       0.50        8.63      3.453
 966.9      967.3      14.04       0.56       11.73      3.477
 966.9      967.3      15.19       0.63       12.39      3.485
 966.9      967.3      16.50       0.71       14.16      3.543
 966.9      967.3      17.98       0.81       11.86      3.698
 966.9      967.3      19.68       0.93       11.52      3.648
 966.9      967.3      21.63       1.08       11.73      3.511
 966.9      967.3      23.89       1.25       10.02      3.415
 966.9      967.3      26.53       1.47        9.60      3.282
 966.9      967.3      29.64       1.74       10.40      3.049
 966.9      967.3      33.35       2.08        7.48      2.804
 966.9      967.3      37.81       2.52       13.35      2.754
 966.9      967.3      43.27       3.11        8.96      2.496
 966.9      967.3      50.05       3.89        7.87      2.179
 966.9      967.3      58.62       4.97        5.23      2.011
 966.9      967.3      69.29       5.96        4.23      1.929
 966.9      967.3      84.46       9.43        3.00      1.774
 993.0                  1.11       0.03        6.94      0.955
 993.0                  1.17       0.06       22.85      1.279
 993.0                  1.30       0.07       28.90      1.451
 993.0                  1.45       0.09       29.53      1.463
 993.0                  1.64       0.10       27.71      1.461
 993.0                  1.86       0.12       20.83      1.367
 993.0                  2.13       0.15       15.39      1.267
 993.0                  2.46       0.19       12.11      1.277
 993.0                  2.88       0.24       14.68      1.368
 993.0                  3.40       0.29       19.26      1.429
 993.0                  4.46       0.16       21.82      1.959
 993.0                  4.81       0.28       19.00      1.880
 993.0                  5.42       0.36       16.28      1.893
 993.0                  6.19       0.44       17.12      1.921
 993.0                  7.13       0.54       15.39      1.921
 993.0                  8.27       0.62       15.11      1.833
 993.0                  8.70       0.27       12.71      2.945
 993.0                  9.25       0.30       13.08      3.070
 993.0                  9.86       0.33       12.84      3.012
 993.0                 10.53       0.36       11.17      3.152
 993.0                 11.27       0.40        7.86      3.187
 993.0                 12.09       0.45        9.33      3.262
 993.0                 13.01       0.50        8.23      3.320
 993.0                 14.04       0.56       12.59      3.423
 993.0                 15.19       0.63       14.83      3.469
 993.0                 16.50       0.71       15.26      3.440
 993.0                 17.98       0.81       18.18      3.682
 993.0                 19.68       0.93       15.85      3.530
 993.0                 21.63       1.08       18.92      3.498
 993.0                 23.89       1.25       15.80      3.416
 993.0                 26.53       1.47       13.46      3.282
 993.0                 29.64       1.74       10.57      3.049
 993.0                 33.35       2.08       13.49      2.806
 993.0                 37.81       2.52       11.23      2.588
 993.0                 43.27       3.11       10.94      2.411
 993.0                 50.05       3.89        8.76      2.093
 993.0                 58.62       4.97       11.21      2.018
 993.0                 69.29       5.96        9.51      1.936
 993.0                 84.46       9.43        8.08      1.720
1014.1     1014.6       1.11       0.03       14.80      1.174
1014.1     1014.6       1.17       0.06      104.43      2.355
1014.1     1014.6       1.30       0.07      181.54      2.926
1014.1     1014.6       1.45       0.09      215.94      2.988
1014.1     1014.6       1.64       0.10      247.71      3.034
1014.1     1014.6       1.86       0.12      265.69      2.983
1014.1     1014.6       2.13       0.15      266.50      2.837
1014.1     1014.6       2.46       0.19      267.31      2.785
1014.1     1014.6       2.88       0.24      284.52      2.859
1014.1     1014.6       3.40       0.29      299.75      2.883
1014.1     1014.6       4.46       0.16      300.41      3.710
1014.1     1014.6       4.81       0.28      285.26      3.510
1014.1     1014.6       5.42       0.36      279.36      3.426
1014.1     1014.6       6.19       0.44      260.74      3.360
1014.1     1014.6       7.13       0.54      203.57      3.081
1014.1     1014.6       8.27       0.62      135.32      2.676
1014.1     1014.6       8.70       0.27      121.15      4.181
1014.1     1014.6       9.25       0.30      120.85      4.304
1014.1     1014.6       9.86       0.33      101.34      4.078
1014.1     1014.6      10.53       0.36      107.69      4.347
1014.1     1014.6      11.27       0.40      102.37      4.357
1014.1     1014.6      12.09       0.45      100.58      4.433
1014.1     1014.6      13.01       0.50       95.13      4.452
1014.1     1014.6      14.04       0.56       93.61      4.444
1014.1     1014.6      15.19       0.63       94.02      4.406
1014.1     1014.6      16.50       0.71       92.21      4.445
1014.1     1014.6      17.98       0.81       96.86      4.574
1014.1     1014.6      19.68       0.93       94.13      4.428
1014.1     1014.6      21.63       1.08       90.26      4.295
1014.1     1014.6      23.89       1.25       92.15      4.274
1014.1     1014.6      26.53       1.47       93.44      4.050
1014.1     1014.6      29.64       1.74       93.68      3.841
1014.1     1014.6      33.35       2.08       86.88      3.460
1014.1     1014.6      37.81       2.52       90.56      3.366
1014.1     1014.6      43.27       3.11       81.41      2.951
1014.1     1014.6      50.05       3.89       79.00      2.756
1014.1     1014.6      58.62       4.97       74.08      2.524
1014.1     1014.6      69.29       5.96       69.98      2.393
1014.1     1014.6      84.46       9.43       65.84      2.069
1037.4                  1.11       0.033       4.57      0.493
1037.4                  1.17       0.058      19.36      0.837
1037.4                  1.30       0.073      26.95      0.994
1037.4                  1.45       0.086      24.62      1.023
1037.4                  1.64       0.103      24.79      1.025
1037.4                  1.86       0.125      17.09      1.003
1037.4                  2.13       0.153      11.52      0.952
1037.4                  2.46       0.190       6.95      0.905
1037.4                  2.88       0.241       5.61      0.958
1037.4                  3.40       0.290       7.93      1.041
1037.4                  4.46       0.161       6.94      1.426
1037.4                  4.81       0.281       7.60      1.391
1037.4                  5.42       0.356       6.80      1.347
1037.4                  6.19       0.435       6.81      1.383
1037.4                  7.13       0.539       5.38      1.395
1037.4                  8.27       0.622       5.15      1.325
1037.4                  8.70       0.271       5.86      2.162
1037.4                  9.25       0.297       0.51      2.147
1037.4                 10.53       0.362       1.80      2.186
1037.4                 11.27       0.401       1.79      2.313
1037.4                 13.01       0.498       2.41      2.407
1037.4                 14.04       0.558       0.18      2.306
1037.4                 15.19       0.629       4.44      2.363
1037.4                 16.50       0.713       1.34      2.286
1037.4                 17.98       0.812       0.87      2.385
1037.4                 19.68       0.931       0.33      2.318
1060.3                  1.11       0.03        4.15      0.838
1060.3                  1.17       0.06       56.10      1.727
1060.3                  1.30       0.07      107.59      2.249
1060.3                  1.45       0.09      138.83      2.418
1060.3                  1.64       0.10      160.77      2.498
1060.3                  1.86       0.12      171.08      2.473
1060.3                  2.13       0.15      162.92      2.341
1060.3                  2.46       0.19      145.90      2.237
1060.3                  2.88       0.24      134.64      2.213
1060.3                  3.40       0.29      133.93      2.183
1060.3                  4.46       0.16      138.28      2.828
1060.3                  4.81       0.28      131.39      2.692
1060.3                  5.42       0.36      127.48      2.632
1060.3                  6.19       0.44      115.45      2.582
1060.3                  7.13       0.54       83.68      2.376
1060.3                  8.27       0.62       46.95      2.055
1060.3                  8.70       0.27       41.27      3.239
1060.3                  9.25       0.30       37.76      3.289
1060.3                  9.86       0.33       37.15      3.221
1060.3                 10.53       0.36       35.15      3.364
1060.3                 11.27       0.40       31.96      3.413
1060.3                 12.09       0.45       32.77      3.507
1060.3                 13.01       0.50       30.46      3.529
1060.3                 14.04       0.56       28.82      3.522
1060.3                 15.19       0.63       28.79      3.436
1060.3                 16.50       0.71       27.63      3.476
1060.3                 17.98       0.81       28.67      3.606
1060.3                 19.68       0.93       25.44      3.483
1060.3                 21.63       1.08       25.13      3.428
1060.3                 23.89       1.25       24.99      3.327
1060.3                 26.53       1.47       23.93      3.241
1060.3                 29.64       1.74       25.13      2.993
1060.3                 33.35       2.08       26.50      2.824
1060.3                 37.81       2.52       24.79      2.584
1060.3                 43.27       3.11       22.41      2.389
1060.3                 50.05       3.89       22.39      2.254
1060.3                 58.62       4.97       19.30      1.957
1060.3                 69.29       5.96       18.19      1.852
1060.3                 84.46       9.43       16.70      1.589
1084.0                  1.17       0.06        6.19      1.068
1084.0                  1.30       0.07       26.59      1.538
1084.0                  1.45       0.09       38.23      1.712
1084.0                  1.64       0.10       42.96      1.839
1084.0                  1.86       0.12       49.18      1.893
1084.0                  2.13       0.15       52.52      1.917
1084.0                  2.46       0.19       45.92      1.905
1084.0                  2.88       0.24       44.07      2.004
1084.0                  3.40       0.29       45.88      2.042
1084.0                  4.46       0.16       50.83      2.750
1084.0                  4.81       0.28       49.37      2.643
1084.0                  5.42       0.36       47.97      2.623
1084.0                  6.19       0.44       43.01      2.635
1084.0                  7.13       0.54       32.09      2.534
1084.0                  8.27       0.62       15.29      2.285
1084.0                  8.70       0.27       11.16      3.647
1084.0                  9.25       0.30       11.18      3.806
1084.0                  9.86       0.33       10.74      3.723
1084.0                 10.53       0.36        6.90      3.888
1084.0                 11.27       0.40       10.20      4.076
1084.0                 12.09       0.45        5.41      4.133
1084.0                 13.01       0.50        6.39      4.187
1084.0                 14.04       0.56        7.95      4.170
1084.0                 15.19       0.63       10.95      4.131
1084.0                 16.50       0.71       12.60      4.184
1084.0                 17.98       0.81        5.46      4.316
1084.0                 19.68       0.93        5.67      4.320
1084.0                 21.63       1.08        9.00      4.170
1084.0                 23.89       1.25        5.26      4.134
1084.0                 26.53       1.47        3.15      3.892
1084.0                 29.64       1.74        1.55      3.591
1084.0                 33.35       2.08        4.03      3.428
1084.0                 37.81       2.52        1.47      3.153
1084.0                 43.27       3.11        4.85      2.931
1084.0                 50.05       3.89        2.70      2.732
1084.0                 58.62       4.97        3.83      2.508
1084.0                 69.29       5.96        3.42      2.333
1084.0                 84.46       9.43        3.23      2.198
1112.7                  1.11       0.03        1.55      0.756
1112.7                  1.17       0.06        2.25      0.755
1112.7                  1.30       0.07        8.96      1.006
1112.7                  1.45       0.09       15.14      1.206
1112.7                  1.64       0.10       18.11      1.308
1112.7                  1.86       0.12       18.26      1.290
1112.7                  2.13       0.15       17.91      1.298
1112.7                  2.46       0.19       16.89      1.330
1112.7                  2.88       0.24       14.96      1.395
1112.7                  3.40       0.29       14.55      1.418
1112.7                  4.46       0.16       17.90      1.931
1112.7                  4.81       0.28       15.85      1.861
1112.7                  5.42       0.36       14.27      1.861
1112.7                  6.19       0.44       14.80      1.904
1112.7                  7.13       0.54       13.50      1.874
1112.7                  8.27       0.62        9.48      1.761
1112.7                  8.70       0.27       11.79      2.893
1112.7                  9.25       0.30        8.10      2.947
1112.7                  9.86       0.33       10.55      2.922
1112.7                 10.53       0.36       11.16      3.124
1112.7                 11.27       0.40        9.20      3.209
1112.7                 12.09       0.45        8.02      3.240
1112.7                 13.01       0.50        7.92      3.296
1112.7                 14.04       0.56        8.81      3.264
1112.7                 15.19       0.63       11.47      3.342
1112.7                 16.50       0.71       10.41      3.271
1112.7                 17.98       0.81       11.39      3.466
1112.7                 19.68       0.93        8.24      3.384
1112.7                 21.63       1.08       12.68      3.387
1112.7                 23.89       1.25       13.54      3.271
1112.7                 26.53       1.47       11.03      3.172
1112.7                 29.64       1.74       12.62      2.911
1112.7                 33.35       2.08        9.50      2.724
1112.7                 37.81       2.52       10.01      2.472
1112.7                 43.27       3.11        6.83      2.363
1112.7                 50.05       3.89        5.40      2.014
1112.7                 58.62       4.97        4.39      1.910
1112.7                 69.29       5.96        3.13      1.760
1112.7                 84.46       9.43        3.57      1.636
1123.1                  1.11       0.03        0.62      0.742
1123.1                  1.17       0.06        0.14      0.683
1123.1                  1.30       0.07        5.51      0.966
1123.1                  1.45       0.09        8.83      1.154
1123.1                  1.64       0.10       12.94      1.335
1123.1                  1.86       0.12       16.84      1.400
1123.1                  2.13       0.15       16.93      1.408
1123.1                  2.46       0.19       18.30      1.465
1123.1                  2.88       0.24       19.01      1.544
1123.1                  3.40       0.29       19.38      1.587
1123.1                  4.46       0.16       20.14      2.146
1123.1                  4.81       0.28       18.60      2.074
1123.1                  5.42       0.36       19.76      2.101
1123.1                  6.19       0.44       20.76      2.163
1123.1                  7.13       0.54       21.39      2.140
1123.1                  8.27       0.62       17.59      2.001
1123.1                  8.70       0.27       17.76      3.254
1123.1                  9.25       0.30       15.35      3.305
1123.1                  9.86       0.33       12.10      3.174
1123.1                 10.53       0.36       18.20      3.480
1123.1                 11.27       0.40       13.92      3.535
1123.1                 12.09       0.45       13.92      3.584
1123.1                 13.01       0.50       13.48      3.623
1123.1                 14.04       0.56       14.98      3.642
1123.1                 15.19       0.63       14.92      3.673
1123.1                 16.50       0.71       14.46      3.609
1123.1                 17.98       0.81       14.01      3.744
1123.1                 19.68       0.93       15.38      3.741
1123.1                 21.63       1.08       17.59      3.693
1123.1                 23.89       1.25       23.16      3.601
1123.1                 26.53       1.47       20.30      3.524
1123.1                 29.64       1.74       16.45      3.199
1123.1                 33.35       2.08       18.45      2.932
1123.1                 37.81       2.52       17.37      2.770
1123.1                 43.27       3.11       15.52      2.480
1123.1                 50.05       3.89       16.78      2.339
1123.1                 58.62       4.97       15.80      2.157
1123.1                 69.29       5.96       13.11      2.070
1123.1                 84.46       9.43       11.96      1.794
1437.1                  1.11       0.03        0.50      0.877
1437.1                  1.17       0.06        1.56      0.773
1437.1                  1.30       0.07        1.19      0.752
1437.1                  1.45       0.09        2.37      0.810
1437.1                  1.64       0.10       21.56      1.330
1437.1                  1.86       0.12       31.92      1.508
1437.1                  2.13       0.15       27.76      1.432
1437.1                  2.46       0.19       21.56      1.406
1437.1                  2.88       0.24       15.15      1.488
1437.1                  3.40       0.29       14.16      1.585
1437.1                  4.46       0.16       18.48      2.224
1437.1                  4.81       0.28       16.40      2.172
1437.1                  5.42       0.36       16.07      2.204
1437.1                  6.19       0.44       14.30      2.248
1437.1                  7.13       0.54       10.56      2.158
1437.1                  8.27       0.62        7.83      1.995
1437.1                  8.70       0.27        6.85      3.191
1437.1                  9.25       0.30        5.18      3.310
1437.1                  9.86       0.33        2.34      3.114
1437.1                 10.53       0.36        3.30      3.305
1437.1                 11.27       0.40        2.80      3.514
1437.1                 12.09       0.45        5.28      3.630
1437.1                 13.01       0.50        5.18      3.607
1437.1                 14.04       0.56        5.56      3.536
1437.1                 15.19       0.63        5.18      3.474
1437.1                 16.50       0.71        5.18      3.466
1437.1                 17.98       0.81        2.74      3.688
1437.1                 19.68       0.93        5.88      3.735
1437.1                 21.63       1.08        1.88      3.606
1437.1                 23.89       1.25        2.03      3.497
1437.1                 26.53       1.47        4.41      3.536
1437.1                 29.64       1.74        1.35      3.215
1437.1                 33.35       2.08        2.31      2.889
1437.1                 37.81       2.52        0.73      2.693
1437.1                 43.27       3.11        4.55      2.541
1437.1                 50.05       3.89        2.06      2.220
1437.1                 58.62       4.97        0.95      2.124
1437.1                 69.29       5.96        0.08      1.996
1485.                   1.64       0.10        2.95      0.879
1485.                   1.86       0.12        6.02      1.048
1485.                   2.13       0.15        9.44      1.158
1485.                   2.46       0.19       12.91      1.266
1485.                   2.88       0.24       11.78      1.415
1485.                   3.40       0.29       10.11      1.472
1485.                   4.46       0.16        6.73      2.002
1485.                   4.81       0.28        6.42      1.942
1485.                   5.42       0.36        7.76      1.992
1485.                   6.19       0.44        5.49      2.030
1485.                   7.13       0.54        5.59      1.974
1485.                   8.27       0.62        6.30      1.824
1485.                   8.70       0.27        5.84      2.994
1485.                   9.25       0.30        5.44      3.055
1485.                   9.86       0.33        7.84      3.044
1485.                  10.53       0.36        5.33      3.217
1485.                  11.27       0.40        4.23      3.345
1485.                  12.09       0.45        2.44      3.350
1485.                  13.01       0.50        5.03      3.410
1485.                  15.19       0.63        2.68      3.236
1485.                  16.50       0.71        5.98      3.240
1485.                  17.98       0.81        1.58      3.450
1485.                  19.68       0.93        2.43      3.244
1485.                  21.63       1.08        4.16      3.260
1485.                  23.89       1.25        4.57      3.176
1485.                  26.53       1.47        5.04      3.059
1485.                  29.64       1.74        3.40      2.698
1485.                  33.35       2.08        4.28      2.676
1485.                  37.81       2.52        8.00      2.479
1485.                  43.27       3.11        5.54      2.302
1485.                  50.05       3.89        5.22      2.077
1485.                  58.62       4.97        4.84      1.745
1485.                  69.29       5.96        4.23      1.680
1485.                  84.46       9.43        3.66      1.618
ENDDATA           1244
ENDSUBENT         1251
ENDENTRY             2
