ENTRY            13922   20041130   20050707                  1335
SUBENT        13922001   20041130   20050707                  1335
BIB                  5          6
INSTITUTE  (1USABNL,1USASTB,2FR ILL)
REFERENCE  (J,NP/A,323,349,197907)
AUTHOR     (J.A.Cizewski,R.F.Casten,G.J.Smith,M.R.Macphail,
            M.L.Stelts,W.R.Kane, H.G.Borner,W.F.Davidson)
TITLE      The Level Structure of 196Pt
HISTORY    (20041118C) DR
ENDBIB               6
NOCOMMON             0          0
ENDSUBENT            9
SUBENT        13922002   20050427   20050707                  1335
BIB                 12         35
REACTION   (78-PT-195(N,G)78-PT-196,,SPC,,REL)
INC-SPECT  Reactor Spectrum
FACILITY   (REAC,1USABNL) High Flux Beam Reactor filtered beam
            facility, Bi single crystal filter, for gamma rays
            from 300 to 2500 keV.
           (REAC,2FR ILL) High Flux Reactor for gamma-rays up
            to 1500 keV.
DETECTOR   (GELI) Ge(Li) 40cm3 detector at BNL. Ge(Li) has a
            typical resolution of 2.5 keV at 1.33 MeV.
           (NAICR) NaI(Tl) scintillators at ILL
SAMPLE     Both natural and enriched (97.28% 195Pt) with various
            weights were used at BNL.
           Enriched (97.28% 195Pt) targets in an aluminum frame
            at ILL
ANALYSIS   Gamma-ray energies from 300 to 1500 keV were measured
            with Ge(Li) and NaI(Tl); gamma-ray energies from
            1500 keV up to 2500 keV were measured with Ge(Li)
            and gamma-ray energies below 300 keV were measured
            with NaI(Tl)
ERR-ANALYS (DATA-ERR) No information given
CORRECTION Relative intensity normalized to 1000 for 355 keV
            transition. Energy calibration was performed with a
            calibrated precision pulser and standard radioactive
            sources. The efficiency calibration of Ge(Li)
            detectors was based on the method described in
            REL-REF
REL-REF    (R,,W.R.Kane,J,NIM,56,189,1967)
STATUS     Data taken from table 1 of the journal
           article
FLAG       (1.) Questionable line
           (2.) Intensity corrected by nearby impurity.
           (3.) Pair of partially resolved lines. The quoted
            energies and intensities are the best estimates for
            the components.
HISTORY    (20050427A) Data units corrected.
ENDBIB              35
COMMON               1          3
EN-DUMMY
EV
0.0253
ENDCOMMON            3
DATA                 5        239
E          E-ERR      DATA       DATA-ERR   FLAG
MEV        KEV        ARB-UNITS  ARB-UNITS  NO-DIM
 138.178   0.004         1.1      0.3
 176.830   0.003         2.6      0.7
 191.164   0.006         0.9      0.3
 192.903   0.010         0.8      0.2
 201.769   0.006         0.7      0.2
 208.733   0.002         4.8      1.5
 209.642   0.006         1.2      0.4
 225.810   0.018         0.7      0.3
 226.270   0.003         1.3      0.3
 242.858   0.017         0.26     0.12
 243.119   0.018         0.20     0.10
 245.655   0.005         0.5      0.2
 276.376   0.021         0.28     0.10
 283.092   0.037         0.19     0.10
 290.539   0.049         0.22     0.10
 291.620   0.007         0.8      0.4
 293.522   0.010         0.8      0.3
 307.616   0.009         1.6      0.3
 310.588   0.008         0.4      0.2
 315.58    0.08          0.5      0.2
 316.265   0.030         0.9      0.5
 326.349   0.004        85.       7.
 332.983   0.002       411.      33.
 345.973   0.007         0.9      0.2
 346.541   0.003         6.6      1.1
 355.684   0.002      1000.
 357.729   0.009         0.7      0.2       1.
 369.455   0.048         0.4      0.2
 370.765   0.044         0.18     0.13
 372.292   0.022         0.20     0.09
 378.675   0.014         3.2      0.4
 383.748   0.008         0.9      0.3
 385.161   0.013         0.8      0.3
 393.346   0.007        10.3      0.8
 402.130   0.007         1.3      0.2
 416.443   0.006         1.4      0.4
 418.102   0.028         0.7      0.2
 418.726   0.027         0.7      0.2
 423.004   0.027         1.3      0.2
 423.7     0.3           0.6      0.2
 430.2     0.3           0.60     0.14      1.
 431.982   0.024         2.6      0.4
 440.709   0.009         0.8      0.4
 443.258   0.009         1.0      0.2
 446.613   0.003        15.3      1.1
 456.425   0.024         0.56     0.12
 459.693   0.027         0.6      0.4
 461.863   0.026         0.27     0.6
 464.126   0.009         0.60     0.13
 470.567   0.019         0.15     0.05
 484.438   0.011         2.2      0.7
 484.707   0.025         1.4      0.4
 521.175   0.005        60.       6.
 522.440   0.011         3.7      1.0
 526.576   0.026         0.39     0.11
 540.333   0.026         1.0      0.2
 541.174   0.007         3.1      0.7
 541.942   0.020         0.7      0.2
 560.354   0.010         1.2      0.3
 566.174   0.008         3.6      0.9
 566.552   0.042         0.8      0.2
 568.849   0.028         0.40     0.13
 570.203   0.018         1.4      0.4
 587.423   0.017         0.6      0.3
 589.434   0.020         0.6      0.3
 590.00    0.09          0.6      0.4
 594.206   0.033         0.7      0.2
 604.616   0.007         8.3      0.7
 623.339   0.046         1.2      0.2
 626.636   0.018         1.2      0.2
 632.80    0.06          0.43     0.12
 639.701   0.032         0.50     0.11
 641.117   0.042         1.2      0.2
 645.950   0.030         1.6      0.4
 659.389   0.012         3.7      0.8
 662.188   0.016         1.9      0.4
 663.950   0.028         1.3      0.2
 665.988   0.024         1.0      0.5
 666.988   0.032         0.5      0.3
 672.900   0.007        30.       2.
 677.341   0.030         1.1      0.4
 690.403   0.012         2.4      0.4
 698.225   0.040         1.7      0.3
 705.652   0.036         0.9      0.2
 715.3     0.4           0.7      0.2
 726.0     0.7           1.8      0.4
 727.581   0.023         7.1      1.4
 748.66    0.06          1.0      0.4
 749.996   0.044         0.7      0.3
 752.823   0.014         2.0      0.3
 758.358   0.010         6.       2.
 761.482   0.016         2.3      0.3
 779.630   0.007        39.       3.
 800.375   0.047         0.8      0.2
 813.801   0.050         1.1      0.2
 817.112   0.020         3.3      0.3
 833.581   0.050         5.0      0.5
 849.74    0.09          0.7      0.2
 854.182   0.032         1.6      0.3
 864.72    0.08          0.72     0.15
 877.769   0.031         1.9      0.3
 915.80    0.06          6.5      0.6
 918.81    0.14          1.8      0.2
 937.62    0.07          1.4      0.2
 947.4     0.6           1.2      0.5
 955.37    0.13          0.60     0.12
 956.4     0.5           1.5      0.5
 961.4     0.3           1.9      0.5
 969.94    0.12          0.8      0.2
 976.34    0.05          1.7      0.3
 988.54    0.07          3.1      0.4
1005.894   0.020        24.       2.
1029.0     0.5           0.9      0.3
1031.93    0.08          2.0      0.4
1047.044   0.020        30.       2.
1048.3     0.7           4.       1.2
1055.91    0.14          0.8      0.2
1062.66    0.06          2.4      0.5
1069.4     0.2           1.5      0.4
1080.5     0.4           0.7      0.3       1.
1091.331   0.017        30.       2.
1096.0     0.3           2.4      0.4
1101.6     0.2           3.4      0.4
1106.6     0.2           4.4      0.8
1113.716   0.040         5.0      0.9
1137.012   0.032         4.6      0.1
1143.53    0.05          2.0      0.4
1150.8     0.3           1.5      0.3
1158.82    0.13          1.2      0.2
1162.1     0.4           1.5      0.4
1188.9     0.2           1.0      0.2
1199.496   0.036        10.       2.        2.
1204.1     0.2           4.4      0.5       2.
1210.2     0.4           1.7      0.4
1229.65    0.13          2.4      0.5
1243.94    0.07          4.5      0.5
1248.838   0.031        16.3      1.4
1264.6     0.2           3.3      0.6
1272.6     0.5           1.7      0.4
1296.49    0.06          7.5      1.0
1305.586   0.041        10.4      0.7
1311.8     0.6           1.0      0.4       1.
1314.9     0.5           1.1      0.4       1.
1321.741   0.038        13.8      1.1
1330.6     0.5           1.6      0.5
1334.3     0.3           2.3      0.5
1353.0     0.4           1.3      0.5
1358.30    0.08         11.7      1.1
1360.4     0.3           5.5      0.8
1370.7     0.3           2.0      0.5
1379.1     0.3           1.8      0.6
1397.9     0.4           1.5      0.5
1404.6     0.2           4.3      0.5
1422.3     0.3           1.2      0.3
1428.7     0.3           1.3      0.3
1439.38    0.06         11.0      0.9
1446.84    0.12          7.5      0.7
1450.1     0.4           1.9      0.5
1463.5     0.3           3.7      0.6
1467.53    0.08          8.4      0.8
1473.97    0.08          9.0      1.5
1485.81    0.15          3.6      0.8
1491.600   0.044        23.       2.
1497.85    0.06         12.5      1.1
1510.745   0.048        13.3      1.1
1515.5     0.3           1.9      0.6
1526.7     0.2           2.3      1.4       2.
1532.303   0.047        20.       2.
1562.850   0.048        13.5      1.3
1576.32    0.11          7.5      1.1
1582.5     0.2           3.7      0.6
1604.3     0.3           3.3      0.6
1613.1     0.3           2.3      0.4
1620.7     0.3           5.7      1.0
1628.5     0.2           5.7      0.5
1632.4     0.2           8.8      0.7
1635.2     0.2           3.4      0.5
1643.4     0.2           7.1      0.6
1646.0     0.5           3.3      0.5
1656.5     0.3           3.1      0.4
1661.9     0.5           1.1      0.4
1671.7     0.4           2.0      0.5
1674.7     0.5           2.5      0.6
1677.5     0.2          15.       2.        2.
1686.6     0.3           3.1      0.5
1691.7     0.2           3.9      0.7
1694.3     0.4           2.6      0.6
1713.6     0.2          14.       2.        2.
1726.1     0.3           4.5      0.7
1731.9     0.3           3.9      0.7
1736.9     0.2          14.8      1.2
1768.9     0.5           2.9      0.7
1771.5     0.3           9.3      1.0
1795.0     0.3           2.7      0.7
1799.5     0.4           4.4      1.0
1802.3     0.2          26.       2.
1807.3     0.2           8.3      0.8
1818.6     0.2           2.8      0.6
1826.0     0.2          14.3      1.2
1839.4     0.3           4.0      0.5
1848.7     0.4           1.8      0.4
1853.6     0.3           2.5      0.4
1863.7     0.5           1.6      0.6
1870.0     0.7           1.4      0.6
1873.9     0.3           7.5      0.8
1888.4     0.2          15.2      1.2
1900.2     0.4           1.7      0.6       1.
1910.8     0.5           1.9      0.5       1.
1969.1     0.2          16.       2.
1978.6     0.2          26.       2.
1999.3     0.4           3.0      0.9
2066.5     0.3           9.3      1.3
2068.0     0.3           5.3      1.2
2104.4     0.3           5.5      0.9
2114.4     0.3           3.9      0.5
2132.9     0.7           2.0      0.7
2135.7     0.6           1.8      0.7
2149.1     0.7           1.3      0.5
2173.5     0.3           5.6      0.6
2183.6     0.3           8.4      1.1
2185.4     0.6           2.8      0.9       1.
2245.8     0.3           7.4      0.5
2253.4     0.4           2.0      0.4
2259.8     0.4           1.9      0.3
2275.8     0.5           1.6      0.3
2310.9     0.3          21.       2.
2321.2     0.3           3.8      0.5
2333.9     0.5           3.0      0.4
2351.0     0.3           1.8      0.3
2374.8     0.3           5.6      0.5       1.
2381.4     0.7           1.3      0.3
2392.6     0.4          11.8      0.9
2467.3     0.7           3.5      1.1       3.
2469.7     0.4          12.0      1.4
2484.1     0.7           1.6      0.4
2488.1     0.6           2.6      0.4
2492.7     0.1           1.0      0.4
2505.2     0.4           5.0      0.5
2510.4     0.7           1.3      0.4
ENDDATA            241
ENDSUBENT          285
SUBENT        13922003   20050427   20050707                  1335
BIB                 10         27
REACTION   (78-PT-195(N,G)78-PT-196,,SPC,,REL)
FACILITY   (REAC,1USABNL) High Flux Beam Reactor
            filtered beam facility, Bi single
            crystal filter
           (REAC,2FR ILL) High Flux Reactor
DETECTOR   (GELI,NAICR) Ge(Li) 40cm3 detector and NaI(Tl)
           Ge(Li) has a typical resolution of 2.5 keV
           at 1.33 MeV.
SAMPLE     Both natural and enriched (97.28% 195Pt)
            with various weights.
ERR-ANALYS (DATA-ERR) No information given
CORRECTION Relative intensity normalized to 1000 for
            355 keV transition. Energy calibration
            was performed with a calibrated precision
            pulser and standard radioactive sources.
            The efficiency calibration of Ge(Li)
            detectors was based on the method
            described in REL-REF
REL-REF    (R,,W.R.Kane,J,NIM,56,189,1967)
STATUS     Data taken from table 1 of the journal
           article
FLAG       (1.) Questionable line
           (2.) Intensity corrected by nearby impurity.
           (3.) Pair of partially resolved lines. The
            quoted energies and intensities are the
            best estimates for the components.
HISTORY    (20050427A) Data units corrected.
ENDBIB              27
COMMON               1          3
EN
EV
11.9
ENDCOMMON            3
DATA                 5        173
E          E-ERR      DATA       DATA-ERR   FLAG
MEV        KEV        ARB-UNITS  ARB-UNITS  NO-DIM
 176.830   0.003         2.7      0.9
 192.903   0.010         0.8      0.2
 208.733   0.002         1.3      0.4
 209.642   0.006         1.3      0.4
 226.270   0.003         1.2      0.6
 293.522   0.010         2.1      0.4
 307.616   0.009         1.7      0.3
 326.349   0.004        96.       9.
 332.983   0.002       379.      36.
 346.541   0.003         2.7      1.0
 355.684   0.002      1000.
 378.675   0.014         2.7      0.4
 385.161   0.013         0.36     0.13
 393.346   0.007        14.       2.
 416.443   0.006         3.2      0.5
 418.102   0.028         3.2      0.5
 418.726   0.027         3.2      0.5
 423.004   0.027         2.4      0.5
 431.982   0.024         2.5      0.3
 440.709   0.009         0.9      0.3
 446.613   0.003         9.9      1.0
 470.567   0.019         0.6      0.3
 484.438   0.011         2.0      0.6
 484.707   0.025         2.0      0.6
 521.175   0.005        78.      10.
 540.333   0.026         3.9      0.3
 541.174   0.007         3.9      0.3
 566.174   0.008         2.3      0.2
 566.552   0.042         2.3      0.2
 570.203   0.018         1.9      0.2
 587.423   0.017         0.83     0.13
 589.434   0.020         0.83     0.13
 590.00    0.09          0.83     0.13
 604.616   0.007        10.9      0.8
 626.636   0.018         1.0      0.4
 641.117   0.042         0.51     0.11
 645.950   0.030         0.93     0.14
 656.5     0.6           0.7      0.4
 659.389   0.012         5.0      0.4
 662.188   0.016         0.9      0.2
 663.950   0.028         1.1      0.2
 665.988   0.024         0.9      0.2
 666.988   0.032         0.9      0.2
 672.900   0.007        23.       2.
 715.3     0.4           0.64     0.14
 726.0     0.7           2.0      0.3
 727.581   0.023         7.6      0.6
 752.823   0.014         0.9      0.2
 758.358   0.010         8.2      0.7
 761.482   0.016         0.8      0.3
 770.8     0.4           0.6      0.4
 775.1     0.5           0.5      0.2
 779.630   0.007        22.       2.
 817.112   0.020         3.7      0.3
 825.0     0.6           1.1      0.5
 833.581   0.050         2.3      0.7
 849.74    0.09          0.7      0.3
 854.182   0.032         2.4      0.3
 864.72    0.08          0.9      0.3
 877.769   0.031         3.2      0.4
 885.3     0.6           1.6      0.5
 915.80    0.06          8.8      0.7
 918.81    0.14          1.5      0.6
 955.37    0.13          1.1      0.2
 976.34    0.05          2.0      0.5
 988.54    0.07          2.3      0.3
1005.894   0.020        22.       2.
1029.0     0.5           1.2      0.5
1031.93    0.08          2.5      0.5
1042.4     0.6           0.7      0.3
1047.044   0.020        35.       4.
1048.3     0.7           8.       2.
1062.66    0.06          0.7      0.2
1069.4     0.2           2.0      0.4
1080.5     0.4           0.6      0.3       1.
1091.331   0.017        33.       2.
1106.6     0.2           2.4      0.9
1113.716   0.040         7.1      0.6
1137.012   0.032         3.7      0.9
1143.53    0.05          2.2      0.5
1158.82    0.13          2.6      0.5
1188.9     0.2           0.9      0.6
1199.496   0.036         4.8      1.4       2.
1204.1     0.2           4.       2.        2.
1210.2     0.4           1.4      0.3
1222.6     0.9           0.7      0.3
1227.6     0.14          1.8      1.2
1229.65    0.13          3.3      1.2       1.
1243.94    0.07          3.6      0.5
1246.8     0.6           2.6      0.8
1248.838   0.031        22.       9.
1264.6     0.2           1.5      0.5
1272.6     0.5           1.6      0.4
1296.49    0.06         10.       2.
1305.586   0.041         2.5      0.4       1.
1321.741   0.038        10.2      0.8
1328.4     0.3           1.7      0.5
1353.0     0.4           1.8      0.7
1358.30    0.08         12.0      1.3
1360.4     0.3           7.0      1.1
1404.6     0.2           4.8      0.5
1439.38    0.06         12.3      0.9
1446.84    0.12          8.5      0.6
1467.53    0.08         37.       3.
1473.97    0.08          8.6      0.9
1485.81    0.15         19.2      1.4
1491.600   0.044        27.       2.
1497.85    0.06         15.7      1.2
1510.745   0.048         3.4      0.9
1515.5     0.3           1.9      0.6
1526.7     0.2           5.1      0.8       2.
1532.303   0.047        10.8      0.9
1562.850   0.048        28.       3.
1573.5     0.3           8.       2.
1576.32    0.11          7.       2.
1582.5     0.2           3.4      0.5
1604.3     0.3           6.4      1.0
1632.4     0.2           7.       2.
1635.2     0.2          13.9      1.2
1643.4     0.2           3.0      1.4
1646.0     0.5           6.6      1.4
1661.9     0.5           2.2      0.5
1671.7     0.4           0.9      0.3
1677.5     0.2          13.       2.        2.
1686.6     0.3           3.5      0.9
1691.7     0.2           6.1      0.8
1713.6     0.2          24.       2.        2.
1731.9     0.3           6.6      1.0
1736.9     0.2          13.0      1.1
1771.5     0.3           6.8      0.8
1791.3     0.9           1.8      0.4
1795.0     0.3           2.9      0.4
1802.3     0.2          37.       3.
1807.3     0.2          10.6      1.3
1818.6     0.2          22.       2.
1826.0     0.2          13.       2.
1829.2     0.2           1.5      0.4
1839.4     0.3           0.8      0.4
1870.0     0.7           1.4      0.4
1873.9     0.3           3.3      0.6
1888.4     0.2           8.       2.
1907.0     0.6           1.7      0.4
1929.8     0.3           2.0      0.3
1953.1     0.6           1.3      0.5
1958.0     0.6           1.7      0.5
1962.0     0.6           1.3      0.2
1969.1     0.2          14.       2.
1971.8     0.3           4.0      0.5
1976.6     0.8           3.7      0.5
1978.6     0.2           5.0      0.6
2017.1     0.6           1.0      0.3
2045.3     0.5           3.4      0.8
2050.1     0.6           1.6      0.7
2068.0     0.3          16.7      1.3
2104.4     0.3           3.4      0.5
2114.4     0.3           4.1      0.9
2135.7     0.6           6.5      1.0
2173.5     0.3           3.3      0.8
2183.6     0.3           9.5      1.0
2232.5     1.4           3.3      0.9       1.
2245.8     0.3          10.       2.
2304.6     0.3           5.2      1.2
2310.9     0.3          10.       2.
2313.8     0.7           2.8      1.5
2321.2     0.3           9.0      1.4
2341.4     0.5           2.9      0.6
2351.0     0.3           7.       2.
2374.8     0.3           8.9      9.
2381.4     0.7           2.3      1.1       1.
2392.6     0.4           3.1      0.9
2424.7     1.1           2.1      0.8
2467.3     0.7          27.       4.        3.
2469.7     0.4          27.       4.        3.
ENDDATA            175
ENDSUBENT          211
SUBENT        13922004   20050427   20050707                  1335
BIB                 10         23
REACTION   (78-PT-195(N,G)78-PT-196,,SPC,,REL)
INC-SPECT  Reactor Spectrum
FACILITY   (REAC,1USABNL) High Flux Beam Reactor
            monochromator facility
DETECTOR   (GELI) Ge(Li) 40cm3 detector. Typical
            Ge(Li) detector resolution is
            9 keV at 8 MeV
SAMPLE     Natural target of 3.5 g and enriched 195Pt
           (97.28 %) target of 10 g in aluminum frame.
ERR-ANALYS (DATA-ERR) No information given
METHOD     Relative intensity normalized to 1000 for
           355 keV transition.
STATUS     Data taken from table 3 of the journal
           article.
FLAG       (1.) Questionable line
           (2.) Broad peak, possible unresolved multiplet.
            The centroid energy and total intensity are
            quoted.
           (3.) Intensity corrected by nearby impurity.
           (4.) Pair of partially resolved lines. The
            quoted energies and intensities are the
            best estimates for the components.
HISTORY    (20050427A) Data units corrected.
ENDBIB              23
COMMON               1          3
EN-DUMMY
EV
0.0253
ENDCOMMON            3
DATA                 5         44
E          E-ERR      DATA       DATA-ERR   FLAG
MEV        KEV        ARB-UNITS  ARB-UNITS  NO-DIM
5255.3     0.7         104.       8.
5261.2     0.8          16.       2.
5307.6     0.7          26.       2.
5367.7     1.3           2.0      0.8       1.
5393.7     0.7          23.       2.        2.
5417.9     0.8           2.8      8.
5435.4     1.4           5.       2.
5452.0     0.6          16.0      1.7
5459.6     1.4           2.6      1.0
5500.7     0.7           5.5      0.9       1.
5539.0     0.8           3.0      1.0
5546.9     0.9           5.6      1.2
5553.7     1.5           2.6      1.0
5577.3     0.8           5.3      1.0
5612.5     0.5          25.       2.
5677.0     1.0           3.9      1.1       2.
5717.3     1.2           4.1      1.3
5722.9     0.7          13.6      1.7
5739.3     0.6           8.6      1.1
5747.5     1.0           4.6      1.0
5760.1     0.6          14.5      1.6
5795.0     0.6           6.4      0.9
5829.8     0.6           4.4      0.7
5852.2     1.0           1.8      0.4
5874.9     0.6           8.3      0.9
5911.4     0.6           8.4      0.7       2.
5936.8     1.1           1.7      0.7
5953.4     0.5          15.7      1.3
5990.9     0.8           3.6      0.8
6003.6     0.6          13.3      0.1
6034.0     0.7          24.       3.        3.
6071.2     1.3           3.0      1.4       4.
6075.6     0.9           5.7      1.4       4.
6095.9     1.1           2.2      0.7       4.
6101.5     1.5           1.4      0.7       4.
6120.1     0.9           2.4      0.5
6243.8     1.0           1.1      0.3
6318.7     0.8           1.5      0.3
6518.8     0.9           1.2      0.3
6560.5     0.6           2.9      0.3
6787.0     1.1           1.8      0.7
7234.3     0.6          11.0      1.2
7566.6     0.6           3.8      0.5
7922.2     0.6          10.8      0.8
ENDDATA             46
ENDSUBENT           78
SUBENT        13922005   20050427   20050707                  1335
BIB                 10         22
REACTION   (78-PT-195(N,G)78-PT-196,,SPC,,REL)
FACILITY   (REAC,1USABNL) High Flux Beam Reactor
INC-SPECT  Monochromator facility
DETECTOR   (GELI) Ge(Li) 40cm3 detector. Typical
            Ge(Li) detector resolution is
            9 keV at 8 MeV
SAMPLE     Natural target of 3.5 g and enriched 195Pt
           (97.28 %) target of 10 g in aluminum frame.
ERR-ANALYS (DATA-ERR) No information given
METHOD     Relative intensity normalized to 1000 for
           355 keV transition.
STATUS     Data taken from table 3 of the journal
           article.
FLAG       (1.) Questionable line
           (2.) Broad peak, possible unresolved multiplet.
            The centroid energy and total intensity are
            quoted.
           (3.) Intensity corrected by nearby impurity.
           (4.) Pair of partially resolved lines. The
            quoted energies and intensities are the
            best estimates for the components.
HISTORY    (20050427A) Data units corrected.
ENDBIB              22
COMMON               1          3
EN
EV
11.9
ENDCOMMON            3
DATA                 6         44
EN         E          E-ERR      DATA       DATA-ERR   FLAG
EV         MEV        KEV        ARB-UNITS  ARB-UNITS  NO-DIM
11.9       5392.      2.            2.4       0.7
11.9       5451.9     1.5           6.9       1.4
11.9       5521.3     1.5           4.7       1.1
11.9       5597.7     1.5           4.8       1.1
11.9       5659.1     1.5           8.        2.
11.9       5720.      2.            3.6       1.1
11.9       5747.3     1.5          22.        4.
11.9       5760.      2.           13.        3.
11.9       5795.      3.            1.1       0.6      1.
11.9       5828.5     1.7           3.1       0.7
11.9       5875.      1.5           6.9       1.4
11.9       5910.9     1.5           3.5       0.9
11.9       5952.4     1.5           2.0       0.9      1.
11.9       6003.8     1.5          17.        4.
11.9       6067.9     1.6           5.4       1.3
11.9       6074.3     1.5           4.2       1.1
11.9       6098.2     1.5          19.        4.
11.9       6317.2     1.1          10.        2.
11.9       6519.4     1.1          15.        4.
11.9       6560.6     1.4           2.4       0.6
11.9       7566.0     1.3           2.0       0.6
11.9       7922.4     1.1          59.       11.
19.6       5262.      2.           20.        3.
19.6       5392.9     1.5          24.        3.
19.6       5428.      2.           17.        2.
19.6       5477.7     1.5           7.7       1.3
19.6       5520.2     1.5          13.        2.
19.6       5675.8     1.5          14.        2.
19.6       5692.5     1.5           8.3       1.3
19.6       5717.3     1.5          16.        2.
19.6       5758.9     1.5          51.        5.
19.6       5829.0     1.5          14.        3.
19.6       5910.7     1.5          10.5       1.3
19.6       5922.2     1.5           7.4       1.2
19.6       5952.9     1.5          49.        4.
19.6       6033.7     1.5           9.8       1.0
19.6       6119.2     1.5          42.        4.
19.6       6126.0     1.5          15.        3.
19.6       6244.4     1.5          83.        9.
19.6       6518.9     1.5         100.
19.6       6786.4     1.5           5.8       0.7
19.6       7233.0     1.5          12.0       1.0
19.6       7566.3     1.5          10.4       0.9
19.6       7922.2     1.5          27.        2.
ENDDATA             46
ENDSUBENT           77
SUBENT        13922006   20041130
BIB                  8         19
REACTION   (78-PT-195(N,G)78-PT-196,,SPC,,REL)
INC-SPECT  Reactor Spectrum
FACILITY   (REAC,1USABNL) High Flux Beam Reactor
            Sc filtered beam facility
DETECTOR   (GELI,NAICR) Ge(Li) 40cm3 detector. Typical
            Ge(Li) detector resolution is
            9 keV at 8 MeV
SAMPLE     Natural target of 3.5 g and enriched 195Pt
           (97.28 %) target of 10 g in aluminum frame.
ERR-ANALYS (DATA-ERR) No information given
METHOD     Thermal beam is provided by a 28 cm long
            Bi single crystal filter. Primary
            gamma rays are detected with a three-
            crystal pair spectrometer (a central Ge(Li)
            surrounded by two NaI(Tl))
            Relative intensity normalized to 100 for
            7923 keV transition.
STATUS     Data taken from table 4 of the journal
           article
ENDBIB              19
COMMON               2          3
EN         EN-RSL-FW
KEV        EV
2.         850.
ENDCOMMON            3
DATA                 4         57
E          E-ERR      DATA       DATA-ERR
MEV        KEV        ARB-UNITS  ARB-UNITS
7923.2     0.5        100.
7567.8     0.5         83.       7.
7234.9     0.5         83.       7.
6788.1     0.6         38.       4.
6562.0     0.6         46.       4.
6520.8     0.6         34.       4.
6319.2     0.6         33.       4.
6246.3     0.6         27.       3.
6128.0     0.8         16.       3.
6120.9     0.7         29.       3.
6100.3     0.6         29.       3.
6076.2     0.7         29.       4.
6070.2     0.8         18.       3.
6035.8     0.6         47.       5.
6005.3     0.7         22.       3.
5991.2     0.6         33.       4.
5954.8     0.6         45.       4.
5938.5     0.6         35.       4.
5923.1     0.8         13.       3.
5912.5     0.8         14.       3.
5876.6     0.6         44.       4.
5854.2     0.6         34.       4.
5831.2     0.6         52.       5.
5796.3     0.7         28.       3.
5762.3     0.6         37.       4.
5749.5     0.7         16.       3.
5740.5     0.6         32.       4.
5724.2     0.9         17.       4.
5719.3     0.9         18.       4.
5694.0     0.6         31.       4.
5678.1     0.6         34.       4.
5661.0     0.7         17.       3.
5653.0     0.7         24.       3.
5614.0     0.7         26.       3.
5599.5     0.7         22.       3.
5578.7     0.7         22.       3.
5556.9     0.7         27.       3.
5549.4     0.7         25.       3.
5540.8     0.7         21.       3.
5523.1     0.7         17.       2.
5502.1     0.7         26.       3.
5480.2     0.7         17.       3.
5464.2     0.7         17.       3.
5453.8     0.7         24.       3.
5435.8     0.8         17.       3.
5430.0     0.8         18.       3.
5419.4     0.8         11.       3.
5395.3     0.6         33.       4.
5369.9     0.8         10.       2.
5352.4     0.7         18.       3.
5336.3     0.7         18.       2.
5324.1     0.9          9.       2.
5316.4     0.8         14.       2.
5308.8     0.7         15.       2.
5293.3     0.8         10.       2.
5264.9     0.7         22.       3.
5257.3     0.7         19.       3.
ENDDATA             59
ENDSUBENT           87
ENDENTRY             6
