ENTRY            F1208   20131217   20140701   20140626       F053
SUBENT        F1208001   20131217   20140701   20140626       F053
BIB                  9         15
TITLE      The Be-9(d,n)B-10 reaction as intense neutron source
           with continuous energy spectrum.
AUTHOR     (F.M.Baumann,G.Domogala,H.Freiesleben,H.J.Paul,
           S.Puhlvers,H.Sohlbach)
INSTITUTE  (2GERBOC)
REFERENCE  (J,NIM/A,247,359,1986)
           #doi:10.1016/0168-9002(86)91318-5
FACILITY   (DYNAM,2GERBOC) The 4 MV Dynamitron Tandem Accelerator.
INC-SOURCE 100 mu-A direct current was used.
DETECTOR   (SCIN) Neutrons were registered with NE213 liquid
           scintillators of 10 cm diameter with thicknesses of
           7.5 or 10 cm; they were coupled to Millard XP2040
           photomultipliers.
METHOD     (TOF)
HISTORY    (20131217C)
ENDBIB              15
NOCOMMON             0          0
ENDSUBENT           18
SUBENT        F1208002   20131217   20140701   20140626       F053
BIB                  5          8
REACTION   (4-BE-9(D,N)5-B-10,PAR,DA)
DETECTOR   Three 10 cm thick NE213 neutron detectors were used.
SAMPLE     Be-9 target of 1.925 mg/cm2 thickness.
ERR-ANALYS (ANG-ERR-D)  Angle digitizing error
           (ERR-DIG)    Data digitizing error
           (DATA-ERR)   No source of uncertainties for the graphic
           bars is given
STATUS     (CURVE) Fig.3
ENDBIB               8
COMMON               3          3
EN         ANG-ERR-D  ERR-DIG
MEV        ADEG       PER-CENT
  8.        0.221       3.22
ENDCOMMON            3
DATA                 4         82
E-LVL      ANG-CM     DATA-CM    DATA-ERR
MEV        ADEG       MB/SR      MB/SR
         0.      0.139     2.1131     0.3465
         0.     10.986     5.8644     1.2061
         0.     21.810    10.0100     2.2594
         0.     32.956     9.2452     1.9014
         0.     42.320     3.5796     0.5869
         0.     43.021     3.8645     0.6334
         0.     54.144     2.1953     0.4062
         0.     64.928     1.4918     0.2124
         0.     75.036     1.6485     0.3051
         0.     84.797     1.8690     0.2658
         0.     95.943     1.7263     0.3195
         0.    105.000     1.5953     0.2955
         0.    114.750     1.4367     0.2357
     0.7184      0.295     2.2887     0.3710
     0.7184     11.159     5.6462     1.0345
     0.7184     21.601     7.9857     1.4632
     0.7184     22.311     9.0580     2.3700
     0.7184     32.699     8.5467     1.7404
     0.7184     42.613     3.1633     0.5134
     0.7184     42.966     3.3266     0.6095
     0.7184     53.933     1.3614     0.2492
     0.7184     64.986     1.0486     0.2133
     0.7184     74.681     0.9899     0.1814
     0.7184     84.746     1.1153     0.1810
     0.7184     95.819     0.9999     0.1625
     0.7184    105.490     0.7710     0.1568
     0.7184    115.520     0.6917     0.0973
       1.74      0.227     0.8979     0.2517
       1.74     11.421     1.5948     0.4470
       1.74     21.878     2.0397     0.5341
       1.74     22.579     2.1446     0.5612
       1.74     33.301     1.4203     0.3451
       1.74     42.498     0.3253     0.0791
       1.74     43.216     0.3882     0.1088
       1.74     53.899     0.1898     0.0532
       1.74     64.688     0.2138     0.0560
       1.74     75.129     0.2409     0.0719
       1.74     85.169     0.1767     0.0463
       1.74     96.283     0.1667     0.0437
       1.74    104.940     0.1354     0.0303
       1.74    115.380     0.1414     0.0316
      2.154      0.552     1.6235     0.3004
      2.154     10.977     2.0226     0.3316
      2.154     22.137     3.1699     0.5857
      2.154     33.199     2.9033     0.5373
      2.154     42.735     1.2362     0.2027
      2.154     43.465     1.5158     0.2805
      2.154     54.133     1.0754     0.2211
      2.154     65.167     0.8448     0.1561
      2.154     75.190     0.7746     0.1433
      2.154     85.223     0.7475     0.1064
      2.154     96.279     0.6673     0.1235
      2.154    104.920     0.6285     0.1034
      2.154    115.330     0.7069     0.1452
      3.585      0.217     2.6931     0.5009
      3.585     10.712     3.1291     0.7101
      3.585     21.520     2.2298     0.3189
      3.585     22.224     2.4080     0.3441
      3.585     33.034     1.7607     0.2901
      3.585     42.799     1.3559     0.2234
      3.585     43.155     1.4645     0.2722
      3.585     53.970     1.1567     0.1654
      3.585     64.788     0.9374     0.1340
      3.585     75.277     1.0083     0.1660
      3.585     85.054     0.9061     0.1685
      3.585     96.221     0.7342     0.1050
      3.585    104.600     0.6434     0.1198
      3.585    115.450     0.7869     0.1464
      4.774      0.178     1.5364     0.3488
      4.774     10.913     1.6873     0.3138
      4.774     21.616     1.5084     0.2489
      4.774     22.319     1.6284     0.3693
      4.774     33.019     1.4188     0.2638
      4.774     42.668     1.1454     0.2367
      4.774     43.372     1.2365     0.2552
      4.774     53.749     1.2575     0.2075
      4.774     65.171     1.3452     0.2216
      4.774     75.203     1.3684     0.2251
      4.774     85.218     1.2559     0.2336
      4.774     96.247     0.9869     0.1626
      4.774    105.260     1.1428     0.1880
      4.774    115.300     1.1928     0.1706
ENDDATA             84
ENDSUBENT          101
SUBENT        F1208003   20131217   20140701   20140626       F053
BIB                  5          8
REACTION   (4-BE-9(D,N)5-B-10,PAR,DA)
DETECTOR   Three 10 cm thick NE213 neutron detectors were used.
SAMPLE     Be-9 target of 1.925 mg/cm2 thickness.
ERR-ANALYS (ANG-ERR-D)  Angle digitizing error
           (ERR-DIG)    Data digitizing error
           (DATA-ERR)   No source of uncertainties for the graphic
           bars is given
STATUS     (CURVE) Fig.4
ENDBIB               8
COMMON               5          3
E-LVL      E-LVL      E-LVL      ANG-ERR-D  ERR-DIG
MEV        MEV        MEV        ADEG       PER-CENT
  5.110      5.163      5.180     0.254       1.42
ENDCOMMON            3
DATA                 4         26
EN         ANG-CM     DATA-CM    DATA-ERR
MEV        ADEG       MB/SR      MB/SR
         4.      0.138     7.6147     0.7833
         4.     10.735     7.1145     0.4486
         4.     11.037     7.5976     0.6280
         4.     22.282     6.3719     0.4018
         4.     22.549     7.4220     0.4680
         4.     33.482     5.9567     0.4955
         4.     44.657     5.9433     0.6114
         4.     55.521     5.6747     0.4720
         4.     66.057     5.4151     0.4504
         4.     76.618     4.8416     0.3053
         4.     86.816     4.7189     0.2950
         4.     96.686     4.5966     0.2899
         4.    106.890     4.3838     0.2788
         8.      0.429    42.0250     3.4957
         8.     10.988    31.5530     3.2459
         8.     21.881     9.7268     1.0006
         8.     33.542     5.2816     0.3331
         8.     42.860     3.3260     0.3438
         8.     43.464     3.7929     0.2411
         8.     53.909     3.8593     0.3970
         8.     65.064     3.3769     0.2826
         8.     75.362     2.1300     0.1354
         8.     85.211     1.8597     0.1547
         8.     95.639     1.9763     0.1246
         8.    104.500     1.7605     0.1110
         8.    114.540     2.2245     0.1850
ENDDATA             28
ENDSUBENT           45
SUBENT        F1208004   20140623   20140701   20140626       F053
BIB                  6          9
REACTION   (4-BE-9(D,X)0-NN-1,,PY/DA/DE,,TT/CH)
COMMENT    Original data were presented in keV*micro-Curie*msr
DETECTOR   The neutron detectors were positioned 6.2 cm from the
           Be-9 target centered in the BONCO at various scattering
           angles.
SAMPLE     Be-9 target of 65.5 mg/cm2 thickness was  used.
ERR-ANALYS (E-ERR-DIG)  Energy digitizing error
           (ERR-DIG)    Data digitizing error
STATUS     (CURVE) Fig.6
ENDBIB               9
COMMON               3          3
EN         E-ERR-DIG  ERR-DIG
MEV        MEV        P/MEVMUCSR
  7.5        0.0217     4.020E+05
ENDCOMMON            3
DATA                 3        404
ANG        E          DATA
ADEG       MEV        P/MEVMUCSR
         0.     1.1782  3.339E+06
         0.     1.1808  2.367E+07
         0.     1.1849  5.044E+07
         0.     1.1861  5.708E+07
         0.     1.1865  1.413E+07
         0.     1.1867  2.119E+07
         0.     1.1884  2.762E+07
         0.     1.1887  4.173E+07
         0.     1.1917  6.186E+07
         0.     1.1935  1.123E+07
         0.     1.1935  5.397E+07
         0.     1.1960  3.156E+07
         0.     1.1966  1.704E+07
         0.     1.1971  3.820E+07
         0.     1.1973  4.526E+07
         0.     1.2039  6.875E+06
         0.     1.2056  3.468E+07
         0.     1.2129  6.726E+07
         0.     1.2193  6.456E+07
         0.     1.2725  7.081E+07
         0.     1.3115  6.875E+07
         0.     1.3522  7.312E+07
         0.     1.4313  7.564E+07
         0.     1.4539  8.042E+07
         0.     1.5106  8.521E+07
         0.     1.5663  9.042E+07
         0.     1.5929  9.354E+07
         0.     1.6055  9.541E+07
         0.     1.6170  9.770E+07
         0.     1.6466  9.957E+07
         0.     1.7112  1.011E+08
         0.     1.7694  1.052E+08
         0.     1.8224  1.044E+08
         0.     1.8840  1.071E+08
         0.     1.9111  1.100E+08
         0.     1.9486  1.086E+08
         0.     1.9787  1.103E+08
         0.     2.0152  1.093E+08
         0.     2.0588  1.124E+08
         0.     2.1034  1.151E+08
         0.     2.1170  1.166E+08
         0.     2.1749  1.137E+08
         0.     2.2566  1.151E+08
         0.     2.3446  1.139E+08
         0.     2.4016  1.115E+08
         0.     2.4492  1.129E+08
         0.     2.4807  1.140E+08
         0.     2.4906  1.098E+08
         0.     2.5392  1.109E+08
         0.     2.5632  1.080E+08
         0.     2.6557  1.049E+08
         0.     2.6828  1.078E+08
         0.     2.7244  1.118E+08
         0.     2.7873  1.068E+08
         0.     2.8798  1.038E+08
         0.     2.8954  1.044E+08
         0.     2.9613  9.817E+07
         0.     2.9923  9.943E+07
         0.     3.0064  1.007E+08
         0.     3.0659  9.717E+07
         0.     3.1569  9.471E+07
         0.     3.2188  9.017E+07
         0.     3.3153  8.543E+07
         0.     3.3853  8.463E+07
         0.     3.4578  8.279E+07
         0.     3.6110  8.284E+07
         0.     3.6510  8.037E+07
         0.     3.7190  8.039E+07
         0.     3.7935  7.772E+07
         0.     3.9410  7.300E+07
         0.     4.0155  7.033E+07
         0.     4.0461  7.179E+07
         0.     4.0856  6.952E+07
         0.     4.1751  6.769E+07
         0.     4.2812  6.606E+07
         0.     4.3577  6.256E+07
         0.     4.3702  6.444E+07
         0.     4.4543  6.488E+07
         0.     4.5448  6.263E+07
         0.     4.6349  6.059E+07
         0.     4.7094  5.792E+07
         0.     4.7503  5.503E+07
         0.     4.8559  5.361E+07
         0.     4.8818  4.989E+07
         0.     4.9563  4.721E+07
         0.     5.0478  4.455E+07
         0.     5.1004  4.395E+07
         0.     5.1724  4.231E+07
         0.     5.2264  4.109E+07
         0.     5.3426  4.237E+07
         0.     5.4301  4.137E+07
         0.     5.5007  4.035E+07
         0.     5.5406  3.788E+07
         0.     5.6297  3.625E+07
         0.     5.6736  3.211E+07
         0.     5.6805  2.921E+07
         0.     5.7065  2.549E+07
         0.     5.7499  2.156E+07
         0.     5.7573  1.845E+07
         0.     5.7963  1.639E+07
         0.     5.8353  1.433E+07
         0.     5.8408  1.205E+07
         0.     5.9158  9.168E+06
         0.     5.9722  6.906E+06
         0.     6.0933  6.119E+06
         0.     6.1604  6.558E+06
         0.     6.2645  5.765E+06
         0.     6.3836  5.807E+06
         0.     6.4857  5.843E+06
         0.     6.6048  5.885E+06
         0.     6.7249  5.513E+06
         0.     6.7920  5.952E+06
         0.     6.9116  5.787E+06
         0.     7.0137  5.823E+06
         0.     7.1333  5.658E+06
         0.     7.2879  5.090E+06
         0.     7.4415  4.937E+06
         0.     7.5436  4.973E+06
         0.     7.6988  4.198E+06
         0.     7.8184  4.033E+06
         0.     7.9195  4.484E+06
         0.     8.0376  4.941E+06
         0.     8.2603  4.397E+06
         0.     8.4304  4.458E+06
         0.     8.5841  4.305E+06
         0.     8.7382  3.944E+06
         0.     8.9439  3.395E+06
         0.     9.1150  3.041E+06
         0.     9.2687  2.888E+06
         0.     9.4563  2.747E+06
         0.     9.6110  2.179E+06
         0.     9.7811  2.239E+06
         0.     9.9343  2.294E+06
         0.    10.0370  2.122E+06
         0.    10.1050  2.147E+06
         0.    10.3280  1.396E+06
         0.    10.4810  1.450E+06
         0.    10.6350  1.090E+06
         0.    10.7890  9.370E+05
         0.    10.9080  9.790E+05
         0.    11.0450  8.200E+05
         0.    11.1810  8.680E+05
        20.     1.1771  6.364E+07
        20.     1.1931  3.262E+07
        20.     1.1934  4.508E+07
        20.     1.1970  2.487E+07
        20.     1.2007  3.610E+07
        20.     1.2055  4.059E+07
        20.     1.2061  6.549E+07
        20.     1.2135  5.651E+07
        20.     1.2176  6.754E+07
        20.     1.2184  2.957E+07
        20.     1.2191  4.815E+07
        20.     1.2192  1.671E+07
        20.     1.2194  4.056E+06
        20.     1.2211  5.999E+07
        20.     1.2234  5.284E+07
        20.     1.2246  2.100E+07
        20.     1.2258  1.427E+07
        20.     1.2276  7.326E+06
        20.     1.2341  1.121E+07
        20.     1.2483  6.878E+07
        20.     1.3356  6.799E+07
        20.     1.3460  7.045E+07
        20.     1.3751  7.229E+07
        20.     1.4535  7.477E+07
        20.     1.4617  7.804E+07
        20.     1.4891  8.050E+07
        20.     1.5686  8.258E+07
        20.     1.5921  8.646E+07
        20.     1.6267  8.627E+07
        20.     1.6903  8.793E+07
        20.     1.7496  9.122E+07
        20.     1.8390  8.962E+07
        20.     1.8687  9.127E+07
        20.     1.9214  9.067E+07
        20.     1.9356  9.170E+07
        20.     2.0185  9.255E+07
        20.     2.0619  8.910E+07
        20.     2.1063  9.156E+07
        20.     2.1969  8.956E+07
        20.     2.2008  8.813E+07
        20.     2.2661  8.918E+07
        20.     2.3204  8.797E+07
        20.     2.3594  8.615E+07
        20.     2.4127  8.535E+07
        20.     2.4412  8.741E+07
        20.     2.5033  8.335E+07
        20.     2.5467  7.989E+07
        20.     2.5757  8.174E+07
        20.     2.6164  7.931E+07
        20.     2.6795  8.117E+07
        20.     2.7185  7.935E+07
        20.     2.7553  7.834E+07
        20.     2.7948  7.632E+07
        20.     2.8498  7.491E+07
        20.     2.8821  7.554E+07
        20.     2.9036  7.391E+07
        20.     2.9448  7.127E+07
        20.     2.9997  6.987E+07
        20.     3.0222  6.783E+07
        20.     3.0535  6.887E+07
        20.     3.1150  6.501E+07
        20.     3.1546  6.299E+07
        20.     3.2106  6.117E+07
        20.     3.2628  6.078E+07
        20.     3.2990  5.998E+07
        20.     3.3445  6.204E+07
        20.     3.3852  5.961E+07
        20.     3.4231  5.819E+07
        20.     3.4769  5.719E+07
        20.     3.4889  5.903E+07
        20.     3.5411  5.865E+07
        20.     3.5625  5.702E+07
        20.     3.6328  5.623E+07
        20.     3.6712  5.461E+07
        20.     3.7590  5.363E+07
        20.     3.8151  5.181E+07
        20.     3.9029  5.083E+07
        20.     3.9885  5.065E+07
        20.     4.0741  5.048E+07
        20.     4.0813  4.783E+07
        20.     4.1407  4.479E+07
        20.     4.1775  4.379E+07
        20.     4.2335  4.197E+07
        20.     4.3010  4.220E+07
        20.     4.3235  4.017E+07
        20.     4.3877  4.162E+07
        20.     4.4421  4.042E+07
        20.     4.5074  4.147E+07
        20.     4.5859  3.762E+07
        20.     4.6458  3.438E+07
        20.     4.6985  3.378E+07
        20.     4.7578  3.075E+07
        20.     4.7979  2.852E+07
        20.     4.8567  2.568E+07
        20.     4.8952  2.406E+07
        20.     5.0176  2.289E+07
        20.     5.1027  2.292E+07
        20.     5.2267  2.113E+07
        20.     5.2608  2.114E+07
        20.     5.3799  2.119E+07
        20.     5.4666  2.061E+07
        20.     5.5204  1.961E+07
        20.     5.5605  1.738E+07
        20.     5.6505  1.558E+07
        20.     5.6918  1.294E+07
        20.     5.7801  1.175E+07
        20.     5.8334  1.096E+07
        20.     5.8987  1.200E+07
        20.     5.9015  1.098E+07
        20.     6.0727  1.064E+07
        20.     6.1918  1.069E+07
        20.     6.2922  1.134E+07
        20.     6.3114  1.053E+07
        20.     6.4635  1.100E+07
        20.     6.5134  1.143E+07
        20.     6.5985  1.146E+07
        20.     6.7346  1.151E+07
        20.     6.8526  1.197E+07
        20.     6.9547  1.201E+07
        20.     7.0573  1.184E+07
        20.     7.1254  1.187E+07
        20.     7.2461  1.130E+07
        20.     7.3306  1.154E+07
        20.     7.4344  1.097E+07
        20.     7.4826  1.201E+07
        20.     7.6369  1.166E+07
        20.     7.7390  1.170E+07
        20.     7.8240  1.173E+07
        20.     7.9063  1.278E+07
        20.     7.9761  1.220E+07
        20.     8.0595  1.284E+07
        20.     8.1270  1.307E+07
        20.     8.1961  1.269E+07
        20.     8.2461  1.312E+07
        20.     8.2988  1.253E+07
        20.     8.4168  1.298E+07
        20.     8.4848  1.301E+07
        20.     8.5529  1.304E+07
        20.     8.6402  1.225E+07
        20.     8.7274  1.147E+07
        20.     8.8295  1.151E+07
        20.     8.9678  1.075E+07
        20.     9.0540  1.037E+07
        20.     9.1912  1.002E+07
        20.     9.2769  9.847E+06
        20.     9.4141  9.492E+06
        20.     9.5337  9.335E+06
        20.     9.6698  9.388E+06
        20.     9.8060  9.441E+06
        20.     9.9108  8.461E+06
        20.    10.0650  8.113E+06
        20.    10.1340  7.732E+06
        20.    10.2210  6.949E+06
        20.    10.3780  5.581E+06
        20.    10.5500  5.036E+06
        20.    10.6550  4.056E+06
        20.    10.8090  3.912E+06
        20.    10.8460  2.906E+06
        20.    10.9860  1.531E+06
        20.    11.0890  1.163E+06
        20.    11.2430  8.150E+05
        50.     1.1526  3.364E+06
        50.     1.1627  2.420E+07
        50.     1.1692  1.575E+07
        50.     1.1742  2.008E+07
        50.     1.1847  2.854E+07
        50.     1.1905  2.648E+07
        50.     1.1905  8.124E+06
        50.     1.1920  3.205E+07
        50.     1.1943  1.287E+07
        50.     1.1977  2.999E+07
        50.     1.2935  3.230E+07
        50.     1.3206  3.479E+07
        50.     1.4187  3.627E+07
        50.     1.4311  3.793E+07
        50.     1.5116  3.961E+07
        50.     1.5223  4.188E+07
        50.     1.5915  4.150E+07
        50.     1.6743  4.236E+07
        50.     1.7213  4.382E+07
        50.     1.8223  4.427E+07
        50.     1.8609  4.264E+07
        50.     1.9249  4.411E+07
        50.     1.9635  4.248E+07
        50.     2.0310  4.271E+07
        50.     2.0821  4.273E+07
        50.     2.1541  4.132E+07
        50.     2.2029  4.216E+07
        50.     2.2919  4.075E+07
        50.     2.3124  3.952E+07
        50.     2.4026  3.770E+07
        50.     2.4701  3.794E+07
        50.     2.5257  3.631E+07
        50.     2.6148  3.490E+07
        50.     2.7215  3.330E+07
        50.     2.8071  3.312E+07
        50.     2.8645  3.088E+07
        50.     2.9144  3.131E+07
        50.     2.9558  2.865E+07
        50.     3.0034  2.990E+07
        50.     3.0585  2.848E+07
        50.     3.1135  2.706E+07
        50.     3.2519  2.629E+07
        50.     3.3563  2.551E+07
        50.     3.3949  2.388E+07
        50.     3.4829  2.288E+07
        50.     3.5849  2.292E+07
        50.     3.6394  2.171E+07
        50.     3.6951  2.008E+07
        50.     3.8222  1.724E+07
        50.     3.8897  1.748E+07
        50.     4.0087  1.753E+07
        50.     4.1489  1.614E+07
        50.     4.2034  1.492E+07
        50.     4.3089  1.373E+07
        50.     4.3634  1.251E+07
        50.     4.4842  1.194E+07
        50.     4.6203  1.200E+07
        50.     4.6532  1.243E+07
        50.     4.7910  1.186E+07
        50.     4.8437  1.127E+07
        50.     4.9617  1.173E+07
        50.     5.0315  1.113E+07
        50.     5.1710  9.954E+06
        50.     5.2436  8.334E+06
        50.     5.3304  7.750E+06
        50.     5.3991  7.572E+06
        50.     5.4853  7.195E+06
        50.     5.5369  7.010E+06
        50.     5.6032  7.655E+06
        50.     5.7076  6.873E+06
        50.     5.8267  6.922E+06
        50.     5.9118  6.956E+06
        50.     5.9815  6.366E+06
        50.     6.1176  6.422E+06
        50.     6.2191  6.669E+06
        50.     6.3206  6.917E+06
        50.     6.4738  6.979E+06
        50.     6.6269  7.042E+06
        50.     6.7313  6.259E+06
        50.     6.9037  5.505E+06
        50.     7.0574  5.361E+06
        50.     7.1600  5.197E+06
        50.     7.2797  5.039E+06
        50.     7.4527  4.079E+06
        50.     7.6909  4.176E+06
        50.     7.8792  3.840E+06
        50.     8.0839  3.717E+06
        50.     8.2728  3.176E+06
        50.     8.4265  3.032E+06
        50.     8.5978  2.689E+06
        50.     8.8042  1.949E+06
        50.     8.9579  1.805E+06
        50.     9.0940  1.861E+06
        50.     9.2466  2.129E+06
        50.     9.3844  1.566E+06
        50.     9.5545  1.636E+06
        50.     9.6912  1.485E+06
        50.     9.8443  1.548E+06
        50.    10.0500  1.013E+06
        50.    10.1700  8.560E+05
        50.    10.3250  3.000E+05
ENDDATA            406
ENDSUBENT          424
SUBENT        F1208005   20131217   20140701   20140626       F053
BIB                  5          7
REACTION   (4-BE-9(D,X)0-NN-1,PAR,PY/DA,,TT/CH)
EN-SEC     (E-MIN,N) Data for En > 0.84 are given.
DETECTOR   The neutron detectors were positioned 6.2 cm from the
           Be-9 target centered in the BONCO at various scattering
           angles.
SAMPLE     Be-9 target of 65.5 mg/cm2 thickness was  used.
STATUS     (TABLE) Tbl.1
ENDBIB               7
COMMON               1          3
E-MIN
MEV
  0.84
ENDCOMMON            3
DATA                 3          9
ANG        EN         DATA
ADEG       MEV        PRD/MUC/SR
         0.         6.   2.44E+09
         0.         7.   4.36E+09
         0.         8.   5.56E+09
        10.         8.   4.90E+09
        20.         7.   2.55E+09
        20.         8.   3.40E+09
        30.         8.   2.35E+09
        40.         8.   1.91E+09
        50.         7.   1.35E+09
ENDDATA             11
ENDSUBENT           27
ENDENTRY             5
