ENTRY            F0150   20130222   20130502   20130411       F049
SUBENT        F0150001   20130222   20130502   20130411       F049
BIB                  9         19
TITLE      Observation of the near-threshold anomaly in collisions
           of protons with Be nuclei at the energy 2.06 MeV
AUTHOR     (V.S.Siksin,A.I.Baz,V.N.Domoratsky,A.N.Voronin,
           V.S.Marchenko,G.E.Kosinsky,A.N.Kudryavtsev,
           G.D.Batyshchev)
INSTITUTE  (4RUSRGU)
REFERENCE  (J,YF,7,950,1968)
           (J,SNP,7,571,1968) English translation
FACILITY   (VDG,4RUSRGU)
SAMPLE     Thin beryllium foil thick 140 keV*cm**2/mg
           at Ep=2.05 MeV.
DETECTOR   (SOLST,SI) two silicon semiconductor detectors.
ERR-ANALYS (EN-ERR-DIG) Energy digitizing error
           (DATA-ERR) Error from graphic bars and digitizing
HISTORY    (19840803C)
           (19990409A) CNPD: corrected 4-dig. year
           (20130221A) English translation in REFERENCE was
           added. In sub 001 ERR-ANALYS, COMMON were added. In
           sub 002 ERR-ANALYS, COMMON were deleted.
ENDBIB              19
COMMON               1          3
EN-ERR-DIG
MEV
     0.0003
ENDCOMMON            3
ENDSUBENT           26
SUBENT        F0150002   20130222   20130502   20130411       F049
BIB                  2          2
REACTION   (4-BE-9(P,EL)4-BE-9,,DA)
STATUS     (CURVE)
ENDBIB               2
NOCOMMON             0          0
DATA                 4         71
ANG        EN         DATA-CM    DATA-ERR
ADEG       MEV        MB/SR      MB/SR
        45.      1.988       463.      10.11
        45.      1.991      427.6      7.587
        45.      2.001       453.      17.69
        45.      2.004       453.      7.587
        45.      2.008      425.3      70.77
        45.      2.012      513.7      7.583
        45.      2.013      463.2      10.11
        45.      2.018      549.2      40.45
        45.      2.022      470.9      7.578
        45.      2.026      498.7      93.52
        45.      2.028      377.4      12.64
        45.       2.03      417.9      48.03
        45.      2.033      286.4      42.97
        45.      2.035       241.      10.11
        45.      2.037      119.7      10.11
        45.      2.041      109.6      17.69
        45.      2.043      392.7       73.3
        45.      2.044      458.4      12.64
        45.      2.045      476.1      40.45
        45.      2.046      521.6      42.97
        45.      2.048      544.4      10.11
        45.      2.049      498.9      63.19
        45.       2.05       375.      7.583
        45.      2.051      215.8      7.587
        45.      2.053      233.5      12.64
        45.      2.054      215.8      7.583
        45.      2.055      233.5      7.583
        45.      2.056      256.3      12.64
        45.      2.057      314.4      17.69
        45.      2.059      476.2      37.92
        45.      2.061      46.55      7.587
        45.      2.062      208.3       27.8
        45.      2.063      190.6      10.11
        45.      2.066      577.4      10.11
        45.      2.067      597.6      53.08
        45.      2.068      478.8      12.64
        45.      2.069      471.3      12.64
        45.      2.071      458.6       45.5
        45.      2.072      380.3      20.23
        45.      2.074      309.5      27.81
        60.      2.029      124.3      14.96
        60.      2.032      140.5      14.96
        60.      2.034      76.49      8.976
        60.      2.037      83.08      3.591
        60.      2.039      33.43      2.393
        60.      2.042       44.8       3.59
        60.      2.045      85.49      18.55
        60.      2.047      147.7      6.581
        60.      2.048      127.4      22.74
        60.       2.05      151.9      9.574
        60.      2.052      126.2      2.991
        60.      2.053      69.95      2.991
        60.      2.054      78.93      5.386
        60.      2.055      68.16      5.386
        60.      2.057      76.54      2.991
        60.      2.058      78.33      2.392
        60.      2.059      84.32      8.376
        60.      2.061      20.31      1.795
        60.      2.061      127.4      11.37
        60.      2.062      34.67      11.97
        60.      2.064      60.99      2.991
        60.      2.066      65.19      2.394
        60.      2.067      149.6      17.95
        60.      2.068      124.4      16.75
        60.      2.069      116.7      13.16
        60.      2.071       143.      10.77
        60.      2.072       131.      16.75
        60.      2.073      119.7      23.93
        60.      2.075      96.32      8.974
        60.      2.077      81.36     0.3338
        60.      2.078      81.36      17.95
ENDDATA             73
ENDSUBENT           80
ENDENTRY             2
