ENTRY            F0192   19990409   19990427
SUBENT        F0192001   19990409   19990427
BIB                  6          8
TITLE      Levels of 10B from the 9Be(p,alpha2+gamma)6Li and
           9Be(p,p)9Be reactions at E(p)=2.56 MeV
AUTHOR     (A.KISS,E.KOLTAY,GY.SZABO,L.VEGH)
INSTITUTE  (3HUNDEB)
REFERENCE  (J,NP/A,282,44,197705)
FACILITY   (VDG)
HISTORY    (19841026C)
           (19990409A) CNPD: corrected 4-dig. year
ENDBIB               8
NOCOMMON
ENDSUBENT           11
SUBENT        F0192002   19990409   19990427
BIB                  7         11
REACTION   (4-BE-9(P,A)3-LI-6,PAR,DA,,REL/LEG,EXP)
SAMPLE     A 10 mu-g/cm**2 thick beryllium target was made by
           evaporating metallic Be onto a Ta backing
DETECTOR   (GELI) Coaxial 100 cm3 Ge(Li) detector
METHOD     Was proposed by Tryti et al (J,NP/A,201,135,1973) and
            (J,NP/A,251,206,1975)
ERR-ANALYS (EN-ERR) Digitizing error
           (DATA-ERR) From graphic bars (statistical)
           and digitizing
STATUS     (CURVE) fig 3
EN-SEC     (E-LVL,3-LI-6)
ENDBIB              11
COMMON               2          3
E-LVL      EN-ERR
MEV        MEV
  3.562     0.001
ENDCOMMON            3
DATA                 4        102
EN         NUMBER-CM  DATA-CM    DATA-ERR
MEV        NO-DIM     ARB-UNITS  ARB-UNITS
     2.497      0.         3.815      0.4878
     2.499      1.         0.9606     0.0945
     2.501      2.        -0.8183     0.1556
     2.501      3.         0.9439     0.4686
     2.501      4.        -1.442      0.2723
     2.501      5.        -0.2957     0.4542
     2.511      0.         5.791      0.4878
     2.513      1.         0.9856     0.3133
     2.513      3.         1.123      0.3124
     2.513      5.        -0.2673     0.4507
     2.514      2.        -1.687      0.1556
     2.516      4.        -1.679      0.2723
     2.521      0.         8.973      0.4878
     2.522      3.         1.14       0.4686
     2.523      1.         0.8485     0.3133
     2.524      5.        -0.6966     0.3064
     2.525      2.        -3.188      0.1556
     2.525      4.        -2.877      0.2723
     2.53       0.        11.52       0.4878
     2.532      1.         1.179      0.3133
     2.532      2.        -4.082      0.1556
     2.532      3.         1.157      0.781
     2.532      5.        -0.0732     0.4542
     2.535      4.        -4.075      0.9356
     2.538      1.         1.816      0.6295
     2.539      0.        20.86       0.4878
     2.539      3.         1.015      0.781
     2.54       2.        -7.783      0.1556
     2.54       5.        -0.5097     0.6092
     2.543      4.        -6.84       0.2723
     2.546      0.        28.33       0.4878
     2.546      1.         2.927      0.7833
     2.547      2.       -11.18       0.1556
     2.547      3.         0.2484     0.7782
     2.548      4.        -8.687      0.2723
     2.548      5.        -0.7947     0.6056
     2.552      2.       -15.83       0.1556
     2.553      0.        41.36       0.4878
     2.553      1.         5.604      0.9428
     2.553      3.        -0.5212     0.9372
     2.553      5.        -0.7841     0.7606
     2.555      4.       -12.4        0.2723
     2.559      2.       -19.85       0.9356
     2.56       1.         8.595      0.94
     2.561      0.        54.4        0.4878
     2.561      3.        -2.225      1.25
     2.562      4.       -14.86       0.9356
     2.562      5.        -1.217      0.9085
     2.567      1.        11.11       0.7833
     2.567      2.       -22.93       0.9356
     2.568      3.        -4.869      1.25
     2.568      4.       -17.01       0.9439
     2.569      0.        58.79       0.4878
     2.569      5.        -1.808      0.9084
     2.573      2.       -19.78       0.6237
     2.573      5.        -1.495      0.7606
     2.574      3.        -5.326      1.25
     2.575      0.        54.52       0.4878
     2.575      1.        11.13       1.097
     2.576      4.       -15.1        1.247
     2.58       2.       -14.44       0.9356
     2.581      1.        10.51       0.7833
     2.582      0.        44.71       0.4878
     2.582      3.        -5.312      0.9372
     2.582      5.        -2.234      0.9085
     2.583      4.       -11.31       0.2723
     2.589      0.        29.96       0.4878
     2.591      1.         8.494      0.6267
     2.591      2.        -9.378      0.1556
     2.591      3.        -4.514      1.096
     2.591      5.        -1.304      0.7606
     2.592      4.        -8.143      0.2723
     2.598      0.        20.79       0.4878
     2.6        3.        -4.028      0.9401
     2.602      1.         6.477      0.6295
     2.602      5.        -0.9768     0.6092
     2.603      2.        -5.881      0.1556
     2.604      4.        -5.269      0.2723
     2.609      0.        15.95       0.4878
     2.611      1.         5.24       0.7861
     2.613      5.        -0.6491     0.4542
     2.614      2.        -3.951      0.1556
     2.614      3.        -3.066      0.7782
     2.614      4.        -3.972      0.2723
     2.619      0.        12.95       0.4878
     2.621      3.        -3.051      0.7839
     2.622      1.         4.319      0.6267
     2.622      5.        -0.6278     0.3028
     2.623      2.        -3.277      0.1556
     2.626      4.        -2.97       0.2723
     2.628      0.        10.57       0.4878
     2.631      1.         3.866      0.4728
     2.633      2.        -2.283      0.1556
     2.633      5.        -0.6029     0.6056
     2.634      3.        -2.56       0.7839
     2.637      4.        -1.977      0.2723
     2.64       0.         8.827      0.4878
     2.644      1.         3.105      0.4728
     2.645      2.        -1.281      0.1556
     2.646      3.        -2.381      0.6248
     2.646      5.        -0.5745     0.6056
     2.648      4.        -1.607      0.2723
ENDDATA            104
ENDSUBENT          124
SUBENT        F0192003   19990409   19990427
BIB                  5          8
REACTION   (4-BE-9(P,EL)4-BE-9,,DA,,,EXP)
SAMPLE     The target was prepared by evaporating natural Be (1kev
           thick at 2.5 MeV) onto a carbon backing of 29 mu-g/cm2
           thickness.
DETECTOR   (SOLST) Four surface-barrier detectors.
ERR-ANALYS (EN-ERR) Digitizing error
           (DATA-ERR) Digitizing error
STATUS     (CURVE) fig 4
ENDBIB               8
COMMON               1          3
EN-ERR
MEV
 0.003
ENDCOMMON            3
DATA                 4        248
EN         ANG        DATA       DATA-ERR
MEV        ADEG       MB/SR      MB/SR
     2.31     145.        81.26       0.8328
     2.311    135.        70.35       0.9644
     2.313    120.        70.34       0.8431
     2.315     83.        96.88       0.6738
     2.322    145.        79.73       0.8328
     2.323    135.        67.26       0.9644
     2.325    120.        65.68       0.8431
     2.327     83.        95.33       0.6738
     2.331    145.        81.31       0.8328
     2.333    135.        68.85       0.9644
     2.336     83.        92.21       0.6738
     2.338    145.        81.32       0.8328
     2.341    145.        79.77       0.8328
     2.342    135.        70.44       0.9644
     2.344    120.        68.85       0.8431
     2.345     83.        93.78       0.6738
     2.35     145.        82.91       0.8328
     2.354    135.        72.04       0.9644
     2.355     83.        92.23       0.6738
     2.359    120.        73.57       0.8431
     2.359    145.        84.49       0.8328
     2.364     83.        92.24       0.6738
     2.364    135.        72.07       0.9644
     2.37     135.        76.78       0.9644
     2.372    120.        70.47       0.8431
     2.372    145.        86.08       0.8328
     2.378    120.        73.61       0.8431
     2.378    145.        89.22       0.8328
     2.379     83.        89.12       0.6738
     2.379    135.        76.8        0.9644
     2.384    120.        68.93       0.8431
     2.387    145.        86.11       0.8328
     2.388    135.        73.71       0.9644
     2.392     83.        84.45       0.6738
     2.396    145.        89.26       0.8328
     2.4      120.        73.65       0.8431
     2.401     83.        86.02       0.6738
     2.401    135.        79.99       0.9644
     2.409    120.        75.24       0.8431
     2.409    145.        92.41       0.8328
     2.41     135.        83.15       0.9644
     2.411     83.        84.46       0.6738
     2.418    120.        75.26       0.8431
     2.418    145.        97.11       0.8328
     2.419    135.        84.74       0.9644
     2.421    120.        76.83       0.8431
     2.425    135.        86.32       0.9644
     2.426     83.        84.47       0.6738
     2.427    145.        97.13       0.8328
     2.43     145.        98.7        0.8328
     2.431    120.        78.41       0.8431
     2.431    135.        86.33       0.9644
     2.431    135.        89.46       0.9644
     2.434    120.        81.54       0.8431
     2.435     83.        84.48       0.6738
     2.435     83.        87.61       0.6738
     2.436    145.       101.8        0.8328
     2.44     120.        79.99       0.8431
     2.44     145.       105.         0.8328
     2.441    135.        89.49       0.9644
     2.443    120.        81.56       0.8431
     2.444     83.        82.93       0.6738
     2.446    145.       103.4        0.8328
     2.447    135.        92.63       0.9644
     2.449    120.        84.7        0.8431
     2.449    145.       106.6        0.8328
     2.45     135.        95.76       0.9644
     2.452    120.        84.7        0.8431
     2.453    135.        97.34       0.9644
     2.454     83.        84.5        0.6738
     2.454     83.        81.37       0.6738
     2.455    145.       109.7        0.8328
     2.455    145.       114.4        0.8328
     2.458    120.        86.28       0.8431
     2.459    135.        98.92       0.9644
     2.46      83.        82.94       0.6738
     2.461    120.        87.85       0.8431
     2.462    135.       100.5        0.9644
     2.464    145.       117.5        0.8328
     2.466     83.        81.38       0.6738
     2.467    145.       117.5        0.8328
     2.468    120.        89.43       0.8431
     2.468    135.       105.2        0.9644
     2.471    135.       106.8        0.9644
     2.472     83.        84.51       0.6738
     2.473    145.       122.2        0.8328
     2.474    120.        92.56       0.8431
     2.478    135.       111.5        0.9644
     2.48     120.        95.7        0.8431
     2.482     83.        81.4        0.6738
     2.483    120.        95.71       0.8431
     2.483    145.       123.8        0.8328
     2.486    120.        97.28       0.8431
     2.486    145.       126.9        0.8328
     2.487    135.       113.1        0.9644
     2.488     83.        79.84       0.6738
     2.49     135.       120.9        0.9644
     2.491     83.        82.97       0.6738
     2.492    120.       102.         0.8431
     2.492    145.       139.4        0.8328
     2.496    135.       119.3        0.9644
     2.497     83.        81.41       0.6738
     2.498    120.       103.6        0.8431
     2.498    145.       137.9        0.8328
     2.5       83.        78.29       0.6738
     2.502    135.       122.5        0.9644
     2.504    145.       137.9        0.8328
     2.505    120.       106.7        0.8431
     2.505    135.       127.2        0.9644
     2.506     83.        84.54       0.6738
     2.508    120.       109.8        0.8431
     2.508    135.       130.3        0.9644
     2.51      83.        82.98       0.6738
     2.51     145.       144.2        0.8328
     2.513    145.       150.4        0.8328
     2.514    120.       113.         0.8431
     2.516     83.        84.55       0.6738
     2.517    120.       114.5        0.8431
     2.518    135.       131.9        0.9644
     2.52     145.       148.9        0.8328
     2.521    135.       135.         0.9644
     2.522     83.        86.12       0.6738
     2.523    120.       119.2        0.8431
     2.523    145.       156.7        0.8328
     2.524    135.       138.2        0.9644
     2.528     83.        83.         0.6738
     2.529    120.       116.1        0.8431
     2.529    145.       150.5        0.8328
     2.531     83.        83.         0.6738
     2.532    120.       122.4        0.8431
     2.535    145.       156.7        0.8328
     2.536    135.       141.3        0.9644
     2.537     83.        86.13       0.6738
     2.539    120.       122.4        0.8431
     2.539    135.       139.8        0.9644
     2.541    145.       158.3        0.8328
     2.542    120.       124.         0.8431
     2.544     83.        89.26       0.6738
     2.545    120.       120.8        0.8431
     2.547    145.       156.8        0.8328
     2.549    135.       138.3        0.9644
     2.55     145.       155.2        0.8328
     2.551    120.       120.8        0.8431
     2.551    145.       152.1        0.8328
     2.552    135.       135.1        0.9644
     2.553     83.        92.39       0.6738
     2.556     83.        89.27       0.6738
     2.557    120.       117.7        0.8431
     2.557    145.       144.3        0.8328
     2.558    135.       133.6        0.9644
     2.558    135.       127.3        0.9644
     2.56     120.       111.5        0.8431
     2.562     83.        95.52       0.6738
     2.563    145.       138.         0.8328
     2.564    135.       121.1        0.9644
     2.565     83.        97.09       0.6738
     2.566    120.       106.8        0.8431
     2.566    145.       131.8        0.8328
     2.568    135.       111.7        0.9644
     2.569    145.       119.3        0.8328
     2.571     83.        95.53       0.6738
     2.573    120.       102.2        0.8431
     2.573    145.       108.4        0.8328
     2.574    135.       103.9        0.9644
     2.576    120.        92.78       0.8431
     2.576    145.       102.1        0.8328
     2.577    135.        97.71       0.9644
     2.578     83.       100.2        0.6738
     2.582    120.        94.36       0.8431
     2.582    145.        95.89       0.8328
     2.583    135.        91.48       0.9644
     2.584     83.        97.1        0.6738
     2.588    120.        97.5        0.8431
     2.588    145.       102.2        0.8328
     2.589    135.        94.62       0.9644
     2.592    135.        91.5        0.9644
     2.593     83.       101.8        0.6738
     2.594    145.        92.79       0.8328
     2.595    120.        95.95       0.8431
     2.596     83.        97.11       0.6738
     2.598    120.        97.52       0.8431
     2.599    135.        88.4        0.9644
     2.601    145.        88.12       0.8328
     2.602     83.        98.68       0.6738
     2.604    120.        92.84       0.8431
     2.605    135.        86.86       0.9644
     2.607    120.        92.85       0.8431
     2.607    145.        88.13       0.8328
     2.607    145.        83.44       0.8328
     2.608    135.        86.86       0.9644
     2.612     83.       100.3        0.6738
     2.613    120.        91.3        0.8431
     2.614    135.        80.63       0.9644
     2.616    120.        89.75       0.8431
     2.616    145.        81.9        0.8328
     2.621    135.        79.09       0.9644
     2.622    145.        78.79       0.8328
     2.624     83.        98.7        0.6738
     2.624    135.        77.54       0.9644
     2.625    145.        75.67       0.8328
     2.627     83.        95.58       0.6738
     2.629    120.        86.65       0.8431
     2.63     135.        74.43       0.9644
     2.632    120.        85.09       0.8431
     2.632    145.        74.12       0.8328
     2.633     83.       100.3        0.6738
     2.636     83.        97.15       0.6738
     2.636    135.        74.45       0.9644
     2.638    120.        83.54       0.8431
     2.638    145.        74.14       0.8328
     2.639    135.        71.33       0.9644
     2.641    145.        72.58       0.8328
     2.643     83.       101.8        0.6738
     2.644    120.        80.43       0.8431
     2.644    120.        81.99       0.8431
     2.645    135.        71.35       0.9644
     2.646     83.        97.15       0.6738
     2.647    145.        71.03       0.8328
     2.65     145.        69.47       0.8328
     2.652     83.       100.3        0.6738
     2.652    135.        66.68       0.9644
     2.653    120.        82.01       0.8431
     2.653    145.        64.79       0.8328
     2.657    120.        80.46       0.8431
     2.658     83.       100.3        0.6738
     2.658    135.        66.7        0.9644
     2.66     145.        64.81       0.8328
     2.661     83.        97.17       0.6738
     2.664    135.        68.28       0.9644
     2.666    120.        78.91       0.8431
     2.666    145.        63.26       0.8328
     2.667     83.       100.3        0.6738
     2.667    135.        65.17       0.9644
     2.671     83.        97.18       0.6738
     2.672    145.        63.27       0.8328
     2.673    135.        62.06       0.9644
     2.678    120.        78.94       0.8431
     2.678    145.        61.72       0.8328
     2.68     135.        63.64       0.9644
     2.683     83.        97.18       0.6738
     2.688    120.        77.4        0.8431
     2.688    145.        58.62       0.8328
     2.689     83.       100.3        0.6738
     2.691    120.        77.4        0.8431
     2.692    135.        62.12       0.9644
     2.695     83.       100.3        0.6738
     2.697    145.        57.07       0.8328
     2.701    135.        60.58       0.9644
ENDDATA            250
ENDSUBENT          267
ENDENTRY             3
