ENTRY            30276   20081203   20090416   20090416       3132
SUBENT        30276001   20081203   20090416   20090416       3132
BIB                 12         31
INSTITUTE  (2GERZFK,4LATIFL)
REFERENCE  (T,MOHSEN,1973) Full paper, data tables
           (R,ZFK-260,1973) Only for W-184,W-186. Full paper, data
AUTHOR     (H.Prade,W.Andrejtscheff,P.Manfrass,M.Mohsen,W.Seidel)
           (M.Beitins,L.Simonova) from Physics Inst. Riga,USSR.
TITLE      Capture gamma-ray spectra from the reactions
           W-184(n,g)W-185, W-186(n,g)W-187, Er-170(n,g)Er-171
EXP-YEAR   (1972)
FACILITY   (REAC,2GERZFK) Research reactor at Rossendorf
INC-SPECT  Thermal neutron beam
DETECTOR   (GELI)
           .A 18 cm3 Ge(Li) detector with a resolution of 2.0 keV
            at 200 keV was used in the energy range 50 keV to 1500
            keV.
           .A 27 cm3 Ge(Li) detector with a resolution of 5.5 keV
            at 5 MeV was used for the higher energies.
           .In addition, a high resolution planar Ge(Li) detector
            (0.4 cm3, resolution = 0.5 keV at 100 keV) was used in
            the energy range 40 keV to 300 keV
                Except for the planar detector, a 0.5 cm thick
            Li6-F shield was used against scattered neutrons.
PART-DET   (G) Thermal capture gamma-rays.
STATUS     (APRVD) Approved by author (30 January 1975)
HISTORY    (19741024C) CA.
           (19750403A) CA.  -Status 'Aprvd' added.
                          -BIB-changes under detector in subents
                            2 and 4.
           (20080423A) BIB section updated
ERR-ANALYS The uncertainty on the relative intensities are from 10
           to 15% for strong transitions and up to 100% for weak
           transitions.
ENDBIB              31
COMMON               1          3
EN-DUMMY
EV
 2.5300E-02
ENDCOMMON            3
ENDSUBENT           38
SUBENT        30276002   20081203   20090416   20090416       3132
BIB                  6         13
REFERENCE  (P,ZFK-243,89,197209) Level scheme, no data
REACTION   (74-W-184(N,G)74-W-185,,SPC,,MXW/REL)
            Low energy gamma-ray spectrum,
           relative intensities.
SAMPLE     5.5 g/cm2 enriched (90.3%) W-184 in metallic powder
METHOD     In order to establish a clear ordering of the observed
           gamma-rays, the capture spectra for W-184, W-186 and
           W-natural were measured under the same experimental
           conditions.
MONITOR    Energy calibration was performed using the standard
           calibration lines of the Co-60, Cs-137, Gd-153 and
           ra-226 decays.
STATUS     (TABLE) Data taken from ZFK-260, Table 5.
ENDBIB              13
NOCOMMON             0          0
DATA                 3         67
E          E-ERR      DATA
KEV        KEV        ARB-UNITS
 1.0780E+02 9.0000E-01 1.9000E+00
 1.1040E+02 5.0000E-01 4.0000E+00
 1.4780E+02 9.0000E-01 1.3000E+00
 1.5100E+02 7.0000E-01 1.5000E+00
 1.6490E+02 9.0000E-01 1.7000E+00
 1.7350E+02 5.0000E-01 1.3300E+01
 1.7700E+02 1.0000E+00 2.0200E+01
 1.8840E+02 8.0000E-01 4.0000E+00
 2.2120E+02 9.0000E-01 1.9000E+00
 2.3950E+02 9.0000E-01 2.0000E+00
 2.4400E+02 1.0000E+00 1.0000E+00
 2.4800E+02 1.0000E+00 1.0000E+00
 2.6560E+02 3.0000E-01 1.1000E+01
 2.7280E+02 3.0000E-01 1.3700E+01
 2.9400E+02 8.0000E-01 2.0000E+00
 3.1200E+02 8.0000E-01 1.5000E+00
 3.1600E+02 8.0000E-01 2.0000E+00
 4.1690E+02 5.0000E-01 1.8100E+01
 4.1840E+02 4.0000E-01 2.3700E+01
 4.5070E+02 3.0000E-01 3.1300E+01
 4.6380E+02 3.0000E-01 8.0000E+00
 4.8260E+02 1.3000E+00 4.2000E+00
 5.1730E+02 1.3000E+00 2.4000E+01
 5.7010E+02 3.0000E-01 4.4700E+01
 5.8050E+02 3.0000E-01 3.1000E+01
 6.3660E+02 4.0000E-01 6.4400E+01
 6.4010E+02 4.0000E-01 8.0200E+01
 6.6420E+02 4.0000E-01 1.0000E+02
 6.7520E+02 4.0000E-01 2.8400E+01
 7.1540E+02 5.0000E-01 1.1500E+01
 7.3400E+02 4.0000E-01 2.4600E+01
 7.4470E+02 4.0000E-01 4.4500E+01
 7.5750E+02 4.0000E-01 7.0600E+01
 7.6830E+02 4.0000E-01 2.2700E+01
 7.8810E+02 3.0000E-01 3.5000E+01
 8.0400E+02 3.0000E-01 2.3100E+01
 8.2250E+02 3.0000E-01 1.0010E+02
 8.4000E+02 5.0000E-01 2.0000E+01
 8.8880E+02 4.0000E-01 3.7800E+01
 8.9460E+02 4.0000E-01 5.2900E+01
 9.0330E+02 4.0000E-01 6.3800E+01
 9.1260E+02 4.0000E-01 1.1200E+02
 9.4430E+02 5.0000E-01 3.1000E+01
 9.4910E+02 7.0000E-01 1.1500E+01
 9.7570E+02 6.0000E-01 2.3900E+01
 9.9300E+02 6.0000E-01 1.0000E+01
 1.0074E+03 6.0000E-01 3.2700E+01
 1.0278E+03 6.0000E-01 4.0000E+01
 1.0319E+03 6.0000E-01 4.5000E+01
 1.0480E+03 1.0000E+00 1.0000E+01
 1.0750E+03 1.0000E+00 1.0000E+01
 1.0980E+03 1.0000E+00 1.0000E+01
 1.1040E+03 1.0000E+00 1.0000E+01
 1.1100E+03 1.0000E+00 1.0000E+01
 1.1226E+03 5.0000E-01 3.4000E+01
 1.1264E+03 5.0000E-01 6.8200E+01
 1.1533E+03 5.0000E-01 1.5500E+01
 1.1584E+03 4.0000E-01 3.7100E+01
 1.1651E+03 3.0000E-01 8.0000E+01
 1.1737E+03 3.0000E-01 3.1400E+01
 1.1816E+03 3.0000E-01 1.1700E+02
 1.1957E+03 3.0000E-01 4.6100E+01
 1.3304E+03 1.9000E+00 4.3000E+01
 1.3456E+03 2.0000E+00 3.0000E+01
 1.4080E+03 2.0000E+00 3.7600E+01
 1.4520E+03 2.0000E+00 3.7000E+01
 1.4583E+03 2.0000E+00 3.5000E+01
ENDDATA             69
ENDSUBENT           87
SUBENT        30276003   20081203   20090416   20090416       3132
BIB                  7         15
REFERENCE  (P,ZFK-243,89,197209) Level scheme, no data
REACTION   (74-W-184(N,G)74-W-185,,SPC,,MXW/REL)
            High energy gamma-ray spectrum,
           relative intensities.
SAMPLE     5.5 g/cm2 enriched (90.3 %) W-184 in metallic powder
METHOD     In order to establish a clear ordering of the observed
           gamma-rays, the capture spectra for W-184, W-186 and
           W-natural were measured under the same experimental
           conditions.
DETECTOR   The energy calibration was performed using the intense
           lines from the high energy gamma-ray spectrum from the
           W-186(n,g)W-187 reaction.
COMMENT    The level-energies were calculated using
                           E(b) = 5754.1 keV
STATUS     (TABLE) Data taken from ZFK-260, Table 6.
ENDBIB              15
NOCOMMON             0          0
DATA                 4         20
E          E-ERR      E-LVL      DATA
KEV        KEV        KEV        ARB-UNITS
 3.8733E+03 1.0000E+00 1.8808E+03 1.1000E+01
 4.0975E+03 1.0000E+00 1.6566E+03 6.1000E+00
 4.1822E+03 1.0000E+00 1.5719E+03 9.5000E+00
 4.2187E+03 1.0000E+00 1.5354E+03 5.0000E+01
 4.3128E+03 1.0000E+00 1.4413E+03 4.3000E+01
 4.3953E+03 1.0000E+00 1.3588E+03 1.2200E+01
 4.4687E+03 1.0000E+00 1.2854E+03 3.3000E+01
 4.5085E+03 1.0000E+00 1.2456E+03 6.0000E+00
 4.5358E+03 5.0000E-01 1.2183E+03 1.1140E+02
 4.5736E+03 1.0000E+00 1.1805E+03 1.5300E+02
 4.6917E+03 6.0000E-01 1.0624E+03 1.1300E+01
 4.7463E+03 1.0000E+00 1.0078E+03 8.6000E+01
 4.9320E+03 5.0000E-01 8.2210E+02 4.3500E+01
 4.9805E+03 1.0000E+00 7.7360E+02 2.4400E+01
 4.9868E+03 1.0000E+00 7.6730E+02 2.7800E+01
 5.0253E+03 1.0000E+00 7.2880E+02 9.6000E+00
 5.0917E+03 5.0000E-01 6.6240E+02 1.0000E+02
 5.6590E+03 1.0000E+00 9.5100E+01 2.6000E+00
 5.7300E+03 1.0000E+00 2.4100E+01 5.2000E+00
 5.7541E+03 5.0000E-01 0.0000E+00 5.6500E+01
ENDDATA             22
ENDSUBENT           42
SUBENT        30276004   20081203   20090416   20090416       3132
BIB                  7         19
REFERENCE  (P,ZFK-223,63,197109) Progress report, no data
REACTION   (74-W-186(N,G)74-W-187,,SPC,,MXW/REL)
            Low energy gamma-ray spectrum,
           relative intensities.
SAMPLE     0.5 g/cm2 enriched (96.9%) W-186 in metallic powder
METHOD     In order to establish a clear ordering of the observed
           gamma-rays, the capture spectra for W-184, W-186 and
           W-natural were measured under the same experimental
           conditions.
MONITOR    Energy calibration was performed using the standard
           calibration lines of the Co-60, Cs-137, Gd-153 and
           Ra-226 decays.
COMMENT    1. The line at 59.2 keV superimposes with the K-alpha
              x-rays of tungsten, therefore no reliable intensity
              could be deduced.
           2. The spectrum of conversion electrons was measured
              and is also given in ZFK-260 as well as conversion
              factors and multipolarities of a few transitions.
STATUS     (TABLE) Data are from ZFK-260, Table 1.
ENDBIB              19
NOCOMMON             0          0
DATA                 3        112
E          E-ERR      DATA
KEV        KEV        ARB-UNITS
 4.7400E+01 2.0000E-01 2.0000E+00
 7.7400E+01 1.0000E-01 3.5000E+00
 8.9400E+01 3.0000E-01 1.3000E+00
 9.8600E+01 1.0000E-01 3.0000E-01
 1.0180E+02 1.0000E-01 2.2000E+00
 1.2430E+02 1.0000E-01 3.9000E+00
 1.2760E+02 1.0000E-01 1.1000E+01
 1.2910E+02 1.0000E-01 1.6000E+00
 1.4290E+02 1.0000E-01 1.3000E+00
 1.4580E+02 1.0000E-01 1.0000E+02
 1.4890E+02 1.0000E-01 4.7000E+00
 1.5740E+02 1.0000E-01 3.4000E+00
 1.7160E+02 1.0000E-01 1.2000E+00
 1.9270E+02 3.0000E-01 5.0000E-01
 1.9740E+02 2.0000E-01 3.9000E+00
 2.0140E+02 1.0000E-01 6.1300E+01
 2.0480E+02 1.0000E-01 2.7500E+01
 2.1900E+02 2.0000E-01 9.0000E-01
 2.2590E+02 1.0000E-01 1.5500E+01
 2.2750E+02 2.0000E-01 3.6000E+00
 2.3060E+02 5.0000E-01 8.0000E-01
 2.5340E+02 2.0000E-01 7.3000E+00
 2.5720E+02 3.0000E-01 2.3000E+00
 2.6410E+02 4.0000E-01 1.4000E+00
 2.7290E+02 1.0000E-01 7.1000E+01
 2.7640E+02 2.0000E-01 3.9000E+00
 2.8710E+02 2.0000E-01 2.3000E+00
 2.8990E+02 1.0000E-01 1.6500E+01
 2.9450E+02 3.0000E-01 1.6000E+00
 3.0320E+02 1.0000E-01 1.4600E+01
 3.3090E+02 2.0000E-01 3.5000E+00
 3.5480E+02 1.0000E-01 1.0500E+01
 3.7660E+02 1.0000E-01 1.3200E+01
 3.9030E+02 2.0000E-01 4.7000E+00
 4.2370E+02 1.0000E-01 1.3900E+01
 4.2820E+02 2.0000E-01 4.4000E+00
 4.6740E+02 1.3000E+00 5.9000E+00
 4.7380E+02 4.0000E-01 6.0000E+00
 4.8920E+02 4.0000E-01 2.0000E+00
 4.9500E+02 3.0000E-01 4.3000E+00
 4.9980E+02 1.0000E-01 1.6200E+01
 5.2790E+02 1.0000E-01 1.0200E+01
 5.3110E+02 1.0000E-01 1.6300E+01
 5.3320E+02 3.0000E-01 4.0000E+00
 5.4080E+02 2.0000E-01 5.3000E+00
 5.4730E+02 3.0000E-01 5.0000E+00
 5.5720E+02 1.0000E-01 3.8400E+01
 5.7730E+02 1.0000E-01 6.1000E+01
 5.8870E+02 2.0000E-01 6.7000E+00
 6.1160E+02 3.0000E-01 1.5600E+01
 6.1650E+02 3.0000E-01 2.6100E+01
 6.2880E+02 7.0000E-01 2.2000E+00
 6.3560E+02 3.0000E-01 5.7000E+00
 6.4090E+02 4.0000E-01 5.2000E+00
 6.4760E+02 4.0000E-01 6.7000E+00
 6.5630E+02 5.0000E-01 1.4700E+01
 6.5810E+02 5.0000E-01 2.4800E+01
 6.6160E+02 6.0000E-01 5.1000E+00
 6.7030E+02 2.0000E-01 1.3800E+01
 6.7690E+02 7.0000E-01 1.8000E+00
 6.9420E+02 1.0000E-01 1.4600E+01
 7.0660E+02 2.0000E-01 1.3900E+01
 7.2600E+02 2.0000E-01 5.8000E+00
 7.3870E+02 2.0000E-01 1.1900E+01
 7.4600E+02 1.0000E-01 1.8100E+01
 7.6280E+02 3.0000E-01 1.0400E+01
 7.8240E+02 1.0000E-01 3.7000E+01
 7.8870E+02 2.0000E-01 2.0000E+01
 8.0340E+02 2.0000E-01 7.8000E+00
 8.1360E+02 3.0000E-01 1.2900E+01
 8.1580E+02 3.0000E-01 2.9800E+01
 8.3220E+02 3.0000E-01 1.4000E+01
 8.4020E+02 1.0000E-01 4.4000E+01
 8.4880E+02 3.0000E-01 1.5300E+01
 8.5220E+02 2.0000E-01 1.0600E+01
 8.6140E+02 4.0000E-01 1.1200E+01
 8.6380E+02 5.0000E-01 1.0100E+01
 8.6680E+02 2.0000E-01 1.8700E+01
 8.7290E+02 2.0000E-01 1.0600E+01
 8.7780E+02 2.0000E-01 1.1700E+01
 8.8170E+02 2.0000E-01 1.3000E+01
 8.9160E+02 2.0000E-01 2.7600E+01
 9.0910E+02 1.0000E-01 2.6700E+01
 9.1400E+02 2.0000E-01 8.0000E+00
 9.3280E+02 1.0000E+00 4.1000E+00
 9.3660E+02 1.0000E+00 3.9000E+00
 9.4050E+02 1.0000E+00 3.9000E+00
 9.7960E+02 8.0000E-01 5.3000E+00
 9.8960E+02 2.0000E-01 1.1800E+01
 1.0031E+03 1.0000E+00 2.5000E+00
 1.0076E+03 1.0000E+00 6.0000E+00
 1.0123E+03 1.0000E+00 1.0100E+01
 1.0183E+03 1.0000E+00 8.0000E+00
 1.0271E+03 4.0000E-01 6.0000E+00
 1.0332E+03 1.0000E+00 2.3000E+00
 1.0413E+03 1.0000E+00 3.5000E+00
 1.0579E+03 2.0000E-01 8.4000E+00
 1.0674E+03 3.0000E-01 1.5800E+01
 1.0711E+03 2.0000E-01 1.8100E+01
 1.0823E+03 3.0000E-01 1.7300E+01
 1.0852E+03 1.0000E+00 3.8000E+00
 1.0939E+03 1.0000E+00 7.9000E+00
 1.1014E+03 1.0000E+00 8.3000E+00
 1.1066E+03 4.0000E-01 8.3000E+00
 1.1347E+03 2.0000E-01 9.5000E+00
 1.1394E+03 2.0000E-01 1.2000E+01
 1.1522E+03 1.0000E+00 2.3000E+00
 1.1703E+03 1.0000E+00 7.0000E+00
 1.2715E+03 2.0000E+00 5.2000E+00
 1.2983E+03 2.0000E+00 6.9000E+00
 1.3285E+03 5.0000E-01 1.0800E+01
 1.4144E+03 5.0000E-01 1.2200E+01
ENDDATA            114
ENDSUBENT          138
SUBENT        30276005   20081203   20090416   20090416       3132
BIB                  7         15
REFERENCE  (P,ZFK-223,63,197109) Progress report, no data
REACTION   (74-W-186(N,G)74-W-187,,SPC,,MXW/REL)
            High energy gamma-ray spectrum,
           relative intensities.
SAMPLE     0.5 g/cm2 enriched (96.9%) W-186 in metallic powder.
METHOD     In order to establish a clear ordering of the observed
           gamma-rays, the capture spectra for W-184, W-186 and
           W-natural were measured under the same experimental
           conditions.
DETECTOR   The energy calibration was performed using known back-
           ground transitions from (n,g) reactions on Al, Fe and H
           as well as a Cl-35(n,g)Cl-36 calibration spectrum.
COMMENT    The level-energies were calculated using
                           E(b) = 5466.7 keV
STATUS     (TABLE) Data are from ZFK-260, Table 2.
ENDBIB              15
NOCOMMON             0          0
DATA                 4         56
E          E-ERR      E-LVL      DATA
KEV        KEV        KEV        ARB-UNITS
 2.3672E+03 5.0000E-01 3.0995E+03 5.0000E+00
 2.4812E+03 5.0000E-01 2.9855E+03 5.0000E+00
 2.5843E+03 4.0000E-01 2.8824E+03 8.0000E+00
 2.7088E+03 6.0000E-01 2.7579E+03 6.0000E+00
 2.7276E+03 6.0000E-01 2.7391E+03 3.5000E+00
 2.7389E+03 6.0000E-01 2.7278E+03 4.2000E+00
 2.7597E+03 9.0000E-01 2.7070E+03 5.9000E+00
 2.8321E+03 3.0000E-01 2.6346E+03 1.1900E+01
 2.8498E+03 4.0000E-01 2.6169E+03 9.7000E+00
 3.0990E+03 8.0000E-01 2.3677E+03 5.9000E+00
 3.1148E+03 1.0000E+00 2.3519E+03 1.2000E+01
 3.1483E+03 8.0000E-01 2.3184E+03 1.9200E+01
 3.1540E+03 1.5000E+00 2.3127E+03 1.0100E+01
 3.1937E+03 1.0000E+00 2.2730E+03 8.7000E+00
 3.2071E+03 6.0000E-01 2.2596E+03 6.2000E+00
 3.2255E+03 5.0000E-01 2.2412E+03 1.1900E+01
 3.2669E+03 7.0000E-01 2.1998E+03 5.2000E+00
 3.3145E+03 6.0000E-01 2.1522E+03 8.4000E+00
 3.3762E+03 4.0000E-01 2.0905E+03 6.7000E+00
 3.4233E+03 5.0000E-01 2.0434E+03 3.9000E+00
 3.4433E+03 5.0000E-01 2.0234E+03 6.5000E+00
 3.4529E+03 1.4000E+00 2.0138E+03 9.1000E+00
 3.4694E+03 5.0000E-01 1.9973E+03 2.8500E+01
 3.4925E+03 5.0000E-01 1.9742E+03 1.5100E+01
 3.5105E+03 5.0000E-01 1.9562E+03 5.8000E+00
 3.5297E+03 4.0000E-01 1.9370E+03 1.1800E+01
 3.5343E+03 5.0000E-01 1.9324E+03 1.4000E+01
 3.5616E+03 4.0000E-01 1.9051E+03 1.8600E+01
 3.5772E+03 6.0000E-01 1.8895E+03 8.8000E+00
 3.7102E+03 6.0000E-01 1.7565E+03 5.6000E+00
 3.7393E+03 5.0000E-01 1.7244E+03 9.4000E+00
 3.7608E+03 9.0000E-01 1.7059E+03 5.4000E+00
 3.7748E+03 5.0000E-01 1.6919E+03 4.8000E+00
 3.8049E+03 8.0000E-01 1.6618E+03 3.4000E+00
 3.8487E+03 4.0000E-01 1.6180E+03 1.3500E+01
 3.9028E+03 1.1000E+00 1.5639E+03 7.8000E+00
 3.9205E+03 1.5000E+00 1.5462E+03 5.7000E+00
 3.9651E+03 5.0000E-01 1.5016E+03 7.2000E+00
 4.0182E+03 7.0000E-01 1.4485E+03 4.8000E+00
 4.0838E+03 6.0000E-01 1.3829E+03 8.5000E+00
 4.1188E+03 1.0000E+00 1.3479E+03 5.0000E+00
 4.1361E+03 5.0000E-01 1.3306E+03 5.6000E+00
 4.1584E+03 4.0000E-01 1.3083E+03 7.9000E+00
 4.2496E+03 3.0000E-01 1.2171E+03 3.0700E+01
 4.3319E+03 7.0000E-01 1.1348E+03 1.0800E+01
 4.3846E+03 8.0000E-01 1.0821E+03 1.4900E+01
 4.4476E+03 4.0000E-01 1.0191E+03 1.3600E+01
 4.4912E+03 5.0000E-01 9.7550E+02 6.0000E+00
 4.5576E+03 7.0000E-01 9.0910E+02 1.0700E+01
 4.5751E+03 4.0000E-01 8.9160E+02 2.5100E+01
 4.6271E+03 3.0000E-01 8.3960E+02 3.6100E+01
 4.6501E+03 5.0000E-01 8.1660E+02 1.1400E+01
 4.6848E+03 5.0000E-01 7.8190E+02 4.2000E+01
 5.2618E+03 3.0000E-01 2.0490E+02 1.4170E+02
 5.3209E+03 3.0000E-01 1.4580E+02 1.0000E+02
 5.4665E+03 5.0000E-01 0.0000E+00 3.7000E+00
ENDDATA             58
ENDSUBENT           78
SUBENT        30276006   20081203   20090416   20090416       3132
BIB                  6         14
REFERENCE  (P,ZFK-243,65,197209) Progress report, no data
REACTION   (68-ER-170(N,G)68-ER-171,,SPC,,MXW/REL)
            High energy gamma-ray spectrum,
           relative intensities
SAMPLE     3.5 g/cm2 enriched (97.9%) Er-170 in oxyde form
METHOD     In order to establish a clear ordering of the observed
           gamma-rays, the capture spectrum of a sample of natural
           erbium was measured in the same experimental conditions
COMMENT    1.The level-energies were calculated using
                           E(b) = 5681.0 keV
           2.The intensity of the 5482.3 keV line was not determi-
             ned.
STATUS     (TABLE) Data are taken from Table 2, Mohsen's thesis,
           Technical University, Dresden, 1973.
ENDBIB              14
NOCOMMON             0          0
DATA                 4         74
E          E-ERR      E-LVL      DATA
KEV        KEV        KEV        ARB-UNITS
 2.1046E+03 1.0000E+00            4.4300E+01
 2.4051E+03 7.0000E-01            9.7000E+00
 2.4205E+03 1.0000E+00            4.3000E+00
 2.4472E+03 9.0000E-01            7.8000E+00
 2.4660E+03 7.0000E-01            1.3100E+01
 2.5110E+03 7.0000E-01            9.2000E+00
 2.5246E+03 7.0000E-01            2.3200E+01
 2.5406E+03 9.0000E-01            5.2000E+00
 2.5631E+03 1.0000E+00            1.1000E+01
 2.5955E+03 7.0000E-01            8.5000E+00
 2.6283E+03 8.0000E-01            3.8000E+00
 2.6452E+03 8.0000E-01            7.7000E+00
 2.6514E+03 8.0000E-01            7.3000E+00
 2.7453E+03 8.0000E-01            5.4000E+00
 2.7611E+03 7.0000E-01            1.4600E+01
 2.7974E+03 7.0000E-01            6.8000E+00
 2.8172E+03 7.0000E-01            8.3000E+00
 2.8280E+03 8.0000E-01            2.6000E+00
 2.8388E+03 7.0000E-01            7.0000E+00
 2.8554E+03 6.0000E-01            1.6000E+01
 2.8721E+03 7.0000E-01            8.3000E+00
 2.8811E+03 2.0000E+00            4.7000E+00
 2.8877E+03 4.0000E+00            1.2100E+01
 2.8963E+03 7.0000E-01            1.1100E+01
 2.9143E+03 4.0000E+00            9.3000E+00
 2.9431E+03 4.0000E+00            5.2000E+00
 2.9548E+03 3.0000E+00            4.7900E+01
 3.0004E+03 4.0000E+00            1.5000E+01
 3.0165E+03 7.0000E+00            7.4000E+00
 3.0374E+03 2.2000E+00            3.0400E+01
 3.0623E+03 2.4000E+00            9.4000E+00
 3.0828E+03 1.8000E+00            1.9400E+01
 3.0876E+03 1.9000E+00            8.7000E+00
 3.1002E+03 1.6000E+00            1.6800E+01
 3.1111E+03 5.0000E-01            1.4700E+01
 3.1266E+03 1.5000E+00            1.0200E+01
 3.1351E+03 1.8000E+00            1.0100E+01
 3.1642E+03 1.3000E+00            1.9400E+01
 3.1884E+03 1.4000E+00            7.3000E+00
 3.2034E+03 1.1000E+00            1.1200E+01
 3.2151E+03 7.0000E-01            1.2400E+01
 3.2430E+03 3.2000E+00            1.0000E+01
 3.2819E+03 2.7000E+00            6.0000E+00
 3.3003E+03 1.2000E+00            9.6000E+00
 3.3396E+03 1.2000E+00            6.5000E+00
 3.3489E+03 8.0000E-01            1.3500E+01
 3.3989E+03 1.8000E+00            1.2200E+01
 3.4048E+03 1.4000E+00            1.8200E+01
 3.4425E+03 1.4000E+00            4.1000E+00
 3.4495E+03 1.4000E+00            1.9000E+00
 3.4651E+03 1.4000E+00            3.3000E+00
 3.4878E+03 1.6000E+00 2.1932E+03 3.1000E+00
 3.5244E+03 1.1000E+00 2.1566E+03 9.5000E+00
 3.5465E+03 1.4000E+00 2.1345E+03 2.2700E+01
 3.5751E+03 1.0000E+00 2.1059E+03 8.1000E+01
 3.5945E+03 1.5000E+00 2.0865E+03 1.1600E+01
 3.6175E+03 9.0000E-01 2.0635E+03 1.5800E+01
 3.6291E+03 9.0000E-01 2.0519E+03 3.2500E+01
 3.6451E+03 1.0000E+00 2.0359E+03 9.6000E+00
 3.7043E+03 1.0000E+00 1.9767E+03 3.0000E+01
 3.7184E+03 1.0000E+00 1.9626E+03 1.7200E+01
 3.8853E+03 9.0000E-01 1.7957E+03 7.8000E+00
 3.9251E+03 1.3000E+00 1.7559E+03 5.7000E+00
 3.9590E+03 6.0000E-01 1.7220E+03 1.0500E+01
 4.0565E+03 7.0000E-01 1.6245E+03 4.0900E+01
 4.1617E+03 8.0000E-01 1.5193E+03 1.8600E+01
 4.1859E+03 7.0000E-01 1.4951E+03 5.4200E+01
 4.3085E+03 1.0000E+00 1.3725E+03 6.3000E+00
 4.3482E+03 9.0000E-01 1.3328E+03 8.3000E+00
 4.4153E+03 9.0000E-01 1.2657E+03 1.0800E+01
 4.4608E+03 8.0000E-01 1.2202E+03 1.0000E+02
 4.7769E+03 8.0000E-01 9.0410E+02 2.8500E+01
 4.9411E+03 1.0000E+00 7.3990E+02 2.2600E+01
 5.4262E+03 3.8000E+00 2.5470E+02 2.3500E+00
ENDDATA             76
ENDSUBENT           95
ENDENTRY             6
