ENTRY            T0232   20030804   20030924
SUBENT        T0232001   20030804   20030924
BIB                  9         12
INSTITUTE  (1CANCRC)
REFERENCE  (J,NP/A,179,465,1972)
AUTHOR     (O.Hausser,A.J.Ferguson,A.B.McDonald,I.M.Szoghy,
           T.K.Alexander,D.L.Disdier)
TITLE      High spin states in 20Ne from 16O(a,a) scattering
FACILITY   (VDGT,1CANCRC)
DETECTOR   (SIBAR) Four movable surface-barrier detectors and one
            annular detector fixed at 180 degrees in a 43 cm
            diameter Ortec scattering chamber.
COMMENT    Many points at a single angle due to accuracy of scan.
ERR-ANALYS (DATA-ERR) Experimental error
HISTORY    (20030512C)
ENDBIB              12
NOCOMMON             0          0
ENDSUBENT           15
SUBENT        T0232002   20030804   20030924
BIB                  6         10
REACTION   (8-O-16(A,EL)8-O-16,,DA)
           Excitation functions near the l=6 resonance at
            E(alpha)=5058 keV.
SAMPLE     Thin (<10 microg/cm2) self-supporting SiO2 targets.
MONITOR    (8-O-16(A,EL)8-O-16,,DA) Data of McDermott near 5
            MeV.
MONIT-REF  (,L.C.MCDERMOTT+,J,PR,118,175,1960)
ERR-ANALYS Digitizing error in energy 0.5 keV.
           Digitizing error in data 0.5 mb/sr.
STATUS     (CURVE) Data scanned from Fig.2 of reference by NPDC.
ENDBIB              10
NOCOMMON             0          0
DATA                 4        197
ANG-CM     EN         DATA-CM    DATA-ERR
ADEG       MEV        MB/SR      MB/SR
  113.0      5.035      62.75     0.7161
  113.0      5.036      64.90     0.8184
  113.0      5.037      64.70     0.8184
  113.0      5.038      64.60     0.7162
  113.0      5.039      64.09     0.8184
  113.0      5.040      65.73      1.023
  113.0      5.041      64.10     0.8184
  113.0      5.042      63.59     0.9207
  113.0      5.043      64.82     0.7161
  113.0      5.044      65.84     0.9207
  113.0      5.045      65.13     0.8185
  113.0      5.046      66.36     0.8184
  113.0      5.047      65.74     0.8185
  113.0      5.048      64.52     0.6138
  113.0      5.049      65.34     0.8184
  113.0      5.050      64.73     0.8185
  113.0      5.051      65.96     0.8184
  113.0      5.052      64.22     0.7161
  113.0      5.053      65.35     0.8184
  113.0      5.054      65.65     0.9207
  113.0      5.055      67.09     0.9207
  113.0      5.056      70.36     0.9207
  113.0      5.057      83.36      1.023
  113.0      5.058      88.37     0.9206
  113.0      5.059      83.36      1.023
  113.0      5.060      81.32      1.228
  113.0      5.061      75.39      1.023
  113.0      5.062      72.01     0.9208
  113.0      5.063      67.92     0.9207
  113.0      5.064      64.65     0.7161
  113.0      5.065      64.55     0.8185
  113.0      5.066      64.25     0.9207
  113.0      5.067      61.69     0.8184
  113.0      5.068      64.56     0.8185
  113.0      5.069      64.05     0.7161
  113.0      5.069      62.31     0.8183
  113.0      5.071      64.56     0.8184
  113.0      5.072      63.24     0.7161
  113.0      5.074      62.52     0.8184
  113.0      5.075      63.55     0.8185
  137.3      5.035      2.474     0.2454
  137.3      5.036      2.110     0.2273
  137.3      5.036      2.019     0.2273
  137.3      5.037      1.674     0.2454
  137.3      5.039      2.374     0.2545
  137.3      5.040      1.893     0.2455
  137.3      5.041      2.184     0.2273
  137.3      5.041      2.202     0.2454
  137.3      5.043      2.457     0.2636
  137.3      5.044      2.248     0.2545
  137.3      5.044      1.594     0.2545
  137.3      5.046      1.839     0.2454
  137.3      5.047      2.494     0.2454
  137.3      5.048      1.931     0.2454
  137.3      5.049      2.076     0.2455
  137.3      5.050      1.713     0.2455
  137.3      5.051      1.977     0.2364
  137.3      5.052      2.349     0.2454
  137.3      5.053      2.059     0.2273
  137.3      5.054      1.986     0.2454
  137.3      5.055      2.759     0.2364
  137.3      5.056      3.277     0.2818
  137.3      5.057      6.114     0.3364
  137.3      5.058      6.951     0.3182
  137.3      5.059      7.051     0.3273
  137.3      5.060      6.333     0.3364
  137.3      5.061      5.024     0.2818
  137.3      5.062      4.006     0.2818
  137.3      5.063      3.052     0.2545
  137.3      5.064      2.834     0.2545
  137.3      5.064      1.534     0.2454
  137.3      5.066      1.588     0.2455
  137.3      5.067      1.834     0.2364
  137.3      5.068      1.743     0.2545
  137.3      5.069      1.698     0.2273
  137.3      5.069      1.416     0.2364
  137.3      5.070      1.353     0.2454
  137.3      5.072      1.608     0.2636
  137.3      5.073      1.335     0.2454
  137.3      5.075      1.417     0.2364
  154.4      5.035      49.68     0.8681
  154.4      5.036      47.94     0.8682
  154.4      5.037      49.51     0.8681
  154.4      5.038      49.12     0.7893
  154.4      5.039      49.51     0.8681
  154.4      5.040      49.66     0.8682
  154.4      5.041      49.82     0.8683
  154.4      5.042      49.97     0.8682
  154.4      5.043      50.44     0.8682
  154.4      5.044      50.36     0.9471
  154.4      5.045      51.07     0.8681
  154.4      5.046      49.57     0.7893
  154.4      5.047      52.72     0.9471
  154.4      5.048      50.67     0.7893
  154.4      5.049      50.27     0.8683
  154.4      5.050      51.92     0.9470
  154.4      5.051      54.37     0.8682
  154.4      5.052      52.63     0.8682
  154.4      5.053      51.91     0.9473
  154.4      5.054      52.30      1.026
  154.4      5.055      53.56      1.026
  154.4      5.056      57.67     0.8682
  154.4      5.057      64.53     0.9471
  154.4      5.058      64.37     0.9473
  154.4      5.059      64.21     0.9471
  154.4      5.060      60.10     0.9471
  154.4      5.061      57.81     0.8682
  154.4      5.062      54.73     0.7891
  154.4      5.063      54.64     0.8682
  154.4      5.064      52.51     0.9470
  154.4      5.065      54.40     0.9470
  154.4      5.066      54.08     0.9471
  154.4      5.067      52.50     0.9473
  154.4      5.068      54.00     0.8682
  154.4      5.069      54.15     0.8681
  154.4      5.070      52.65     0.9470
  154.4      5.071      53.51     0.8682
  154.4      5.073      54.69     0.9471
  154.4      5.074      55.24     0.8682
  154.4      5.075      53.42     0.9473
  163.8      5.035      102.7      1.581
  163.8      5.035      102.3      1.581
  163.8      5.037      98.20      1.581
  163.8      5.037      100.0      1.580
  163.8      5.039      100.0      1.581
  163.8      5.040      100.9      1.581
  163.8      5.040      102.1      1.807
  163.8      5.041      100.0      1.581
  163.8      5.043      101.0      1.581
  163.8      5.044      98.93      1.807
  163.8      5.045      101.6      1.807
  163.8      5.046      99.85      1.807
  163.8      5.046      102.6      1.807
  163.8      5.047      101.0      1.581
  163.8      5.048      103.3      1.581
  163.8      5.049      101.9      1.581
  163.8      5.050      100.1      1.581
  163.8      5.052      101.5      1.581
  163.8      5.052      100.4      1.355
  163.8      5.053      104.2      1.580
  163.8      5.054      99.70      1.580
  163.8      5.055      96.09      1.581
  163.8      5.056      95.42      1.355
  163.8      5.057      99.94      1.806
  163.8      5.058      105.1      1.581
  163.8      5.059      108.1      1.806
  163.8      5.060      109.9      1.807
  163.8      5.061      113.1      1.807
  163.8      5.062      113.8      1.581
  163.8      5.063      113.5      1.807
  163.8      5.064      114.7      1.581
  163.8      5.066      113.1      1.807
  163.8      5.067      113.3      1.581
  163.8      5.068      114.5      1.807
  163.8      5.069      115.4      1.807
  163.8      5.069      114.5      1.806
  163.8      5.070      112.9      2.032
  163.8      5.073      112.9      1.581
  163.8      5.074      116.6      1.581
  163.8      5.075      117.0      1.581
  178.1      5.035      147.0      2.280
  178.1      5.035      143.7      1.629
  178.1      5.039      145.3      1.954
  178.1      5.040      147.9      1.954
  178.1      5.041      149.9      1.954
  178.1      5.041      145.0      2.280
  178.1      5.042      147.9      1.954
  178.1      5.044      145.9      1.954
  178.1      5.045      147.9      1.954
  178.1      5.046      147.2      1.954
  178.1      5.048      144.9      2.280
  178.1      5.048      145.6      1.629
  178.1      5.049      149.1      1.954
  178.1      5.050      145.5      1.629
  178.1      5.051      143.6      2.280
  178.1      5.052      139.7      1.629
  178.1      5.054      140.6      2.605
  178.1      5.054      138.7      1.954
  178.1      5.055      131.5      1.954
  178.1      5.056      169.3      1.954
  178.1      5.057      200.2      2.280
  178.1      5.058      212.9      3.258
  178.1      5.059      214.5      2.280
  178.1      5.060      220.7      2.605
  178.1      5.061      211.6      1.954
  178.1      5.062      201.5      2.280
  178.1      5.063      188.8      2.606
  178.1      5.064      185.8      2.280
  178.1      5.065      177.3      2.280
  178.1      5.066      174.7      2.280
  178.1      5.067      171.8      2.606
  178.1      5.068      169.8      1.954
  178.1      5.069      173.1      1.954
  178.1      5.070      172.7      2.280
  178.1      5.072      169.5      1.629
  178.1      5.073      171.4      2.280
  178.1      5.074      171.4      2.280
ENDDATA            199
ENDSUBENT          214
SUBENT        T0232003   20030804   20030924
BIB                  6         10
REACTION   (8-O-16(A,EL)8-O-16,,DA)
           Excitation functions near the l=8 resonance at
            E(alpha)=9026 keV.
SAMPLE     Thin (<10 microg/cm2) self-supporting SiO2 targets.
MONITOR    (8-O-16(A,EL)8-O-16,,DA) Data of McDermott near 5
            MeV.
MONIT-REF  (,L.C.MCDERMOTT+,J,PR,118,175,1960)
ERR-ANALYS Digitizing error in energy 0.5 keV.
           Digitizing error in data 0.5 mb/sr.
STATUS     (CURVE) Data scanned from Fig.3 of reference by NPDC.
ENDBIB              10
COMMON               1          3
ANG-CM
ADEG
 178.1
ENDCOMMON            3
DATA                 3        104
EN         DATA-CM    DATA-ERR
MEV        MB/SR      MB/SR
  8.977      55.19      2.636
  8.978      56.95      2.259
  8.979      59.47      1.883
  8.980      60.12      1.883
  8.981      59.23      1.883
  8.982      61.38      2.645
  8.983      65.02      2.636
  8.984      63.39      2.636
  8.985      65.91      2.259
  8.986      65.03      2.259
  8.987      69.42      2.259
  8.988      70.06      2.269
  8.989      71.45      2.269
  8.990      72.09      2.259
  8.991      76.48      2.259
  8.992      77.50      2.636
  8.993      83.77      2.259
  8.994      91.93      2.259
  8.995      137.8      3.013
  8.996      196.1      3.398
  8.997      286.0      4.519
  8.998      288.5      4.142
  8.999      236.8      3.757
  9.000      186.5      3.389
  9.001      141.6      3.013
  9.002      113.2      2.636
  9.003      90.85      2.259
  9.004      80.93      3.013
  9.005      73.29      2.259
  9.006      74.29      2.636
  9.007      73.41      2.636
  9.008      72.16      2.250
  9.009      70.91      2.636
  9.010      74.18      2.269
  9.011      74.06      2.259
  9.012      73.56      2.636
  9.013      76.08      2.259
  9.014      78.22      3.013
  9.015      74.33      2.250
  9.016      78.73      2.259
  9.017      77.48      2.645
  9.018      78.49      2.259
  9.019      79.50      2.645
  9.020      80.89      2.636
  9.021      80.40      2.259
  9.022      82.90      2.645
  9.023      85.42      2.259
  9.024      87.57      2.259
  9.025      105.2      2.627
  9.026      106.9      2.259
  9.027      111.3      3.003
  9.028      102.2      3.013
  9.029      100.1      3.398
  9.030      98.14      2.259
  9.031      101.4      2.645
  9.032      102.0      2.645
  9.033      103.0      3.013
  9.034      106.3      2.645
  9.035      112.2      2.636
  9.036      115.9      2.636
  9.037      122.5      2.636
  9.038      126.2      2.627
  9.039      131.3      2.636
  9.040      139.1      3.004
  9.041      151.1      3.013
  9.042      153.6      2.636
  9.043      162.9      3.013
  9.044      173.3      3.022
  9.045      181.9      3.398
  9.046      190.0      3.389
  9.047      200.5      3.398
  9.048      208.3      3.766
  9.049      225.1      3.389
  9.050      239.3      3.389
  9.051      254.2      4.152
  9.052      258.3      4.519
  9.053      274.0      4.519
  9.054      281.4      4.528
  9.055      292.6      3.766
  9.056      297.3      4.905
  9.057      316.0      4.905
  9.058      320.1      4.519
  9.059      326.4      4.905
  9.060      322.1      4.519
  9.061      320.5      5.272
  9.062      320.7      4.896
  9.063      341.3      5.272
  9.064      329.5      4.896
  9.065      322.2      4.519
  9.066      330.4      4.519
  9.067      322.0      4.519
  9.068      318.5      4.896
  9.069      318.0      5.281
  9.070      308.5      4.896
  9.071      304.6      4.142
  9.072      306.3      4.519
  9.073      301.7      4.519
  9.074      303.1      4.528
  9.075      295.0      4.142
  9.076      284.4      4.142
  9.077      286.1      4.519
  9.078      278.5      4.510
  9.079      272.3      4.528
  9.080      276.0      4.519
ENDDATA            106
ENDSUBENT          125
SUBENT        T0232004   20030804   20030924
BIB                  6         10
REACTION   (8-O-16(A,EL)8-O-16,,DA)
           Excitation functions near the l=4 resonance at
            E(alpha)=8997 keV.
SAMPLE     Thin (<10 microg/cm2) self-supporting SiO2 targets.
MONITOR    (8-O-16(A,EL)8-O-16,,DA) Data of McDermott near 5
            MeV.
MONIT-REF  (,L.C.MCDERMOTT+,J,PR,118,175,1960)
ERR-ANALYS Digitizing error in energy 0.5 keV.
           Digitizing error in data 0.5 mb/sr.
STATUS     (CURVE) Data scanned from Fig.4 of reference by NPDC.
ENDBIB              10
NOCOMMON             0          0
DATA                 4        231
ANG-CM     EN         DATA-CM    DATA-ERR
ADEG       MEV        MB/SR      MB/SR
  113.0      8.977      36.52     0.6515
  113.0      8.978      35.95     0.8004
  113.0      8.979      34.67     0.7504
  113.0      8.980      35.40     0.8004
  113.0      8.981      32.02     0.6503
  113.0      8.982      33.00     0.7515
  113.0      8.983      33.08     0.7515
  113.0      8.984      31.76     0.7504
  113.0      8.985      30.63     0.7504
  113.0      8.986      31.76     0.7015
  113.0      8.987      30.34     0.7015
  113.0      8.988      29.42     0.7004
  113.0      8.989      30.89     0.6992
  113.0      8.990      31.17     0.7004
  113.0      8.991      30.45     0.7015
  113.0      8.992      29.78     0.6503
  113.0      8.993      31.51     0.8015
  113.0      8.994      30.48     0.7004
  113.0      8.995      32.76     0.8015
  113.0      8.996      32.59     0.7504
  113.0      8.997      33.17     0.7515
  113.0      8.998      31.50     0.8004
  113.0      8.999      29.17     0.8015
  113.0      9.000      26.24     0.7004
  113.0      9.001      27.08     0.7492
  113.0      9.002      24.50     0.5992
  113.0      9.003      25.28     0.7004
  113.0      9.004      24.85     0.6003
  113.0      9.005      23.93     0.5992
  113.0      9.006      24.01     0.5992
  113.0      9.007      24.49     0.6003
  113.0      9.008      23.76     0.5992
  113.0      9.009      23.64     0.6992
  113.0      9.010      23.67     0.6503
  113.0      9.011      23.50     0.6003
  113.0      9.012      23.57     0.7004
  113.0      9.013      22.95     0.5992
  113.0      9.014      22.13     0.5992
  113.0      9.015      23.11     0.7004
  113.0      9.016      22.73     0.6503
  113.0      9.017      22.51     0.6503
  113.0      9.018      21.34     0.6003
  113.0      9.019      21.87     0.7504
  113.0      9.020      20.60     0.5003
  113.0      9.021      19.82     0.5491
  113.0      9.022      20.45     0.5992
  113.0      9.023      20.48     0.5503
  137.3      8.977      6.568     0.4926
  137.3      8.978      6.892     0.3789
  137.3      8.979      7.027     0.4547
  137.3      8.980      7.048     0.4176
  137.3      8.981      7.638     0.4168
  137.3      8.982      7.394     0.4926
  137.3      8.983      6.733     0.4547
  137.3      8.984      7.171     0.4538
  137.3      8.985      6.359     0.4926
  137.3      8.986      6.759     0.4547
  137.3      8.987      7.614     0.4934
  137.3      8.988      7.598     0.4168
  137.3      8.989      7.240     0.3789
  137.3      8.990      7.639     0.4168
  137.3      8.991      7.662     0.4547
  137.3      8.992      7.833     0.4934
  137.3      8.993      6.983     0.4934
  137.3      8.994      6.889     0.4168
  137.3      8.995      7.898     0.4555
  137.3      8.996      12.16     0.5692
  137.3      8.997      23.44     0.6441
  137.3      8.998      28.51     0.7208
  137.3      8.999      27.16     0.7578
  137.3      9.000      26.27     0.7191
  137.3      9.001      22.51     0.6820
  137.3      9.002      20.06     0.6071
  137.3      9.003      17.47     0.6062
  137.3      9.004      15.59     0.5683
  137.3      9.005      15.24     0.6071
  137.3      9.006      15.75     0.5313
  137.3      9.007      14.90     0.5305
  137.3      9.008      14.81     0.5296
  137.3      9.009      14.07     0.5675
  137.3      9.010      12.95     0.5305
  137.3      9.011      13.96     0.5683
  137.3      9.012      13.26     0.4168
  137.3      9.013      13.17     0.4926
  137.3      9.014      12.58     0.4547
  137.3      9.015      13.13     0.5683
  137.3      9.016      12.74     0.4926
  137.3      9.017      12.12     0.4926
  137.3      9.018      11.72     0.4926
  137.3      9.019      12.84     0.5683
  137.3      9.020      12.22     0.4926
  137.3      9.021      12.43     0.5683
  137.3      9.022      13.74     0.5305
  137.3      9.023      13.53     0.5683
  154.4      8.977      24.22     0.8224
  154.4      8.978      23.63     0.8857
  154.4      8.979      25.69     0.8224
  154.4      8.980      25.34     0.8857
  154.4      8.981      25.63     0.8210
  154.4      8.982      24.47     0.8224
  154.4      8.983      26.02     0.8857
  154.4      8.984      23.33     0.8857
  154.4      8.985      24.82     0.8871
  154.4      8.986      26.13     0.8224
  154.4      8.987      26.16     0.8857
  154.4      8.988      25.63     0.7592
  154.4      8.989      25.91     0.6959
  154.4      8.990      26.20     0.7592
  154.4      8.991      26.11     0.8224
  154.4      8.992      26.02     0.8843
  154.4      8.993      25.17     0.8224
  154.4      8.994      28.69     0.8224
  154.4      8.995      33.85     0.9489
  154.4      8.996      39.39     0.6959
  154.4      8.997      41.45      1.137
  154.4      8.998      38.26      1.012
  154.4      8.999      32.60     0.9489
  154.4      9.000      27.44     0.8857
  154.4      9.001      26.97     0.8224
  154.4      9.002      25.04     0.8224
  154.4      9.003      23.31     0.7592
  154.4      9.004      24.42     0.7592
  154.4      9.005      24.39     0.7592
  154.4      9.006      22.97     0.7592
  154.4      9.007      25.16     0.9489
  154.4      9.008      24.24     0.8224
  154.4      9.009      25.42     0.8857
  154.4      9.010      25.08     0.8224
  154.4      9.011      25.62     0.8857
  154.4      9.012      26.22     0.7577
  154.4      9.013      26.07     0.8843
  154.4      9.014      27.43     0.8857
  154.4      9.015      26.58     0.8224
  154.4      9.016      27.25     0.8857
  154.4      9.017      28.11     0.8857
  154.4      9.018      29.03     0.9489
  154.4      9.019      27.29     0.8857
  154.4      9.020      30.18     0.8857
  154.4      9.021      31.16     0.8857
  154.4      9.022      31.13     0.8871
  154.4      9.023      33.45     0.9489
  163.8      8.977      38.09      2.005
  163.8      8.978      38.74      1.755
  163.8      8.979      38.89      1.509
  163.8      8.980      37.28      1.499
  163.8      8.981      38.18      2.005
  163.8      8.982      39.84      1.253
  163.8      8.983      40.24      1.253
  163.8      8.984      40.13      1.755
  163.8      8.985      40.78      1.504
  163.8      8.986      40.42      1.755
  163.8      8.987      40.83      2.256
  163.8      8.988      43.48      1.504
  163.8      8.989      44.63      1.749
  163.8      8.991      44.68      2.000
  163.8      8.992      46.33      1.760
  163.8      8.993      50.75      1.755
  163.8      8.994      55.66      1.749
  163.8      8.995      76.62      2.256
  163.8      8.997      134.6      2.256
  163.8      8.998      131.0      2.251
  163.8      8.999      107.6      2.501
  163.8      9.000      84.38      2.997
  163.8      9.001      63.98      2.251
  163.8      9.002      54.33      1.755
  163.8      9.003      44.70      1.749
  163.8      9.004      44.09      1.253
  163.8      9.005      40.74      2.005
  163.8      9.006      36.61      1.003
  163.8      9.007      38.78      1.248
  163.8      9.008      38.93      1.504
  163.8      9.009      39.07      1.253
  163.8      9.010      41.48      1.253
  163.8      9.011      40.12      1.504
  163.8      9.012      40.52      1.499
  163.8      9.013      43.17      1.253
  163.8      9.014      44.33      1.504
  163.8      9.015      43.47      1.259
  163.8      9.016      43.37      1.253
  163.8      9.017      44.03      1.504
  163.8      9.018      46.42      1.504
  163.8      9.019      45.81      1.504
  163.8      9.020      45.97      1.253
  163.8      9.021      48.87      1.253
  163.8      9.022      48.76      1.253
  163.8      9.023      50.43      1.499
  178.1      8.977      56.81      1.897
  178.1      8.978      58.92      2.647
  178.1      8.979      61.80      1.889
  178.1      8.980      62.77      2.268
  178.1      8.981      61.08      1.509
  178.1      8.982      63.58      1.889
  178.1      8.983      66.46      1.889
  178.1      8.984      65.51      1.897
  178.1      8.985      68.00      2.277
  178.1      8.986      67.44      1.897
  178.1      8.987      70.32      2.656
  178.1      8.988      70.92      3.406
  178.1      8.989      73.01      2.656
  178.1      8.990      72.85      2.647
  178.1      8.991      78.76      1.889
  178.1      8.992      79.35      1.889
  178.1      8.993      85.25      2.656
  178.1      8.995      136.5      3.415
  178.1      8.996      197.5      3.795
  178.1      8.997      284.7      3.036
  178.1      8.998      287.1      3.398
  178.1      9.000      186.6      3.415
  178.1      9.001      142.8      2.268
  178.1      9.002      114.5      2.268
  178.1      9.003      92.31      2.268
  178.1      9.004      82.65      1.889
  178.1      9.005      76.39      2.656
  178.1      9.006      77.37      2.277
  178.1      9.007      76.43      2.268
  178.1      9.008      74.38      1.906
  178.1      9.009      72.69      1.889
  178.1      9.010      76.32      1.897
  178.1      9.011      76.14      1.897
  178.1      9.012      76.36      2.268
  178.1      9.013      78.08      1.889
  178.1      9.014      79.82      1.518
  178.1      9.015      77.76      1.897
  178.1      9.016      81.37      1.889
  178.1      9.017      80.45      1.897
  178.1      9.018      81.04      1.889
  178.1      9.019      82.00      1.518
  178.1      9.020      83.36      2.277
  178.1      9.021      82.43      2.277
  178.1      9.022      84.91      1.897
  178.1      9.023      87.42      2.268
ENDDATA            233
ENDSUBENT          248
SUBENT        T0232005   20030804   20030924
BIB                  6          9
REACTION   (8-O-16(A,EL)8-O-16,,DA)
           Excitation functions near the l=8 resonance at
            E(alpha)=9026 keV.
SAMPLE     WO3 targets on 5 micro-g/cm2 carbon backing.
MONITOR    (8-O-16(A,EL)8-O-16,,DA)
MONIT-REF  (C0751001,J.JOHN+,J,PR,181,1455,1969)
ERR-ANALYS Digitizing error in energy 0.5 keV.
           Digitizing error in data 0.5 mb/sr.
STATUS     (CURVE) Data scanned from Fig.5 of reference by NPDC.
ENDBIB               9
NOCOMMON             0          0
DATA                 4        207
ANG-CM     EN         DATA-CM    DATA-ERR
ADEG       MEV        MB/SR      MB/SR
  105.2      9.014      46.04     0.7239
  105.2      9.015      45.87     0.6681
  105.2      9.016      44.76     0.6681
  105.2      9.017      44.99     0.6679
  105.2      9.018      44.27     0.7238
  105.2      9.019      42.99     0.7794
  105.2      9.020      44.28     0.6124
  105.2      9.021      42.44     0.7793
  105.2      9.022      42.44     0.6681
  105.2      9.023      42.17     0.7239
  105.2      9.024      41.73     0.8350
  105.2      9.025      39.73     0.7236
  105.2      9.026      39.79     0.6682
  105.2      9.027      38.40     0.8353
  105.2      9.028      38.68     0.7794
  105.2      9.029      37.68     0.7794
  105.2      9.030      37.29     0.7238
  105.2      9.031      36.41     0.7238
  105.2      9.032      37.02     0.7794
  105.2      9.033      35.63     0.7238
  105.2      9.034      34.64     0.6124
  105.2      9.035      33.02     0.6681
  105.2      9.036      33.92     0.6681
  105.2      9.037      31.08     0.6124
  105.2      9.038      30.92     0.6682
  105.2      9.039      30.64     0.6124
  105.2      9.040      30.09     0.6123
  113.0      9.015      19.10     0.5157
  113.0      9.016      17.67     0.4708
  113.0      9.017      16.75     0.4484
  113.0      9.018      17.47     0.4484
  113.0      9.019      18.01     0.4932
  113.0      9.020      17.43     0.4036
  113.0      9.021      16.76     0.4932
  113.0      9.022      17.66     0.5381
  113.0      9.023      15.87     0.4932
  113.0      9.024      16.09     0.4932
  113.0      9.025      16.34     0.5157
  113.0      9.026      16.00     0.4933
  113.0      9.027      16.16     0.5157
  113.0      9.028      15.60     0.5381
  113.0      9.029      14.26     0.4932
  113.0      9.030      14.04     0.4932
  113.0      9.031      14.28     0.5157
  113.0      9.032      12.87     0.5381
  113.0      9.033      11.71     0.5381
  113.0      9.034      11.58     0.4932
  113.0      9.035      10.99     0.4932
  113.0      9.036      10.66     0.5157
  113.0      9.037      10.21     0.5157
  113.0      9.038      10.01     0.4932
  113.0      9.039      9.207     0.5381
  120.6      9.014      3.610     0.4789
  120.6      9.015      3.801     0.4676
  120.6      9.016      3.981     0.4676
  120.6      9.017      2.770     0.4732
  120.6      9.018      3.756     0.4676
  120.6      9.019      3.232     0.4732
  120.6      9.020      3.018     0.4845
  120.6      9.021      3.920     0.4732
  120.6      9.022      3.469     0.4845
  120.6      9.023      3.897     0.4620
  120.6      9.024      3.216     0.4676
  120.6      9.025      2.714     0.4620
  120.6      9.026      2.123     0.4676
  120.6      9.027      2.596     0.4563
  120.6      9.028      2.748     0.4732
  120.6      9.029      2.196     0.4394
  120.6      9.030      3.413     0.4507
  120.6      9.031      2.140     0.4620
  120.6      9.032      2.388     0.4394
  120.6      9.033      2.405     0.4113
  120.6      9.034      1.571     0.4225
  120.6      9.035     0.8724     0.4225
  120.6      9.036     0.9626     0.4451
  120.6      9.037      1.301     0.4451
  120.6      9.038      1.171     0.4394
  120.6      9.039      1.797     0.4225
  120.6      9.040      1.385     0.4394
  133.8      9.014      5.687     0.4738
  133.8      9.015      5.124     0.4513
  133.8      9.016      5.306     0.4513
  133.8      9.017      5.398     0.4513
  133.8      9.018      6.031     0.4513
  133.8      9.019      5.649     0.4286
  133.8      9.020      6.305     0.4513
  133.8      9.021      6.013     0.4287
  133.8      9.022      6.533     0.4513
  133.8      9.023      5.880     0.4287
  133.8      9.024      7.235     0.4738
  133.8      9.025      8.658     0.4513
  133.8      9.026      9.630     0.4738
  133.8      9.027      10.78     0.4964
  133.8      9.028      10.76     0.5190
  133.8      9.029      10.69     0.4965
  133.8      9.030      10.61     0.4513
  133.8      9.031      11.67     0.4738
  133.8      9.032      11.74     0.4964
  133.8      9.033      12.53     0.4738
  133.8      9.034      13.05     0.5415
  133.8      9.035      14.11     0.4739
  133.8      9.036      15.40     0.4963
  133.8      9.037      15.42     0.5189
  133.8      9.038      17.05     0.5189
  133.8      9.039      16.44     0.5416
  133.8      9.040      17.46     0.5640
  143.9      9.014      17.68     0.5698
  143.9      9.015      17.46     0.6838
  143.9      9.016      17.97     0.7407
  143.9      9.017      18.54     0.7407
  143.9      9.018      18.71     0.6838
  143.9      9.019      19.74     0.7977
  143.9      9.020      19.34     0.6268
  143.9      9.021      19.51     0.6838
  143.9      9.022      20.99     0.6838
  143.9      9.023      22.59     0.5698
  143.9      9.024      22.36     0.6838
  143.9      9.025      22.93     0.6838
  143.9      9.026      23.62     0.6838
  143.9      9.027      22.65     0.7407
  143.9      9.028      25.27     0.7407
  143.9      9.029      24.53     0.6838
  143.9      9.030      26.18     0.7407
  143.9      9.031      26.41     0.7407
  143.9      9.032      28.52     0.7977
  143.9      9.033      30.06     0.7407
  143.9      9.034      32.28     0.6838
  143.9      9.035      33.53     0.7977
  143.9      9.036      35.70     0.7977
  143.9      9.037      39.29     0.8547
  143.9      9.038      39.23     0.7977
  143.9      9.039      41.34     0.8547
  143.9      9.040      43.17     0.8547
  154.4      9.016      28.93     0.8765
  154.4      9.017      30.37     0.8765
  154.4      9.018      28.54     0.7968
  154.4      9.019      29.73     0.8765
  154.4      9.020      31.89     0.9561
  154.4      9.021      32.29     0.8765
  154.4      9.022      34.12     0.7968
  154.4      9.023      35.48      1.036
  154.4      9.024      38.90     0.9561
  154.4      9.025      44.72     0.8765
  154.4      9.026      46.71     0.9561
  154.4      9.027      44.25     0.8765
  154.4      9.028      45.12     0.7968
  154.4      9.029      43.85     0.9561
  154.4      9.030      42.34      1.036
  154.4      9.031      45.61      1.115
  154.4      9.032      45.61     0.9561
  154.4      9.033      46.80      1.036
  154.4      9.034      50.47      1.036
  154.4      9.035      52.78     0.9561
  154.4      9.036      54.94      1.036
  154.4      9.037      57.09      1.115
  154.4      9.038      62.75      1.195
  154.4      9.039      66.25      1.195
  163.8      9.015      46.78      1.130
  163.8      9.016      48.02      1.017
  163.8      9.017      48.81      1.130
  163.8      9.018      49.37      1.017
  163.8      9.019      50.05      1.017
  163.8      9.020      51.41      1.017
  163.8      9.021      54.23      1.130
  163.8      9.022      54.68      1.130
  163.8      9.023      53.44      1.017
  163.8      9.024      56.60      1.243
  163.8      9.025      56.60      1.243
  163.8      9.026      57.62      1.130
  163.8      9.027      62.59      1.130
  163.8      9.028      63.38      1.243
  163.8      9.029      65.30     0.9039
  163.8      9.030      68.24      1.130
  163.8      9.031      65.86      1.243
  163.8      9.032      71.96      1.243
  163.8      9.032      71.17      1.130
  163.8      9.033      75.47      1.356
  163.8      9.035      78.40      1.356
  163.8      9.035      84.39      1.469
  163.8      9.037      86.09      1.130
  163.8      9.038      89.81      1.243
  163.8      9.038      95.80      1.356
  178.1      9.014      85.47      1.355
  178.1      9.016      87.04      1.581
  178.1      9.017      87.26      1.807
  178.1      9.017      87.25      1.355
  178.1      9.018      87.92      1.581
  178.1      9.020      90.17      1.581
  178.1      9.020      90.62      1.581
  178.1      9.022      91.74      1.807
  178.1      9.023      95.80      1.807
  178.1      9.023      101.4      2.033
  178.1      9.025      107.1      1.807
  178.1      9.026      120.6      1.807
  178.1      9.027      123.1      1.581
  178.1      9.028      115.4      1.581
  178.1      9.029      111.1      1.355
  178.1      9.030      109.1      2.032
  178.1      9.031      110.6      1.355
  178.1      9.032      113.8      1.806
  178.1      9.033      114.5      2.032
  178.1      9.034      119.9      1.580
  178.1      9.035      122.1      2.032
  178.1      9.036      126.0      1.807
  178.1      9.037      132.7      1.807
  178.1      9.038      135.2      2.032
  178.1      9.039      140.6      1.581
ENDDATA            209
ENDSUBENT          223
SUBENT        T0232006   20030804   20030924
BIB                  7         10
REACTION   (8-O-16(A,EL)8-O-16,,DA)
           Excitation functions near the l=7 resonance at
            E(alpha)=10759 keV.
SAMPLE     WO3 targets on 5 micro-g/cm2 carbon backing.
MONITOR    (8-O-16(A,EL)8-O-16,,DA)
MONIT-REF  (C0751001,J.JOHN+,J,PR,181,1455,1969)
ERR-ANALYS Digitizing error in energy 1 keV.
           Digitizing error in data 1 mb/sr.
COMMENT    Many points at a single energy due to accuracy of scan.
STATUS     (CURVE) Data scanned from Fig.6 of reference by NPDC.
ENDBIB              10
NOCOMMON             0          0
DATA                 4        240
ANG-CM     EN         DATA-CM    DATA-ERR
ADEG       MEV        MB/SR      MB/SR
  114.0      10.70      76.48      1.164
  114.0      10.70      77.31      1.455
  114.0      10.70      80.03      1.309
  114.0      10.71      80.13      1.452
  114.0      10.71      80.81      1.600
  114.0      10.71      81.35      1.600
  114.0      10.71      84.65      1.746
  114.0      10.71      84.90      1.455
  114.0      10.72      84.99      1.306
  114.0      10.72      82.19      1.455
  114.0      10.72      86.50      1.455
  114.0      10.72      89.52      1.309
  114.0      10.72      89.18      1.600
  114.0      10.73      86.51      1.597
  114.0      10.73      90.10      1.164
  114.0      10.73      90.93      1.455
  114.0      10.73      88.27      1.455
  114.0      10.73      92.58      1.455
  114.0      10.74      89.63      1.455
  114.0      10.74      88.57      1.309
  114.0      10.74      90.41      1.746
  114.0      10.74      87.46      1.746
  114.0      10.74      87.57      1.600
  114.0      10.75      82.28      1.306
  114.0      10.75      78.88      1.455
  114.0      10.75      70.83      1.309
  114.0      10.75      69.48      1.455
  114.0      10.75      63.47      1.312
  114.0      10.76      58.04      1.161
  114.0      10.76      57.84      1.603
  114.0      10.76      57.66      1.166
  114.0      10.76      55.87      1.455
  114.0      10.76      57.57      1.164
  114.0      10.77      62.90      1.309
  114.0      10.77      63.88      1.457
  114.0      10.77      64.85      1.309
  114.0      10.77      64.37      1.455
  114.0      10.77      66.22      1.309
  114.0      10.78      69.52      1.164
  114.0      10.78      71.21      1.164
  114.0      10.78      72.91      1.457
  114.0      10.78      73.16      1.161
  114.0      10.78      72.53      1.455
  114.0      10.79      73.36      1.457
  114.0      10.79      74.19      1.457
  114.0      10.79      75.30      1.164
  114.0      10.79      74.97      1.164
  114.0      10.79      76.09      1.164
  126.2      10.72      107.6      1.995
  126.2      10.72      106.4      1.420
  126.2      10.72      104.9      1.710
  126.2      10.72      106.5      1.710
  126.2      10.73      106.7      1.990
  126.2      10.73      105.8      1.710
  126.2      10.73      106.8      1.715
  126.2      10.73      104.5      1.710
  126.2      10.73      107.0      1.995
  126.2      10.74      105.8      1.995
  126.2      10.74      105.7      2.000
  126.2      10.74      103.3      1.990
  126.2      10.74      102.4      1.710
  126.2      10.74      102.3      1.705
  126.2      10.75      97.93      1.995
  126.2      10.75      98.42      1.420
  126.2      10.75      96.35      1.710
  126.2      10.75      90.56      2.280
  126.2      10.75      87.63      1.710
  126.2      10.76      81.29      2.280
  126.2      10.76      80.06      2.280
  126.2      10.76      86.26      2.280
  126.2      10.76      67.65      2.556
  126.2      10.76      51.30      2.850
  126.2      10.77      39.83      1.705
  126.2      10.77      28.63      2.570
  126.2      10.77      19.14      1.710
  126.2      10.77      16.14      1.710
  126.2      10.77      15.66      1.135
  126.2      10.78      19.19      1.425
  126.2      10.78      24.53      1.710
  126.2      10.78      39.47      1.995
  126.2      10.78      45.37      1.710
  126.2      10.78      31.85      1.715
  126.2      10.79      53.28      1.710
  126.2      10.79      58.05      1.425
  126.2      10.79      63.09      1.425
  126.2      10.79      68.71      1.425
  126.2      10.79      73.19      1.995
  126.2      10.80      74.54      1.710
  126.2      10.80      77.02      1.425
  126.2      10.80      79.22      1.420
  126.2      10.80      84.56      1.710
  126.2      10.80      84.48      1.140
  126.2      10.81      86.96      1.995
  126.2      10.81      85.46      1.710
  126.2      10.81      87.37      1.430
  126.2      10.81      91.57      1.710
  150.8      10.72      2.753     0.5496
  150.8      10.72      3.990     0.5207
  150.8      10.72      3.403     0.5790
  150.8      10.72      2.730     0.6075
  150.8      10.73      3.533     0.5496
  150.8      10.73      3.843     0.5785
  150.8      10.73      4.067     0.5785
  150.8      10.73      3.075     0.5207
  150.8      10.73      4.485     0.5496
  150.8      10.74      4.072     0.6075
  150.8      10.74      4.904     0.5785
  150.8      10.74      5.214     0.6075
  150.8      10.74      5.756     0.5785
  150.8      10.74      4.447     0.5496
  150.8      10.75      5.799     0.5785
  150.8      10.75      4.778     0.4918
  150.8      10.75      6.160     0.6075
  150.8      10.75      5.805     0.5501
  150.8      10.75      5.652     0.5211
  150.8      10.76      5.500     0.5496
  150.8      10.76      7.488     0.5785
  150.8      10.76      16.91     0.6943
  150.8      10.76      13.49     0.6938
  150.8      10.76      12.18     0.6075
  150.8      10.77      9.599     0.6369
  150.8      10.77      8.665     0.6364
  150.8      10.77      6.487     0.5496
  150.8      10.77      5.554     0.5501
  150.8      10.77      5.343     0.5790
  150.8      10.78      4.496     0.4918
  150.8      10.78      4.489     0.4913
  150.8      10.78      3.381     0.4918
  150.8      10.78      3.576     0.5207
  150.8      10.78      2.410     0.4633
  150.8      10.79      3.416     0.4918
  150.8      10.79      3.408     0.4918
  150.8      10.79      3.834     0.4628
  150.8      10.79      3.624     0.4918
  150.8      10.79      4.571     0.5202
  150.8      10.80      3.723     0.4918
  150.8      10.80      3.600     0.4918
  150.8      10.80      5.184     0.5207
  150.8      10.80      5.031     0.4918
  150.8      10.80      3.953     0.5211
  150.8      10.81      5.045     0.4628
  150.8      10.81      6.397     0.5501
  150.8      10.81      4.827     0.4918
  150.8      10.81      4.848     0.5785
  161.7      10.72      67.24      1.484
  161.7      10.72      69.61      1.598
  161.7      10.72      67.19      1.482
  161.7      10.72      66.02      1.482
  161.7      10.73      65.77      1.481
  161.7      10.73      67.11      1.254
  161.7      10.73      66.85      1.254
  161.7      10.73      65.69      1.256
  161.7      10.73      62.47      1.254
  161.7      10.74      65.07      1.368
  161.7      10.74      62.53      1.140
  161.7      10.74      59.99      1.368
  161.7      10.74      57.68      1.142
  161.7      10.74      56.17      1.253
  161.7      10.75      52.84      1.368
  161.7      10.75      53.73      1.368
  161.7      10.75      48.57      1.256
  161.7      10.75      44.32      1.367
  161.7      10.75      43.16      1.139
  161.7      10.76      40.16      1.140
  161.7      10.76      31.13      1.025
  161.7      10.76      26.20      1.140
  161.7      10.76      17.73      1.140
  161.7      10.76      12.46      1.140
  161.7      10.77      7.073      1.025
  161.7      10.77      4.198     0.6857
  161.7      10.77      3.712     0.6841
  161.7      10.77      4.830     0.9122
  161.7      10.77      10.27     0.9122
  161.7      10.78      16.51      1.026
  161.7      10.78      23.10      1.028
  161.7      10.78      30.72      1.140
  161.7      10.78      35.26      1.140
  161.7      10.78      37.74      1.142
  161.7      10.79      47.06      1.139
  161.7      10.79      47.72      1.140
  161.7      10.79      50.32      1.254
  161.7      10.79      52.91      1.368
  161.7      10.79      53.80      1.140
  161.7      10.80      55.02      1.253
  161.7      10.80      53.17      1.254
  161.7      10.80      56.23      1.139
  161.7      10.80      58.36      1.253
  161.7      10.80      54.00      1.482
  161.7      10.81      57.29      1.368
  161.7      10.81      57.83      1.253
  161.7      10.81      54.95      1.140
  161.7      10.81      55.72      1.256
  178.1      10.72      252.8      2.604
  178.1      10.72      250.1      3.471
  178.1      10.72      254.4      2.604
  178.1      10.72      242.5      3.044
  178.1      10.73      242.0      3.471
  178.1      10.73      236.6      2.610
  178.1      10.73      232.2      2.604
  178.1      10.73      226.9      2.610
  178.1      10.73      220.3      3.044
  178.1      10.74      209.3      2.610
  178.1      10.74      206.6      3.471
  178.1      10.74      195.6      3.031
  178.1      10.74      190.7      2.604
  178.1      10.74      181.0      2.604
  178.1      10.75      171.4      3.465
  178.1      10.75      161.7      2.590
  178.1      10.75      146.0      3.465
  178.1      10.75      135.0      3.037
  178.1      10.75      117.1      2.597
  178.1      10.76      103.1      2.604
  178.1      10.76      94.29      2.604
  178.1      10.76      65.98      2.176
  178.1      10.76      33.73      2.170
  178.1      10.76      18.01      3.031
  178.1      10.77      9.229      2.170
  178.1      10.77      10.41      1.736
  178.1      10.77      24.16      2.604
  178.1      10.77      48.37      3.471
  178.1      10.77      82.96      3.471
  178.1      10.78      118.9      3.912
  178.1      10.78      153.9      4.339
  178.1      10.78      182.0      3.051
  178.1      10.78      207.5      4.346
  178.1      10.78      222.6      3.905
  178.1      10.79      238.5      3.465
  178.1      10.79      250.1      3.037
  178.1      10.79      259.1      3.471
  178.1      10.79      266.4      3.038
  178.1      10.79      265.4      3.037
  178.1      10.80      270.5      3.038
  178.1      10.80      266.9      2.170
  178.1      10.80      267.2      2.604
  178.1      10.80      268.0      2.604
  178.1      10.80      270.0      3.037
  178.1      10.81      268.2      3.037
  178.1      10.81      261.1      3.038
  178.1      10.81      265.8      2.604
  178.1      10.81      257.8      2.604
ENDDATA            242
ENDSUBENT          257
ENDENTRY             6
