ENTRY            T0246   20040721   20050610                  T018
SUBENT        T0246001   20040721   20050610                  T018
BIB                  7          9
INSTITUTE  (1USAFSU)
REFERENCE  (J,PR,160,791,196708)
AUTHOR     (M.K.Mehta,W.E.Hunt,R.H.Davis)
TITLE      Scattering of Alpha Particles by Oxygen.II. Bombarding
            Energy Range 10 to 19 MeV
FACILITY   (VDGT,1USAFSU)
INC-SOURCE Alpha-particle beam (5-12 nA) of continuosly variable
            energy.
HISTORY    (20040721C)
ENDBIB               9
NOCOMMON             0          0
ENDSUBENT           12
SUBENT        T0246002   20040721   20050610                  T018
BIB                  7         24
REACTION   (8-O-16(A,EL)8-O-16,,DA)
SAMPLE     Oxygen targets prepared by vacuum deposition of thin
            layers of lithium metal onto thin carbon backings with
            subsequent oxidation of the lithium to form LiOH.
METHOD     (BCINT) Beam collected in a well-insulated Faraday cup.
           (PHD)
           Unresolved yield due to contaminants such as nitrogen
            and fluorine, estimated by comparing back-angle pulse-
            height distributions with those for thin quartz (SiO2)
            targets. No impurities with mass number ~16 detected.
DETECTOR   (SIBAR) Eight p-type silicon-junction detectors
            operated simultaneously.
           Each detector had a resolution on the order of 150 keV.
MONITOR    90-degree analyzing magnet calibrated using threshold
            mesurement of 13C(p,n)13N reaction with an asumed
            threshold energy of 3.237 MeV.
ERR-ANALYS (DATA-ERR) Estimated error 12%, except where cross
            section is <5 mb/sr, low counting rates resulted in
            large statistical errors.
           (EN-ERR-DIG) Digitizing error in energy.
           (ERR-DIG)    Digitizing error in data.
           Maximum calibration error not greater than +-20 KeV.
STATUS     (CURVE) Scanned from Figs.1,2 in article at
             RFNC-VNIIEF.
ENDBIB              24
COMMON               2          3
EN-ERR-DIG ERR-DIG
MEV        MB/SR
  0.05       3.
ENDCOMMON            3
DATA                 4       1709
ANG-CM     EN         DATA-CM    DATA-ERR
ADEG       MEV        MB/SR      PER-CENT
 90.0        9.91      93.        12.
 90.0        9.93      78.        12.
 90.0        9.97      65.        12.
 90.0       10.01      82.        12.
 90.0       10.02      66.        12.
 90.0       10.04      40.        12.
 90.0       10.08      24.        12.
 90.0       10.09      14.        12.
 90.0       10.11      23.        12.
 90.0       10.12      35.        12.
 90.0       10.14      44.        12.
 90.0       10.18      54.        12.
 90.0       10.20      59.        12.
 90.0       10.22      71.        12.
 90.0       10.25      78.        12.
 90.0       10.28      74.        12.
 90.0       10.29      78.        12.
 90.0       10.32      85.        12.
 90.0       10.33      65.        12.
 90.0       10.36      31.        12.
 90.0       10.39      24.        12.
 90.0       10.42      33.        12.
 90.0       10.45      34.        12.
 90.0       10.49      20.        12.
 90.0       10.53      23.        12.
 90.0       10.54      20.        12.
 90.0       10.58      13.        12.
 90.0       10.63       9.        12.
 90.0       10.68      12.        12.
 90.0       10.69      18.        12.
 90.0       10.75      19.        12.
 90.0       10.80      27.        12.
 90.0       10.83      20.        12.
 90.0       10.87      19.        12.
 90.0       10.89      15.        12.
 90.0       10.91      11.        12.
 90.0       10.94      24.        12.
 90.0       10.96      31.        12.
 90.0       10.97      38.        12.
 90.0       11.02      40.        12.
 90.0       11.05      41.        12.
 90.0       11.07      44.        12.
 90.0       11.10      45.        12.
 90.0       11.15      50.        12.
 90.0       11.20      29.        12.
 90.0       11.27       6.        12.
 90.0       11.32       3.
 90.0       11.37       1.
 90.0       11.49       0.
 90.0       11.54       1.
 90.0       11.59       2.
 90.0       11.69       4.
 90.0       11.75      26.        12.
 90.0       11.80      54.        12.
 90.0       11.84      65.        12.
 90.0       11.90      45.        12.
 90.0       11.95      41.        12.
 90.0       11.95      49.        12.
 90.0       12.01      36.        12.
 90.0       12.06      11.        12.
 90.0       12.13       5.        12.
 90.0       12.17       8.        12.
 90.0       12.21       8.        12.
 90.0       12.21      14.        12.
 90.0       12.26      21.        12.
 90.0       12.30      21.        12.
 90.0       12.34      23.        12.
 90.0       12.39      25.        12.
 90.0       12.45      20.        12.
 90.0       12.50      32.        12.
 90.0       12.55      30.        12.
 90.0       12.60      30.        12.
 90.0       12.65      27.        12.
 90.0       12.68      29.        12.
 90.0       12.71      22.        12.
 90.0       12.75      16.        12.
 90.0       12.80      16.        12.
 90.0       12.83      13.        12.
 90.0       12.87       5.        12.
 90.0       12.92       3.
 90.0       12.98       8.        12.
 90.0       13.04      22.        12.
 90.0       13.09      20.        12.
 90.0       13.14      25.        12.
 90.0       13.19      34.        12.
 90.0       13.24      36.        12.
 90.0       13.31      29.        12.
 90.0       13.35      15.        12.
 90.0       13.41       9.        12.
 90.0       13.45       6.        12.
 90.0       13.51       8.        12.
 90.0       13.56      10.        12.
 90.0       13.59       6.        12.
 90.0       13.65       9.        12.
 90.0       13.67       4.
 90.0       13.72       7.        12.
 90.0       13.78      10.        12.
 90.0       13.84      19.        12.
 90.0       13.89      20.        12.
 90.0       13.95      25.        12.
 90.0       14.00      47.        12.
 90.0       14.04      38.        12.
 90.0       14.09      20.        12.
 90.0       14.15       5.        12.
 90.0       14.19      17.        12.
 90.0       14.20      30.        12.
 90.0       14.20      35.        12.
 90.0       14.25      38.        12.
 90.0       14.31      17.        12.
 90.0       14.36       3.
 90.0       14.41       2.
 90.0       14.47       2.
 90.0       14.53       2.
 90.0       14.58       2.
 90.0       14.63       6.        12.
 90.0       14.68      10.        12.
 90.0       14.75       4.
 90.0       14.82       1.
 90.0       14.89       2.
 90.0       14.93       3.
 90.0       14.99       2.
 90.0       15.07       3.
 90.0       15.11       6.        12.
 90.0       15.16       2.
 90.0       15.23       6.        12.
 90.0       15.27      12.        12.
 90.0       15.32      15.        12.
 90.0       15.37      23.        12.
 90.0       15.43      34.        12.
 90.0       15.47      44.        12.
 90.0       15.48      49.        12.
 90.0       15.52      59.        12.
 90.0       15.58      62.        12.
 90.0       15.64      53.        12.
 90.0       15.69      58.        12.
 90.0       15.75      56.        12.
 90.0       15.80      45.        12.
 90.0       15.85      33.        12.
 90.0       15.91      20.        12.
 90.0       15.96      19.        12.
 90.0       16.00      15.        12.
 90.0       16.03      11.        12.
 90.0       16.08       9.        12.
 90.0       16.12      13.        12.
 90.0       16.19      28.        12.
 90.0       16.24      42.        12.
 90.0       16.28      35.        12.
 90.0       16.34      31.        12.
 90.0       16.39      31.        12.
 90.0       16.43      60.        12.
 90.0       16.49      63.        12.
 90.0       16.55      68.        12.
 90.0       16.58      59.        12.
 90.0       16.65      63.        12.
 90.0       16.71      62.        12.
 90.0       16.77      54.        12.
 90.0       16.82      43.        12.
 90.0       16.88      49.        12.
 90.0       16.92      41.        12.
 90.0       16.96      47.        12.
 90.0       17.00      40.        12.
 90.0       17.02      44.        12.
 90.0       17.06      42.        12.
 90.0       17.08      48.        12.
 90.0       17.10      35.        12.
 90.0       17.13      39.        12.
 90.0       17.18      40.        12.
 90.0       17.23      40.        12.
 90.0       17.27      37.        12.
 90.0       17.33      28.        12.
 90.0       17.38      19.        12.
 90.0       17.44      11.        12.
 90.0       17.50       7.        12.
 90.0       17.56       6.        12.
 90.0       17.61      24.        12.
 90.0       17.64      19.        12.
 90.0       17.71      23.        12.
 90.0       17.76      23.        12.
 90.0       17.76      28.        12.
 90.0       17.80      26.        12.
 90.0       17.86      25.        12.
 90.0       17.92      26.        12.
 90.0       17.98      26.        12.
 90.0       18.02      25.        12.
 90.0       18.08      15.        12.
 90.0       18.12      11.        12.
 90.0       18.16       7.        12.
 90.0       18.22       7.        12.
 90.0       18.28      17.        12.
 90.0       18.33      24.        12.
 90.0       18.38      26.        12.
 90.0       18.43      20.        12.
 90.0       18.48      17.        12.
 90.0       18.53      16.        12.
 90.0       18.58      17.        12.
 90.0       18.63      21.        12.
 90.0       18.69      16.        12.
 90.0       18.74      11.        12.
 90.0       18.80      12.        12.
 90.0       18.84      13.        12.
 90.0       18.89      13.        12.
 90.0       18.94      14.        12.
 90.0       18.99      13.        12.
 90.0       19.03      11.        12.
 90.0       19.06      12.        12.
122.6        9.91      88.        12.
122.6        9.92      95.        12.
122.6        9.93      85.        12.
122.6        9.94      70.        12.
122.6        9.95      76.        12.
122.6        9.99      86.        12.
122.6       10.02      91.        12.
122.6       10.03     101.        12.
122.6       10.06     104.        12.
122.6       10.09      96.        12.
122.6       10.12      99.        12.
122.6       10.16      77.        12.
122.6       10.18      68.        12.
122.6       10.22      88.        12.
122.6       10.23     107.        12.
122.6       10.29     107.        12.
122.6       10.35     106.        12.
122.6       10.38     109.        12.
122.6       10.42     119.        12.
122.6       10.45     114.        12.
122.6       10.46      86.        12.
122.6       10.49      76.        12.
122.6       10.52      96.        12.
122.6       10.55      93.        12.
122.6       10.59      74.        12.
122.6       10.61      52.        12.
122.6       10.64      52.        12.
122.6       10.66      64.        12.
122.6       10.69      92.        12.
122.6       10.70      97.        12.
122.6       10.72     102.        12.
122.6       10.74      97.        12.
122.6       10.77      61.        12.
122.6       10.80      51.        12.
122.6       10.85      52.        12.
122.6       10.85      56.        12.
122.6       10.88      63.        12.
122.6       10.92      53.        12.
122.6       10.94      32.        12.
122.6       10.95      38.        12.
122.6       10.97      41.        12.
122.6       10.99      52.        12.
122.6       11.01      66.        12.
122.6       11.04      74.        12.
122.6       11.08      72.        12.
122.6       11.11      60.        12.
122.6       11.16      55.        12.
122.6       11.20      42.        12.
122.6       11.21      46.        12.
122.6       11.26      57.        12.
122.6       11.31      62.        12.
122.6       11.36      64.        12.
122.6       11.43      62.        12.
122.6       11.47      43.        12.
122.6       11.52      27.        12.
122.6       11.58      15.        12.
122.6       11.64      11.        12.
122.6       11.68      14.        12.
122.6       11.73      27.        12.
122.6       11.75      23.        12.
122.6       11.79      10.        12.
122.6       11.85       6.        12.
122.6       11.90       3.
122.6       11.95       5.        12.
122.6       11.97       3.
122.6       12.02       8.        12.
122.6       12.07      13.        12.
122.6       12.13      24.        12.
122.6       12.18      40.        12.
122.6       12.19      52.        12.
122.6       12.22      69.        12.
122.6       12.25      75.        12.
122.6       12.27      73.        12.
122.6       12.29      76.        12.
122.6       12.33      67.        12.
122.6       12.38      64.        12.
122.6       12.39      58.        12.
122.6       12.44      57.        12.
122.6       12.44      50.        12.
122.6       12.49      46.        12.
122.6       12.56      47.        12.
122.6       12.61      49.        12.
122.6       12.68      49.        12.
122.6       12.70      53.        12.
122.6       12.73      36.        12.
122.6       12.76      30.        12.
122.6       12.78      25.        12.
122.6       12.81      16.        12.
122.6       12.86      11.        12.
122.6       12.90      18.        12.
122.6       12.93      15.        12.
122.6       12.93      20.        12.
122.6       12.99      21.        12.
122.6       13.03      57.        12.
122.6       13.08      73.        12.
122.6       13.13      75.        12.
122.6       13.18      72.        12.
122.6       13.24      65.        12.
122.6       13.30      56.        12.
122.6       13.36      53.        12.
122.6       13.40      58.        12.
122.6       13.45      78.        12.
122.6       13.48      98.        12.
122.6       13.50     116.        12.
122.6       13.52     126.        12.
122.6       13.56     182.        12.
122.6       13.58     167.        12.
122.6       13.60     188.        12.
122.6       13.63     176.        12.
122.6       13.66     174.        12.
122.6       13.68     183.        12.
122.6       13.72     190.        12.
122.6       13.77     182.        12.
122.6       13.82     170.        12.
122.6       13.88     136.        12.
122.6       13.94      89.        12.
122.6       13.99      68.        12.
122.6       14.05      25.        12.
122.6       14.09      12.        12.
122.6       14.15      32.        12.
122.6       14.17      40.        12.
122.6       14.20      24.        12.
122.6       14.22      15.        12.
122.6       14.26       6.        12.
122.6       14.32       9.        12.
122.6       14.37      19.        12.
122.6       14.44      21.        12.
122.6       14.48      23.        12.
122.6       14.54      24.        12.
122.6       14.59      20.        12.
122.6       14.64      19.        12.
122.6       14.69       9.        12.
122.6       14.77       7.        12.
122.6       14.83       6.        12.
122.6       14.93       5.        12.
122.6       15.00       5.        12.
122.6       15.09       4.
122.6       15.11       7.        12.
122.6       15.16       7.        12.
122.6       15.22      24.        12.
122.6       15.27      54.        12.
122.6       15.33      41.        12.
122.6       15.39      45.        12.
122.6       15.44      42.        12.
122.6       15.48      52.        12.
122.6       15.48      56.        12.
122.6       15.53      59.        12.
122.6       15.60      47.        12.
122.6       15.64      45.        12.
122.6       15.69      40.        12.
122.6       15.75      34.        12.
122.6       15.80      28.        12.
122.6       15.85      24.        12.
122.6       15.90      30.        12.
122.6       15.97      32.        12.
122.6       16.01      45.        12.
122.6       16.05      46.        12.
122.6       16.12      50.        12.
122.6       16.16      49.        12.
122.6       16.21      54.        12.
122.6       16.28      45.        12.
122.6       16.33      25.        12.
122.6       16.39      34.        12.
122.6       16.43      50.        12.
122.6       16.48      59.        12.
122.6       16.53      59.        12.
122.6       16.59      52.        12.
122.6       16.64      47.        12.
122.6       16.69      42.        12.
122.6       16.73      35.        12.
122.6       16.81      35.        12.
122.6       16.85      41.        12.
122.6       16.92      43.        12.
122.6       16.96      45.        12.
122.6       17.01      51.        12.
122.6       17.06      29.        12.
122.6       17.12      41.        12.
122.6       17.17      40.        12.
122.6       17.23      47.        12.
122.6       17.27      51.        12.
122.6       17.33      42.        12.
122.6       17.38      39.        12.
122.6       17.43      37.        12.
122.6       17.49      25.        12.
122.6       17.54      20.        12.
122.6       17.59      14.        12.
122.6       17.64      16.        12.
122.6       17.70      11.        12.
122.6       17.75       8.        12.
122.6       17.88       6.        12.
122.6       17.91       8.        12.
122.6       17.97      10.        12.
122.6       18.01      13.        12.
122.6       18.06      18.        12.
122.6       18.11      28.        12.
122.6       18.17      23.        12.
122.6       18.21      21.        12.
122.6       18.27      20.        12.
122.6       18.32      19.        12.
122.6       18.37      21.        12.
122.6       18.43      25.        12.
122.6       18.47      19.        12.
122.6       18.48      28.        12.
122.6       18.52      20.        12.
122.6       18.58      15.        12.
122.6       18.63      11.        12.
122.6       18.69      15.        12.
122.6       18.74      23.        12.
122.6       18.79      24.        12.
122.6       18.84      28.        12.
122.6       18.90      34.        12.
122.6       18.95      32.        12.
122.6       18.98      36.        12.
122.6       19.00      29.        12.
122.6       19.05      30.        12.
125.3        9.91      80.        12.
125.3        9.91      90.        12.
125.3        9.92      71.        12.
125.3        9.95      73.        12.
125.3        9.98      94.        12.
125.3       10.01      89.        12.
125.3       10.04      92.        12.
125.3       10.06      83.        12.
125.3       10.07      76.        12.
125.3       10.10      80.        12.
125.3       10.13      83.        12.
125.3       10.15      61.        12.
125.3       10.17      48.        12.
125.3       10.22      60.        12.
125.3       10.24      67.        12.
125.3       10.25      76.        12.
125.3       10.30      75.        12.
125.3       10.33      78.        12.
125.3       10.37      88.        12.
125.3       10.40      86.        12.
125.3       10.44      87.        12.
125.3       10.47      65.        12.
125.3       10.51      51.        12.
125.3       10.53      75.        12.
125.3       10.57      74.        12.
125.3       10.59      56.        12.
125.3       10.61      34.        12.
125.3       10.65      30.        12.
125.3       10.66      49.        12.
125.3       10.67      72.        12.
125.3       10.69      77.        12.
125.3       10.73      93.        12.
125.3       10.77      58.        12.
125.3       10.79      42.        12.
125.3       10.83      46.        12.
125.3       10.85      59.        12.
125.3       10.89      57.        12.
125.3       10.92      46.        12.
125.3       10.93      29.        12.
125.3       10.95      37.        12.
125.3       10.99      42.        12.
125.3       11.02      52.        12.
125.3       11.05      65.        12.
125.3       11.06      62.        12.
125.3       11.10      56.        12.
125.3       11.15      47.        12.
125.3       11.15      55.        12.
125.3       11.22      37.        12.
125.3       11.27      55.        12.
125.3       11.31      61.        12.
125.3       11.37      65.        12.
125.3       11.42      56.        12.
125.3       11.48      52.        12.
125.3       11.53      39.        12.
125.3       11.59      27.        12.
125.3       11.64      17.        12.
125.3       11.70      22.        12.
125.3       11.74      35.        12.
125.3       11.74      41.        12.
125.3       11.79      15.        12.
125.3       11.85       4.
125.3       11.89       2.
125.3       11.96       3.
125.3       12.01       4.
125.3       12.06      11.        12.
125.3       12.12      20.        12.
125.3       12.16      43.        12.
125.3       12.19      69.        12.
125.3       12.22      64.        12.
125.3       12.25      82.        12.
125.3       12.28      73.        12.
125.3       12.33      65.        12.
125.3       12.38      53.        12.
125.3       12.40      49.        12.
125.3       12.44      42.        12.
125.3       12.44      38.        12.
125.3       12.49      33.        12.
125.3       12.55      36.        12.
125.3       12.59      32.        12.
125.3       12.64      28.        12.
125.3       12.66      26.        12.
125.3       12.68      30.        12.
125.3       12.71      23.        12.
125.3       12.73      19.        12.
125.3       12.76      14.        12.
125.3       12.79      11.        12.
125.3       12.81       8.        12.
125.3       12.85       2.
125.3       12.93       5.        12.
125.3       12.99      17.        12.
125.3       13.03      51.        12.
125.3       13.09      49.        12.
125.3       13.13      53.        12.
125.3       13.18      52.        12.
125.3       13.24      41.        12.
125.3       13.31      31.        12.
125.3       13.35      32.        12.
125.3       13.41      30.        12.
125.3       13.47      45.        12.
125.3       13.50      55.        12.
125.3       13.50      63.        12.
125.3       13.53      87.        12.
125.3       13.57     108.        12.
125.3       13.59     121.        12.
125.3       13.60     136.        12.
125.3       13.64     127.        12.
125.3       13.69     130.        12.
125.3       13.69     147.        12.
125.3       13.72     172.        12.
125.3       13.77     162.        12.
125.3       13.83     159.        12.
125.3       13.87     135.        12.
125.3       13.93      92.        12.
125.3       13.99      85.        12.
125.3       14.03      34.        12.
125.3       14.10      11.        12.
125.3       14.14      21.        12.
125.3       14.18      27.        12.
125.3       14.19      22.        12.
125.3       14.20      19.        12.
125.3       14.26       3.
125.3       14.32      10.        12.
125.3       14.37      26.        12.
125.3       14.41      30.        12.
125.3       14.45      30.        12.
125.3       14.50      27.        12.
125.3       14.56      24.        12.
125.3       14.64      23.        12.
125.3       14.68      11.        12.
125.3       14.73       8.        12.
125.3       14.77       5.        12.
125.3       14.85       4.
125.3       14.96       4.
125.3       15.04       4.
125.3       15.09      10.        12.
125.3       15.14       4.
125.3       15.20      12.        12.
125.3       15.25      45.        12.
125.3       15.32      43.        12.
125.3       15.36      45.        12.
125.3       15.41      48.        12.
125.3       15.48      45.        12.
125.3       15.52      51.        12.
125.3       15.58      48.        12.
125.3       15.63      53.        12.
125.3       15.68      43.        12.
125.3       15.73      38.        12.
125.3       15.78      32.        12.
125.3       15.84      20.        12.
125.3       15.89      18.        12.
125.3       15.95      19.        12.
125.3       16.01      24.        12.
125.3       16.05      28.        12.
125.3       16.10      34.        12.
125.3       16.15      40.        12.
125.3       16.20      43.        12.
125.3       16.25      33.        12.
125.3       16.32      24.        12.
125.3       16.36      45.        12.
125.3       16.41      56.        12.
125.3       16.47      54.        12.
125.3       16.51      60.        12.
125.3       16.57      50.        12.
125.3       16.62      48.        12.
125.3       16.69      44.        12.
125.3       16.73      40.        12.
125.3       16.77      36.        12.
125.3       16.83      35.        12.
125.3       16.84      38.        12.
125.3       16.89      43.        12.
125.3       16.95      41.        12.
125.3       16.99      49.        12.
125.3       17.07      22.        12.
125.3       17.10      30.        12.
125.3       17.16      33.        12.
125.3       17.22      43.        12.
125.3       17.26      45.        12.
125.3       17.32      36.        12.
125.3       17.37      39.        12.
125.3       17.41      25.        12.
125.3       17.46      21.        12.
125.3       17.53      14.        12.
125.3       17.58      11.        12.
125.3       17.63      13.        12.
125.3       17.69      10.        12.
125.3       17.75       5.
125.3       17.79       5.
125.3       17.85       5.
125.3       17.90       8.        12.
125.3       17.94      11.        12.
125.3       17.99      13.        12.
125.3       18.05      19.        12.
125.3       18.09      25.        12.
125.3       18.15      22.        12.
125.3       18.20      21.        12.
125.3       18.25      15.        12.
125.3       18.31      18.        12.
125.3       18.36      15.        12.
125.3       18.42      19.        12.
125.3       18.47      19.        12.
125.3       18.53      14.        12.
125.3       18.57       9.        12.
125.3       18.62       7.        12.
125.3       18.67      10.        12.
125.3       18.72      15.        12.
125.3       18.77      19.        12.
125.3       18.83      22.        12.
125.3       18.88      20.        12.
125.3       18.92      21.        12.
125.3       18.96      25.        12.
125.3       18.98      20.        12.
125.3       19.03      23.        12.
137.9        9.92       7.        12.
137.9        9.96      15.        12.
137.9        9.98      38.        12.
137.9        9.99      56.        12.
137.9       10.02      41.        12.
137.9       10.04      70.        12.
137.9       10.05      57.        12.
137.9       10.06      60.        12.
137.9       10.06      64.        12.
137.9       10.07      74.        12.
137.9       10.09      80.        12.
137.9       10.10      70.        12.
137.9       10.14      75.        12.
137.9       10.15      65.        12.
137.9       10.17      97.        12.
137.9       10.19     126.        12.
137.9       10.23     131.        12.
137.9       10.24     142.        12.
137.9       10.27     143.        12.
137.9       10.31     131.        12.
137.9       10.34     103.        12.
137.9       10.37      86.        12.
137.9       10.40      81.        12.
137.9       10.42     121.        12.
137.9       10.45      95.        12.
137.9       10.48      85.        12.
137.9       10.49      82.        12.
137.9       10.52      98.        12.
137.9       10.55      87.        12.
137.9       10.58      72.        12.
137.9       10.60      55.        12.
137.9       10.63      51.        12.
137.9       10.66      61.        12.
137.9       10.67      65.        12.
137.9       10.72      63.        12.
137.9       10.74      60.        12.
137.9       10.77      51.        12.
137.9       10.81      49.        12.
137.9       10.82      45.        12.
137.9       10.85      54.        12.
137.9       10.89      49.        12.
137.9       10.92      39.        12.
137.9       10.92      35.        12.
137.9       10.96      50.        12.
137.9       10.98      56.        12.
137.9       11.01      61.        12.
137.9       11.05      60.        12.
137.9       11.06      43.        12.
137.9       11.09      39.        12.
137.9       11.09      32.        12.
137.9       11.14      26.        12.
137.9       11.18      23.        12.
137.9       11.22      26.        12.
137.9       11.25      20.        12.
137.9       11.30      14.        12.
137.9       11.36      11.        12.
137.9       11.42      11.        12.
137.9       11.48       4.
137.9       11.53       5.
137.9       11.58       8.        12.
137.9       11.58      12.        12.
137.9       11.63      14.        12.
137.9       11.67      20.        12.
137.9       11.72      48.        12.
137.9       11.73      39.        12.
137.9       11.78      55.        12.
137.9       11.84      18.        12.
137.9       11.90      11.        12.
137.9       11.95       8.        12.
137.9       12.02      10.        12.
137.9       12.06      12.        12.
137.9       12.11      11.        12.
137.9       12.17      12.        12.
137.9       12.20       6.        12.
137.9       12.22      15.        12.
137.9       12.24      17.        12.
137.9       12.28      14.        12.
137.9       12.31       3.
137.9       12.38       4.
137.9       12.40       8.        12.
137.9       12.43      10.        12.
137.9       12.44      14.        12.
137.9       12.48      20.        12.
137.9       12.54      40.        12.
137.9       12.58      53.        12.
137.9       12.60      49.        12.
137.9       12.64      57.        12.
137.9       12.69      60.        12.
137.9       12.71      55.        12.
137.9       12.74      54.        12.
137.9       12.74      50.        12.
137.9       12.77      51.        12.
137.9       12.78      43.        12.
137.9       12.83      39.        12.
137.9       12.83      45.        12.
137.9       12.86      57.        12.
137.9       12.86      62.        12.
137.9       12.87      48.        12.
137.9       12.91     101.        12.
137.9       12.91     113.        12.
137.9       12.96     139.        12.
137.9       13.02      59.        12.
137.9       13.07      16.        12.
137.9       13.13      17.        12.
137.9       13.17      35.        12.
137.9       13.18      32.        12.
137.9       13.22      38.        12.
137.9       13.24      43.        12.
137.9       13.29      40.        12.
137.9       13.35      31.        12.
137.9       13.39      35.        12.
137.9       13.43      40.        12.
137.9       13.47      41.        12.
137.9       13.52      36.        12.
137.9       13.53      31.        12.
137.9       13.59      29.        12.
137.9       13.61      23.        12.
137.9       13.63      16.        12.
137.9       13.66       6.        12.
137.9       13.69       4.
137.9       13.72      13.        12.
137.9       13.76      25.        12.
137.9       13.81      27.        12.
137.9       13.86      22.        12.
137.9       13.92      28.        12.
137.9       13.96      41.        12.
137.9       14.02      58.        12.
137.9       14.07      87.        12.
137.9       14.10      98.        12.
137.9       14.13      73.        12.
137.9       14.15      37.        12.
137.9       14.17      15.        12.
137.9       14.18       9.        12.
137.9       14.25       6.        12.
137.9       14.26      17.        12.
137.9       14.29      32.        12.
137.9       14.33      59.        12.
137.9       14.38      79.        12.
137.9       14.45      86.        12.
137.9       14.50      82.        12.
137.9       14.55      70.        12.
137.9       14.60      56.        12.
137.9       14.66      34.        12.
137.9       14.71      24.        12.
137.9       14.73      16.        12.
137.9       14.76      11.        12.
137.9       14.80       9.        12.
137.9       14.82       4.
137.9       14.88       8.        12.
137.9       14.90      12.        12.
137.9       14.93       8.        12.
137.9       14.97      12.        12.
137.9       15.03      12.        12.
137.9       15.10      34.        12.
137.9       15.13      23.        12.
137.9       15.20      24.        12.
137.9       15.24      26.        12.
137.9       15.30      26.        12.
137.9       15.36      28.        12.
137.9       15.40      21.        12.
137.9       15.46      14.        12.
137.9       15.51      16.        12.
137.9       15.57      10.        12.
137.9       15.62      16.        12.
137.9       15.67      13.        12.
137.9       15.73      16.        12.
137.9       15.78      24.        12.
137.9       15.82      27.        12.
137.9       15.89      18.        12.
137.9       15.94      38.        12.
137.9       15.99      30.        12.
137.9       16.03      24.        12.
137.9       16.04      20.        12.
137.9       16.09      21.        12.
137.9       16.15      15.        12.
137.9       16.20      23.        12.
137.9       16.25      24.        12.
137.9       16.31      31.        12.
137.9       16.35      37.        12.
137.9       16.40      25.        12.
137.9       16.43      13.        12.
137.9       16.46       8.        12.
137.9       16.51       5.
137.9       16.56       7.        12.
137.9       16.58      11.        12.
137.9       16.61      13.        12.
137.9       16.64      10.        12.
137.9       16.68      13.        12.
137.9       16.72      10.        12.
137.9       16.77       8.        12.
137.9       16.84       6.        12.
137.9       16.88       4.
137.9       16.92      11.        12.
137.9       16.96      13.        12.
137.9       16.99      11.        12.
137.9       17.03       9.        12.
137.9       17.06      12.        12.
137.9       17.09      10.        12.
137.9       17.14      11.        12.
137.9       17.20       6.        12.
137.9       17.24       5.
137.9       17.28       5.
137.9       17.36       4.
137.9       17.41       3.
137.9       17.46       4.
137.9       17.50       6.        12.
137.9       17.56       5.
137.9       17.62       4.
137.9       17.66       4.
137.9       17.70       5.
137.9       17.78       4.
137.9       17.83       4.
137.9       17.89       5.
137.9       17.93       4.
137.9       17.97       5.
137.9       18.03      10.        12.
137.9       18.07      15.        12.
137.9       18.13      20.        12.
137.9       18.18      26.        12.
137.9       18.25      15.        12.
137.9       18.29      16.        12.
137.9       18.35      17.        12.
137.9       18.39      13.        12.
137.9       18.44      31.        12.
137.9       18.50      12.        12.
137.9       18.54       9.        12.
137.9       18.59       5.
137.9       18.65       5.
137.9       18.70       6.        12.
137.9       18.75       9.        12.
137.9       18.80       7.        12.
137.9       18.85       8.        12.
137.9       18.92       7.        12.
137.9       19.00       7.        12.
140.8        9.89      10.        12.
140.8        9.92      14.        12.
140.8        9.95      20.        12.
140.8        9.99      32.        12.
140.8       10.00      41.        12.
140.8       10.04      40.        12.
140.8       10.06      44.        12.
140.8       10.09      47.        12.
140.8       10.12      37.        12.
140.8       10.14      26.        12.
140.8       10.16      53.        12.
140.8       10.16      48.        12.
140.8       10.17      86.        12.
140.8       10.21     107.        12.
140.8       10.24     106.        12.
140.8       10.27     100.        12.
140.8       10.28      93.        12.
140.8       10.30      91.        12.
140.8       10.36      55.        12.
140.8       10.38      63.        12.
140.8       10.40      79.        12.
140.8       10.44      77.        12.
140.8       10.45      66.        12.
140.8       10.49      65.        12.
140.8       10.51      74.        12.
140.8       10.54      64.        12.
140.8       10.57      52.        12.
140.8       10.61      41.        12.
140.8       10.68      42.        12.
140.8       10.69      37.        12.
140.8       10.75      41.        12.
140.8       10.78      36.        12.
140.8       10.81      41.        12.
140.8       10.84      37.        12.
140.8       10.86      32.        12.
140.8       10.89      22.        12.
140.8       10.92      25.        12.
140.8       10.93      39.        12.
140.8       10.96      35.        12.
140.8       11.00      44.        12.
140.8       11.03      43.        12.
140.8       11.05      26.        12.
140.8       11.14      19.        12.
140.8       11.18      15.        12.
140.8       11.25       9.        12.
140.8       11.31      11.        12.
140.8       11.35       5.
140.8       11.41       8.        12.
140.8       11.46       5.
140.8       11.52      10.        12.
140.8       11.56      16.        12.
140.8       11.61      20.        12.
140.8       11.66      25.        12.
140.8       11.71      60.        12.
140.8       11.73      64.        12.
140.8       11.77      61.        12.
140.8       11.82      21.        12.
140.8       11.88      10.        12.
140.8       11.93       4.
140.8       11.99       7.        12.
140.8       12.04      12.        12.
140.8       12.09       7.        12.
140.8       12.16       9.        12.
140.8       12.17      12.        12.
140.8       12.20       7.        12.
140.8       12.21      15.        12.
140.8       12.25      15.        12.
140.8       12.30       5.
140.8       12.37       0.
140.8       12.43       2.
140.8       12.47       5.
140.8       12.52      15.        12.
140.8       12.58      28.        12.
140.8       12.62      33.        12.
140.8       12.65      26.        12.
140.8       12.71      32.        12.
140.8       12.77      30.        12.
140.8       12.79      29.        12.
140.8       12.83      32.        12.
140.8       12.85      38.        12.
140.8       12.90      84.        12.
140.8       12.90      66.        12.
140.8       13.00      41.        12.
140.8       13.06       8.        12.
140.8       13.11       2.
140.8       13.16      12.        12.
140.8       13.21      20.        12.
140.8       13.27      14.        12.
140.8       13.34       8.        12.
140.8       13.38      13.        12.
140.8       13.42       8.        12.
140.8       13.48       7.        12.
140.8       13.52       2.
140.8       13.60       0.
140.8       13.64       7.        12.
140.8       13.67      13.        12.
140.8       13.70      29.        12.
140.8       13.74      54.        12.
140.8       13.80      41.        12.
140.8       13.85      49.        12.
140.8       13.90      63.        12.
140.8       13.95      64.        12.
140.8       14.01      80.        12.
140.8       14.06     102.        12.
140.8       14.11      66.        12.
140.8       14.15      27.        12.
140.8       14.17      11.        12.
140.8       14.18       6.        12.
140.8       14.22       5.
140.8       14.28      40.        12.
140.8       14.32      76.        12.
140.8       14.38      88.        12.
140.8       14.43      96.        12.
140.8       14.48     105.        12.
140.8       14.58      67.        12.
140.8       14.65      38.        12.
140.8       14.70      28.        12.
140.8       14.72      20.        12.
140.8       14.74      12.        12.
140.8       14.78       9.        12.
140.8       14.81       5.
140.8       14.81       2.
140.8       14.85       5.
140.8       14.85       7.        12.
140.8       14.88      12.        12.
140.8       14.91      12.        12.
140.8       14.96      11.        12.
140.8       14.97      16.        12.
140.8       15.00      14.        12.
140.8       15.07      31.        12.
140.8       15.11      22.        12.
140.8       15.18      19.        12.
140.8       15.23      19.        12.
140.8       15.28      26.        12.
140.8       15.34      29.        12.
140.8       15.40      27.        12.
140.8       15.43      21.        12.
140.8       15.43      16.        12.
140.8       15.46       8.        12.
140.8       15.51       9.        12.
140.8       15.55      10.        12.
140.8       15.59      17.        12.
140.8       15.65      20.        12.
140.8       15.70      24.        12.
140.8       15.76      32.        12.
140.8       15.82      37.        12.
140.8       15.86      20.        12.
140.8       15.93      25.        12.
140.8       15.96      12.        12.
140.8       15.99       7.        12.
140.8       16.02       6.        12.
140.8       16.08       2.
140.8       16.12       3.
140.8       16.18       7.        12.
140.8       16.23       9.        12.
140.8       16.30      24.        12.
140.8       16.35      38.        12.
140.8       16.39      33.        12.
140.8       16.45      10.        12.
140.8       16.49       5.
140.8       16.56       8.        12.
140.8       16.60      14.        12.
140.8       16.65      20.        12.
140.8       16.72      17.        12.
140.8       16.75      10.        12.
140.8       16.80       7.        12.
140.8       16.81      11.        12.
140.8       16.87       1.
140.8       16.92      11.        12.
140.8       16.97      11.        12.
140.8       17.02       5.
140.8       17.07       4.
140.8       17.14       3.
140.8       17.18       3.
140.8       17.23       3.
140.8       17.28       2.
140.8       17.34       2.
140.8       17.39       3.
140.8       17.44       4.
140.8       17.50       4.
140.8       17.55       5.
140.8       17.60       3.
140.8       17.65       4.
140.8       17.70       4.
140.8       17.75       5.
140.8       17.80       4.
140.8       17.83       3.
140.8       17.85       4.
140.8       17.90       2.
140.8       17.96       3.
140.8       18.01       9.        12.
140.8       18.08      20.        12.
140.8       18.13      26.        12.
140.8       18.17      32.        12.
140.8       18.21      26.        12.
140.8       18.28      24.        12.
140.8       18.33      23.        12.
140.8       18.37      24.        12.
140.8       18.43      24.        12.
140.8       18.48      24.        12.
140.8       18.53      16.        12.
140.8       18.58      10.        12.
140.8       18.63      11.        12.
140.8       18.69      14.        12.
140.8       18.74      18.        12.
140.8       18.79      23.        12.
140.8       18.85      38.        12.
140.8       18.90      23.        12.
140.8       18.92      17.        12.
140.8       18.97      19.        12.
140.8       19.01      17.        12.
149.4        9.66      37.        12.
149.4        9.72      36.        12.
149.4        9.75      28.        12.
149.4        9.78      23.        12.
149.4        9.81      19.        12.
149.4        9.84      29.        12.
149.4        9.86      26.        12.
149.4        9.88      20.        12.
149.4        9.92      17.        12.
149.4        9.95      41.        12.
149.4        9.98      32.        12.
149.4       10.02      20.        12.
149.4       10.04      17.        12.
149.4       10.08      14.        12.
149.4       10.11      15.        12.
149.4       10.14      10.        12.
149.4       10.18      19.        12.
149.4       10.24      20.        12.
149.4       10.25      14.        12.
149.4       10.30      11.        12.
149.4       10.35       7.        12.
149.4       10.40      11.        12.
149.4       10.42       6.        12.
149.4       10.48       6.        12.
149.4       10.50      13.        12.
149.4       10.53      15.        12.
149.4       10.56      10.        12.
149.4       10.62       6.        12.
149.4       10.66       7.        12.
149.4       10.70      10.        12.
149.4       10.78      12.        12.
149.4       10.79       7.        12.
149.4       10.84      10.        12.
149.4       10.91      10.        12.
149.4       10.94      10.        12.
149.4       10.97       6.        12.
149.4       11.01      10.        12.
149.4       11.06      21.        12.
149.4       11.11      26.        12.
149.4       11.16      25.        12.
149.4       11.20      32.        12.
149.4       11.26      39.        12.
149.4       11.31      37.        12.
149.4       11.38      23.        12.
149.4       11.43      20.        12.
149.4       11.46      52.        12.
149.4       11.47      58.        12.
149.4       11.52      62.        12.
149.4       11.58      21.        12.
149.4       11.64      11.        12.
149.4       11.69       8.        12.
149.4       11.75      10.        12.
149.4       11.79      24.        12.
149.4       11.85      28.        12.
149.4       11.90      45.        12.
149.4       11.93      49.        12.
149.4       11.94      54.        12.
149.4       11.97      61.        12.
149.4       12.00      71.        12.
149.4       12.05      54.        12.
149.4       12.10      33.        12.
149.4       12.12      29.        12.
149.4       12.17      19.        12.
149.4       12.21      14.        12.
149.4       12.26       9.        12.
149.4       12.35       8.        12.
149.4       12.39      11.        12.
149.4       12.44      12.        12.
149.4       12.49      11.        12.
149.4       12.55       8.        12.
149.4       12.61       9.        12.
149.4       12.65      19.        12.
149.4       12.65      24.        12.
149.4       12.69      58.        12.
149.4       12.73      68.        12.
149.4       12.74      64.        12.
149.4       12.80      37.        12.
149.4       12.86      23.        12.
149.4       12.92      17.        12.
149.4       12.98      13.        12.
149.4       13.02      14.        12.
149.4       13.07      28.        12.
149.4       13.13      23.        12.
149.4       13.17      32.        12.
149.4       13.21      40.        12.
149.4       13.23      54.        12.
149.4       13.26      75.        12.
149.4       13.29      94.        12.
149.4       13.31     111.        12.
149.4       13.33     127.        12.
149.4       13.36     154.        12.
149.4       13.37     186.        12.
149.4       13.38     223.        12.
149.4       13.41     271.        12.
149.4       13.46     283.        12.
149.4       13.53     273.        12.
149.4       13.57     263.        12.
149.4       13.63     233.        12.
149.4       13.69     235.        12.
149.4       13.73     171.        12.
149.4       13.81     143.        12.
149.4       13.85     104.        12.
149.4       13.88      69.        12.
149.4       13.92      43.        12.
149.4       13.92      55.        12.
149.4       13.96      35.        12.
149.4       14.03      81.        12.
149.4       14.08     135.        12.
149.4       14.12     167.        12.
149.4       14.18     154.        12.
149.4       14.23     167.        12.
149.4       14.29     140.        12.
149.4       14.35     111.        12.
149.4       14.40      77.        12.
149.4       14.44      61.        12.
149.4       14.48      51.        12.
149.4       14.50      41.        12.
149.4       14.54      32.        12.
149.4       14.55      26.        12.
149.4       14.60      31.        12.
149.4       14.66      32.        12.
149.4       14.70      38.        12.
149.4       14.73      38.        12.
149.4       14.78      37.        12.
149.4       14.82      53.        12.
149.4       14.88      28.        12.
149.4       14.94      11.        12.
149.4       14.97      49.        12.
149.4       15.02      80.        12.
149.4       15.08      77.        12.
149.4       15.08      83.        12.
149.4       15.14      76.        12.
149.4       15.19      69.        12.
149.4       15.24      59.        12.
149.4       15.25      68.        12.
149.4       15.30      81.        12.
149.4       15.33      88.        12.
149.4       15.40     102.        12.
149.4       15.46     102.        12.
149.4       15.51     100.        12.
149.4       15.55      90.        12.
149.4       15.61      69.        12.
149.4       15.65      64.        12.
149.4       15.72      54.        12.
149.4       15.75      56.        12.
149.4       15.77      53.        12.
149.4       15.82      55.        12.
149.4       15.87      43.        12.
149.4       15.95      37.        12.
149.4       15.98      24.        12.
149.4       16.04      31.        12.
149.4       16.09      75.        12.
149.4       16.14      95.        12.
149.4       16.20      69.        12.
149.4       16.25      49.        12.
149.4       16.31      55.        12.
149.4       16.36      56.        12.
149.4       16.42      60.        12.
149.4       16.47      57.        12.
149.4       16.51      45.        12.
149.4       16.57      41.        12.
149.4       16.62      31.        12.
149.4       16.67      44.        12.
149.4       16.73      48.        12.
149.4       16.78      11.        12.
149.4       16.84      15.        12.
149.4       16.88      20.        12.
149.4       16.94      27.        12.
149.4       16.98      34.        12.
149.4       17.03      34.        12.
149.4       17.08      35.        12.
149.4       17.14      38.        12.
149.4       17.19      33.        12.
149.4       17.25      33.        12.
149.4       17.29      23.        12.
149.4       17.35      35.        12.
149.4       17.40      31.        12.
149.4       17.46      26.        12.
149.4       17.51      23.        12.
149.4       17.58      18.        12.
149.4       17.60      13.        12.
149.4       17.69      12.        12.
149.4       17.74      16.        12.
149.4       17.77      28.        12.
149.4       17.82      55.        12.
149.4       17.88      61.        12.
149.4       17.93      83.        12.
149.4       17.99      81.        12.
149.4       18.03      85.        12.
149.4       18.08     104.        12.
149.4       18.15     119.        12.
149.4       18.20     122.        12.
149.4       18.25     116.        12.
149.4       18.31      90.        12.
149.4       18.36      66.        12.
149.4       18.42      72.        12.
149.4       18.46      90.        12.
149.4       18.53     109.        12.
149.4       18.57     132.        12.
149.4       18.62     146.        12.
149.4       18.67     149.        12.
149.4       18.69     144.        12.
149.4       18.73     144.        12.
149.4       18.77     126.        12.
158.8        9.69      11.        12.
158.8        9.72      25.        12.
158.8        9.73      53.        12.
158.8        9.76     119.        12.
158.8        9.77     187.        12.
158.8        9.78     243.        12.
158.8        9.82     283.        12.
158.8        9.85     236.        12.
158.8        9.89     171.        12.
158.8        9.92     136.        12.
158.8        9.93     214.        12.
158.8        9.93     144.        12.
158.8        9.98     143.        12.
158.8        9.99      80.        12.
158.8       10.04      46.        12.
158.8       10.05      33.        12.
158.8       10.10      32.        12.
158.8       10.10      84.        12.
158.8       10.14     136.        12.
158.8       10.16     128.        12.
158.8       10.18      78.        12.
158.8       10.22      47.        12.
158.8       10.26      22.        12.
158.8       10.27      28.        12.
158.8       10.30      35.        12.
158.8       10.33      37.        12.
158.8       10.34      31.        12.
158.8       10.39      21.        12.
158.8       10.40      44.        12.
158.8       10.40      85.        12.
158.8       10.43      99.        12.
158.8       10.45     107.        12.
158.8       10.47     102.        12.
158.8       10.48      73.        12.
158.8       10.54      35.        12.
158.8       10.55      21.        12.
158.8       10.60      21.        12.
158.8       10.62      26.        12.
158.8       10.64      29.        12.
158.8       10.69      19.        12.
158.8       10.71      13.        12.
158.8       10.75      17.        12.
158.8       10.78      23.        12.
158.8       10.80      39.        12.
158.8       10.84      23.        12.
158.8       10.86      13.        12.
158.8       10.91       7.        12.
158.8       10.95      17.        12.
158.8       10.96      21.        12.
158.8       11.01      33.        12.
158.8       11.05      41.        12.
158.8       11.11      44.        12.
158.8       11.16      56.        12.
158.8       11.20      61.        12.
158.8       11.25      83.        12.
158.8       11.32      82.        12.
158.8       11.36      79.        12.
158.8       11.42      72.        12.
158.8       11.46      40.        12.
158.8       11.47      47.        12.
158.8       11.54      22.        12.
158.8       11.58       9.        12.
158.8       11.64       9.        12.
158.8       11.70       8.        12.
158.8       11.76       6.        12.
158.8       11.80      19.        12.
158.8       11.86      20.        12.
158.8       11.90      21.        12.
158.8       11.93      29.        12.
158.8       11.96      33.        12.
158.8       11.98      29.        12.
158.8       12.02      25.        12.
158.8       12.05      31.        12.
158.8       12.11      33.        12.
158.8       12.17      35.        12.
158.8       12.22      42.        12.
158.8       12.27      44.        12.
158.8       12.32      48.        12.
158.8       12.37      54.        12.
158.8       12.39      52.        12.
158.8       12.42      61.        12.
158.8       12.46      67.        12.
158.8       12.49      71.        12.
158.8       12.52      90.        12.
158.8       12.54      83.        12.
158.8       12.56      67.        12.
158.8       12.59      94.        12.
158.8       12.64     109.        12.
158.8       12.65      96.        12.
158.8       12.69      76.        12.
158.8       12.76      48.        12.
158.8       12.81      37.        12.
158.8       12.86      33.        12.
158.8       12.91      32.        12.
158.8       12.98      26.        12.
158.8       13.03      13.        12.
158.8       13.08      24.        12.
158.8       13.13      28.        12.
158.8       13.17      33.        12.
158.8       13.22      33.        12.
158.8       13.22      44.        12.
158.8       13.26      48.        12.
158.8       13.29      63.        12.
158.8       13.31      58.        12.
158.8       13.33      73.        12.
158.8       13.36      60.        12.
158.8       13.39      68.        12.
158.8       13.44      69.        12.
158.8       13.50      87.        12.
158.8       13.56      89.        12.
158.8       13.59      80.        12.
158.8       13.65      50.        12.
158.8       13.72      44.        12.
158.8       13.77      17.        12.
158.8       13.83      21.        12.
158.8       13.87      71.        12.
158.8       13.91      75.        12.
158.8       13.99      37.        12.
158.8       14.06      16.        12.
158.8       14.10       8.        12.
158.8       14.16       7.        12.
158.8       14.21      11.        12.
158.8       14.26      16.        12.
158.8       14.31      18.        12.
158.8       14.37      21.        12.
158.8       14.43      16.        12.
158.8       14.48      22.        12.
158.8       14.50      20.        12.
158.8       14.53      23.        12.
158.8       14.56      19.        12.
158.8       14.57      15.        12.
158.8       14.60      18.        12.
158.8       14.63       8.        12.
158.8       14.69       8.        12.
158.8       14.72      10.        12.
158.8       14.74      11.        12.
158.8       14.80      12.        12.
158.8       14.85      10.        12.
158.8       14.90       6.        12.
158.8       14.95       8.        12.
158.8       15.00      19.        12.
158.8       15.06      19.        12.
158.8       15.12      20.        12.
158.8       15.16      17.        12.
158.8       15.22      17.        12.
158.8       15.22      23.        12.
158.8       15.26      16.        12.
158.8       15.31      17.        12.
158.8       15.39      26.        12.
158.8       15.44      26.        12.
158.8       15.49      20.        12.
158.8       15.53      18.        12.
158.8       15.60      21.        12.
158.8       15.64      22.        12.
158.8       15.70      37.        12.
158.8       15.75      48.        12.
158.8       15.77      56.        12.
158.8       15.79      66.        12.
158.8       15.86      66.        12.
158.8       15.93      51.        12.
158.8       15.96      36.        12.
158.8       16.01      32.        12.
158.8       16.07      29.        12.
158.8       16.12      17.        12.
158.8       16.17      15.        12.
158.8       16.22      18.        12.
158.8       16.28      19.        12.
158.8       16.33      19.        12.
158.8       16.39      16.        12.
158.8       16.44      10.        12.
158.8       16.49       8.        12.
158.8       16.54       9.        12.
158.8       16.61      11.        12.
158.8       16.65      13.        12.
158.8       16.70      11.        12.
158.8       16.76      17.        12.
158.8       16.80      15.        12.
158.8       16.86      19.        12.
158.8       16.90      16.        12.
158.8       16.95      12.        12.
158.8       17.01      10.        12.
158.8       17.06       8.        12.
158.8       17.10       8.        12.
158.8       17.16       8.        12.
158.8       17.22       9.        12.
158.8       17.29       8.        12.
158.8       17.32       8.        12.
158.8       17.38       9.        12.
158.8       17.43       8.        12.
158.8       17.48       8.        12.
158.8       17.53       9.        12.
158.8       17.59      10.        12.
158.8       17.64      11.        12.
158.8       17.69      10.        12.
158.8       17.75      12.        12.
158.8       17.80      12.        12.
158.8       17.85      14.        12.
158.8       17.90      13.        12.
158.8       17.92      16.        12.
158.8       17.94      19.        12.
158.8       18.01      15.        12.
158.8       18.05      15.        12.
158.8       18.10      14.        12.
158.8       18.15      17.        12.
158.8       18.20      17.        12.
158.8       18.26      12.        12.
158.8       18.31      13.        12.
158.8       18.36      14.        12.
158.8       18.41      16.        12.
158.8       18.47      20.        12.
158.8       18.53      23.        12.
158.8       18.57      24.        12.
158.8       18.63      27.        12.
158.8       18.68      28.        12.
158.8       18.70      25.        12.
158.8       18.73      28.        12.
158.8       18.78      27.        12.
163.8        9.69      58.        12.
163.8        9.71      88.        12.
163.8        9.74     155.        12.
163.8        9.78     274.        12.
163.8        9.79     388.        12.
163.8        9.80     448.        12.
163.8        9.82     475.        12.
163.8        9.86     428.        12.
163.8        9.91     303.        12.
163.8        9.94     249.        12.
163.8        9.96     325.        12.
163.8        9.99     236.        12.
163.8       10.01     152.        12.
163.8       10.04     104.        12.
163.8       10.07      91.        12.
163.8       10.11     185.        12.
163.8       10.15     275.        12.
163.8       10.17     243.        12.
163.8       10.19     157.        12.
163.8       10.20     103.        12.
163.8       10.26      49.        12.
163.8       10.29      57.        12.
163.8       10.29      89.        12.
163.8       10.32     100.        12.
163.8       10.38      71.        12.
163.8       10.40      88.        12.
163.8       10.40      50.        12.
163.8       10.43     170.        12.
163.8       10.46     214.        12.
163.8       10.49     180.        12.
163.8       10.51     137.        12.
163.8       10.54      65.        12.
163.8       10.58      40.        12.
163.8       10.58      55.        12.
163.8       10.62      65.        12.
163.8       10.66      52.        12.
163.8       10.68      33.        12.
163.8       10.71      28.        12.
163.8       10.72      51.        12.
163.8       10.76      46.        12.
163.8       10.77      61.        12.
163.8       10.80      76.        12.
163.8       10.83      34.        12.
163.8       10.85      21.        12.
163.8       10.92      18.        12.
163.8       10.96      28.        12.
163.8       10.96      35.        12.
163.8       11.02      42.        12.
163.8       11.06      49.        12.
163.8       11.10      56.        12.
163.8       11.16      89.        12.
163.8       11.22      74.        12.
163.8       11.26     112.        12.
163.8       11.32     144.        12.
163.8       11.38     191.        12.
163.8       11.43     238.        12.
163.8       11.47     257.        12.
163.8       11.51     244.        12.
163.8       11.53     151.        12.
163.8       11.59      36.        12.
163.8       11.64      20.        12.
163.8       11.70      13.        12.
163.8       11.76       2.
163.8       11.81      10.        12.
163.8       11.86       9.        12.
163.8       11.91       6.        12.
163.8       11.95       5.
163.8       12.01       4.
163.8       12.06      19.        12.
163.8       12.13      39.        12.
163.8       12.14      27.        12.
163.8       12.19      41.        12.
163.8       12.23      57.        12.
163.8       12.28      73.        12.
163.8       12.33      80.        12.
163.8       12.35      88.        12.
163.8       12.39      86.        12.
163.8       12.41      79.        12.
163.8       12.45     101.        12.
163.8       12.47     125.        12.
163.8       12.49     129.        12.
163.8       12.51     141.        12.
163.8       12.55     136.        12.
163.8       12.57     144.        12.
163.8       12.61     191.        12.
163.8       12.64     220.        12.
163.8       12.65     254.        12.
163.8       12.70     281.        12.
163.8       12.76     255.        12.
163.8       12.81      57.        12.
163.8       12.86      25.        12.
163.8       12.92      27.        12.
163.8       12.98      16.        12.
163.8       13.03      51.        12.
163.8       13.07      71.        12.
163.8       13.12      58.        12.
163.8       13.16      28.        12.
163.8       13.21      24.        12.
163.8       13.25      22.        12.
163.8       13.29      27.        12.
163.8       13.31      19.        12.
163.8       13.35      27.        12.
163.8       13.38      73.        12.
163.8       13.39      69.        12.
163.8       13.40      65.        12.
163.8       13.44      73.        12.
163.8       13.45      87.        12.
163.8       13.50      77.        12.
163.8       13.56      17.        12.
163.8       13.57      13.        12.
163.8       13.62      28.        12.
163.8       13.67       8.        12.
163.8       13.73      12.        12.
163.8       13.76      28.        12.
163.8       13.81      57.        12.
163.8       13.82      66.        12.
163.8       13.85      78.        12.
163.8       13.88      77.        12.
163.8       13.94      48.        12.
163.8       13.99      43.        12.
163.8       14.03      52.        12.
163.8       14.08      60.        12.
163.8       14.15      51.        12.
163.8       14.20      45.        12.
163.8       14.25      35.        12.
163.8       14.31      30.        12.
163.8       14.36      24.        12.
163.8       14.43      11.        12.
163.8       14.46       6.        12.
163.8       14.50       6.        12.
163.8       14.52       1.
163.8       14.60       1.
163.8       14.69       1.
163.8       14.78       1.
163.8       14.84       3.
163.8       14.89       1.
163.8       14.98       1.
163.8       15.05       4.
163.8       15.11       4.
163.8       15.15       6.
163.8       15.21       2.
163.8       15.24       0.
163.8       15.31       1.
163.8       15.38       1.
163.8       15.43       2.
163.8       15.48       7.        12.
163.8       15.53      11.        12.
163.8       15.57      21.        12.
163.8       15.65      15.        12.
163.8       15.68      33.        12.
163.8       15.75      23.        12.
163.8       15.77      27.        12.
163.8       15.80      23.        12.
163.8       15.84      13.        12.
163.8       15.89       9.        12.
163.8       15.94       7.        12.
163.8       16.00       9.        12.
163.8       16.06      15.        12.
163.8       16.11      20.        12.
163.8       16.17       5.
163.8       16.21       1.
163.8       16.27       0.
163.8       16.34       1.
163.8       16.38       3.
163.8       16.43       6.        12.
163.8       16.49       9.        12.
163.8       16.53      10.        12.
163.8       16.60       9.        12.
163.8       16.64       2.
163.8       16.69      21.        12.
163.8       16.72      26.        12.
163.8       16.74      23.        12.
163.8       16.78       9.        12.
163.8       16.85       1.
163.8       16.91       1.
163.8       16.95       3.
163.8       17.06      12.        12.
163.8       17.12      15.        12.
163.8       17.17      21.        12.
163.8       17.22      27.        12.
163.8       17.27      22.        12.
163.8       17.33      21.        12.
163.8       17.40      30.        12.
163.8       17.43      28.        12.
163.8       17.50      32.        12.
163.8       17.54      35.        12.
163.8       17.58      24.        12.
163.8       17.66      21.        12.
163.8       17.70      15.        12.
163.8       17.75       7.        12.
163.8       17.79      18.        12.
163.8       17.87      34.        12.
163.8       17.91      42.        12.
163.8       17.96      48.        12.
163.8       18.01      54.        12.
163.8       18.07      48.        12.
163.8       18.13      54.        12.
163.8       18.17      68.        12.
163.8       18.24      60.        12.
163.8       18.27      68.        12.
163.8       18.32      61.        12.
163.8       18.39      45.        12.
163.8       18.43      31.        12.
163.8       18.48      26.        12.
163.8       18.53      29.        12.
163.8       18.58      34.        12.
163.8       18.63      38.        12.
163.8       18.69      40.        12.
163.8       18.71      33.        12.
163.8       18.75      37.        12.
163.8       18.79      27.        12.
ENDDATA           1711
ENDSUBENT         1744
SUBENT        T0246003   20040721   20050610                  T018
BIB                  7         23
REACTION   (8-O-16(A,EL)8-O-16,,DA)
SAMPLE     Oxygen targets prepared by vacuum deposition of thin
            layers of lithium metal onto thin carbon backings with
            subsequent oxidation of the lithium to form LiOH.
METHOD     (BCINT) Beam collected in a well-insulated Faraday cup.
           (PHD)
           Unresolved yield due to contaminants such as nitrogen
            and fluorine, estimated by comparing back-angle pulse-
            height distributions with those for thin quartz (SiO2)
            targets. No impurities with mass number ~16 detected.
DETECTOR   (SIBAR) Eight p-type silicon-junction detectors
            operated simultaneously.
           Each detector had a resolution on the order of 150 keV.
MONITOR    90-degree analyzing magnet calibrated using threshold
            mesurement of 13C(p,n)13N reaction with an asumed
            threshold energy of 3.237 MeV.
ERR-ANALYS (DATA-ERR) Estimated error 12%, except where cross
            section is <5 mb/sr, low counting rates resulted in
            large statistical errors.
           (ANG-ERR-D)  Digitizing error in angle.
           (ERR-DIG)    Digitizing error in data.
           Maximum calibration error not greater than +-20 KeV.
STATUS     (CURVE) Scanned from Fig.4 in article at RFNC-VNIIEF.
ENDBIB              23
COMMON               2          3
ANG-ERR-D  ERR-DIG
ADEG       PER-CENT
  0.3        0.1
ENDCOMMON            3
DATA                 4        391
EN         ANG-CM     DATA-CM    DATA-ERR
MEV        ADEG       MB/SR      PER-CENT
 10.05      35.          2.09E+02 12.
 10.05      38.          1.45E+02 12.
 10.05      42.          9.51E+01 12.
 10.05      51.          2.78E+01 12.
 10.05      52.          7.82E+00 12.
 10.05      58.          2.00E+00
 10.05      59.          2.83E+00
 10.05      59.          4.07E+00
 10.05      61.          8.93E+00 12.
 10.05      63.          1.41E+01 12.
 10.05      66.          2.20E+01 12.
 10.05      70.          2.51E+01 12.
 10.05      73.          2.28E+01 12.
 10.05      73.          2.56E+01 12.
 10.05      76.          2.23E+01 12.
 10.05      77.          2.55E+01 12.
 10.05      86.          1.70E+01 12.
 10.05      88.          1.95E+01 12.
 10.05      89.          1.43E+01 12.
 10.05      91.          1.57E+01 12.
 10.05      96.          1.51E+01 12.
 10.05     102.          1.73E+01 12.
 10.05     108.          2.53E+01 12.
 10.05     108.          2.84E+01 12.
 10.05     114.          3.78E+01 12.
 10.05     119.          5.65E+01 12.
 10.05     126.          6.70E+01 12.
 10.05     130.          5.85E+01 12.
 10.05     135.          3.55E+01 12.
 10.05     138.          3.04E+01 12.
 10.05     141.          1.23E+01 12.
 10.05     142.          7.06E+00 12.
 10.05     146.          1.77E+01 12.
 10.05     146.          2.19E+01 12.
 10.05     150.          4.71E+01 12.
 10.05     152.          8.05E+01 12.
 10.05     155.          1.52E+02 12.
 10.05     159.          2.49E+02 12.
 10.05     165.          3.52E+02 12.
 10.05     169.          5.06E+02 12.
 11.97      22.          1.22E+03 12.
 11.97      29.          3.07E+02 12.
 11.97      32.          6.37E+01 12.
 11.97      35.          1.90E+02 12.
 11.97      39.          2.89E+02 12.
 11.97      43.          3.11E+02 12.
 11.97      43.          3.56E+02 12.
 11.97      47.          2.52E+02 12.
 11.97      49.          1.42E+02 12.
 11.97      50.          1.75E+02 12.
 11.97      51.          8.78E+01 12.
 11.97      52.          1.97E+01 12.
 11.97      54.          2.21E+01 12.
 11.97      56.          3.06E+01 12.
 11.97      58.          1.75E+01 12.
 11.97      61.          6.08E+01 12.
 11.97      64.          7.50E+01 12.
 11.97      68.          7.35E+01 12.
 11.97      74.          4.05E+01 12.
 11.97      74.          7.06E+01 12.
 11.97      78.          1.92E+01 12.
 11.97      80.          3.98E+00
 11.97      83.          7.07E+00 12.
 11.97      87.          2.36E+01 12.
 11.97      89.          2.60E+01 12.
 11.97      94.          3.20E+01 12.
 11.97      97.          2.59E+01 12.
 11.97      99.          2.10E+01 12.
 11.97     102.          2.10E+01 12.
 11.97     105.          2.59E+01 12.
 11.97     105.          3.26E+01 12.
 11.97     107.          3.58E+01 12.
 11.97     109.          5.67E+01 12.
 11.97     111.          6.99E+01 12.
 11.97     114.          8.63E+01 12.
 11.97     120.          8.45E+01 12.
 11.97     123.          7.67E+01 12.
 11.97     125.          6.71E+01 12.
 11.97     128.          4.48E+01 12.
 11.97     131.          2.16E+01 12.
 11.97     132.          1.39E+01 12.
 11.97     136.          9.12E+00 12.
 11.97     139.          1.31E+01 12.
 11.97     141.          2.87E+01 12.
 11.97     143.          4.06E+01 12.
 11.97     147.          5.20E+01 12.
 11.97     147.          5.83E+01 12.
 11.97     150.          6.17E+01 12.
 11.97     153.          3.75E+01 12.
 11.97     155.          2.41E+01 12.
 11.97     158.          1.99E+01 12.
 11.97     160.          5.51E+00 12.
 11.97     162.          6.17E+00 12.
 11.97     167.          9.05E+00 12.
 11.97     169.          1.49E+01 12.
 11.97     170.          1.80E+01 12.
 11.97     172.          2.06E+01 12.
 13.37      17.          7.03E+03 12.
 13.37      21.          1.14E+03 12.
 13.37      25.          2.69E+02 12.
 13.37      25.          3.02E+02 12.
 13.37      28.          1.64E+02 12.
 13.37      28.          1.40E+02 12.
 13.37      31.          2.49E+02 12.
 13.37      32.          2.96E+02 12.
 13.37      35.          2.54E+02 12.
 13.37      36.          2.22E+02 12.
 13.37      38.          1.40E+02 12.
 13.37      39.          1.25E+02 12.
 13.37      43.          5.79E+01 12.
 13.37      46.          1.57E+01 12.
 13.37      50.          1.60E+01 12.
 13.37      50.          9.00E+00 12.
 13.37      53.          4.09E+01 12.
 13.37      57.          5.34E+01 12.
 13.37      60.          4.08E+01 12.
 13.37      63.          4.16E+01 12.
 13.37      64.          3.64E+01 12.
 13.37      64.          3.24E+01 12.
 13.37      66.          2.34E+01 12.
 13.37      70.          9.13E+00 12.
 13.37      73.          2.94E+00
 13.37      76.          3.85E+00
 13.37      80.          2.94E+00
 13.37      84.          4.83E+00
 13.37      87.          1.19E+01 12.
 13.37      90.          2.03E+01 12.
 13.37      94.          2.66E+01 12.
 13.37      97.          3.61E+01 12.
 13.37      98.          2.87E+01 12.
 13.37      98.          3.28E+01 12.
 13.37      98.          2.51E+01 12.
 13.37     100.          1.77E+01 12.
 13.37     103.          1.61E+01 12.
 13.37     105.          1.06E+01 12.
 13.37     105.          5.83E+00 12.
 13.37     107.          1.41E+01 12.
 13.37     109.          2.65E+01 12.
 13.37     111.          4.89E+01 12.
 13.37     115.          9.02E+01 12.
 13.37     117.          1.46E+02 12.
 13.37     121.          1.83E+02 12.
 13.37     123.          1.54E+02 12.
 13.37     126.          1.40E+02 12.
 13.37     129.          8.82E+01 12.
 13.37     132.          4.68E+01 12.
 13.37     134.          2.95E+01 12.
 13.37     135.          1.15E+01 12.
 13.37     140.          1.17E+02 12.
 13.37     140.          5.77E+01 12.
 13.37     144.          1.62E+02 12.
 13.37     146.          2.29E+02 12.
 13.37     148.          2.67E+02 12.
 13.37     150.          2.33E+02 12.
 13.37     153.          1.72E+02 12.
 13.37     155.          1.06E+02 12.
 13.37     158.          5.42E+01 12.
 13.37     161.          5.13E+00 12.
 13.37     162.          1.15E+01 12.
 13.37     164.          1.26E+01 12.
 13.37     165.          9.44E+01 12.
 13.37     165.          2.66E+02 12.
 13.37     168.          5.51E+02 12.
 13.37     171.          8.39E+02 12.
 15.20      20.          1.04E+03 12.
 15.20      25.          2.81E+02 12.
 15.20      29.          5.95E+01 12.
 15.20      30.          7.07E+01 12.
 15.20      33.          4.46E+01 12.
 15.20      34.          3.54E+01 12.
 15.20      36.          6.41E+01 12.
 15.20      39.          7.05E+01 12.
 15.20      43.          3.74E+01 12.
 15.20      43.          5.38E+01 12.
 15.20      49.          2.36E+01 12.
 15.20      51.          1.07E+01 12.
 15.20      55.          1.70E+01 12.
 15.20      58.          2.10E+01 12.
 15.20      61.          2.09E+01 12.
 15.20      65.          8.83E+00 12.
 15.20      68.          8.82E+00 12.
 15.20      72.          1.90E+00
 15.20      76.          1.09E+01 12.
 15.20      77.          2.52E+01 12.
 15.20      81.          3.91E+01 12.
 15.20      85.          4.65E+01 12.
 15.20      88.          5.51E+01 12.
 15.20      92.          5.72E+01 12.
 15.20      95.          4.81E+01 12.
 15.20      99.          2.32E+01 12.
 15.20     100.          1.26E+01 12.
 15.20     101.          1.08E+01 12.
 15.20     102.          2.87E+00
 15.20     105.          3.98E+00
 15.20     106.          1.88E+00
 15.20     110.          3.97E+00
 15.20     113.          1.28E+01 12.
 15.20     115.          2.59E+01 12.
 15.20     117.          4.34E+01 12.
 15.20     122.          3.51E+01 12.
 15.20     122.          4.42E+01 12.
 15.20     127.          3.31E+01 12.
 15.20     129.          2.17E+01 12.
 15.20     131.          6.61E+00 12.
 15.20     134.          4.02E+00
 15.20     136.          1.17E+01 12.
 15.20     140.          2.38E+01 12.
 15.20     143.          4.65E+01 12.
 15.20     145.          5.21E+01 12.
 15.20     148.          6.81E+01 12.
 15.20     151.          7.63E+01 12.
 15.20     153.          6.42E+01 12.
 15.20     156.          5.19E+01 12.
 15.20     157.          4.63E+01 12.
 15.20     160.          1.41E+01 12.
 15.20     163.          2.93E+00
 15.20     166.          2.36E+01 12.
 15.20     169.          4.11E+01 12.
 15.20     172.          1.25E+02 12.
 15.20     174.          2.48E+02 12.
 17.22      28.          2.67E+01 12.
 17.22      28.          1.47E+01 12.
 17.22      31.          3.49E+01 12.
 17.22      31.          1.62E+01 12.
 17.22      36.          6.33E+01 12.
 17.22      41.          4.92E+01 12.
 17.22      43.          2.92E+01 12.
 17.22      48.          6.25E+00 12.
 17.22      50.          2.04E+00
 17.22      53.          3.06E+00
 17.22      54.          8.32E+00 12.
 17.22      58.          1.66E+01 12.
 17.22      61.          1.90E+01 12.
 17.22      69.          1.82E+01 12.
 17.22      72.          1.53E+01 12.
 17.22      74.          9.10E+00 12.
 17.22      77.          3.03E+00
 17.22      81.          2.02E+00
 17.22      84.          3.96E+00
 17.22      88.          7.05E+00 12.
 17.22      91.          1.18E+01 12.
 17.22      94.          1.46E+01 12.
 17.22      98.          1.55E+01 12.
 17.22      99.          1.07E+01 12.
 17.22     101.          1.23E+01 12.
 17.22     102.          5.89E+00 12.
 17.22     106.          2.08E+00
 17.22     107.          9.80E-01
 17.22     112.          3.92E+00
 17.22     116.          9.68E+00 12.
 17.22     118.          1.83E+01 12.
 17.22     120.          2.48E+01 12.
 17.22     123.          2.63E+01 12.
 17.22     123.          2.30E+01 12.
 17.22     129.          1.50E+01 12.
 17.22     131.          6.94E+00 12.
 17.22     132.          2.97E+00
 17.22     135.          1.01E+00
 17.22     139.          3.88E+00
 17.22     140.          1.06E+01 12.
 17.22     142.          1.38E+01 12.
 17.22     145.          2.11E+01 12.
 17.22     147.          2.41E+01 12.
 17.22     151.          2.27E+01 12.
 17.22     151.          1.20E+01 12.
 17.22     154.          4.01E+00
 17.22     156.          9.63E-01
 17.22     159.          7.56E+00 12.
 17.22     161.          2.80E+01 12.
 17.22     161.          5.93E+01 12.
 17.22     163.          9.78E+01 12.
 17.22     166.          1.36E+02 12.
 17.22     166.          1.64E+02 12.
 17.22     168.          2.15E+02 12.
 17.22     170.          2.66E+02 12.
 18.30      18.          2.05E+03 12.
 18.30      21.          1.57E+02 12.
 18.30      29.          1.51E+02 12.
 18.30      32.          2.17E+02 12.
 18.30      37.          1.37E+02 12.
 18.30      40.          7.84E+01 12.
 18.30      43.          3.93E+00
 18.30      44.          7.98E+01 12.
 18.30      52.          5.97E+01 12.
 18.30      55.          1.12E+02 12.
 18.30      58.          1.23E+02 12.
 18.30      61.          1.19E+02 12.
 18.30      64.          7.77E+01 12.
 18.30      65.          5.94E+01 12.
 18.30      68.          3.34E+01 12.
 18.30      71.          1.67E+01 12.
 18.30      74.          1.16E+01 12.
 18.30      77.          1.77E+01 12.
 18.30      78.          2.85E+01 12.
 18.30      82.          3.52E+01 12.
 18.30      86.          3.38E+01 12.
 18.30      89.          2.90E+01 12.
 18.30      90.          1.97E+01 12.
 18.30      92.          1.05E+01 12.
 18.30      94.          3.94E+00
 18.30      96.          1.22E+00
 18.30     100.          1.01E+00
 18.30     103.          2.13E+00
 18.30     107.          3.78E+00
 18.30     107.          1.82E+00
 18.30     111.          1.00E+00
 18.30     117.          1.71E+00
 18.30     118.          7.64E+00 12.
 18.30     121.          1.16E+01 12.
 18.30     122.          1.46E+01 12.
 18.30     127.          1.74E+01 12.
 18.30     128.          1.38E+01 12.
 18.30     133.          4.36E+00
 18.30     134.          1.84E+00
 18.30     136.          4.89E+00
 18.30     137.          1.27E+01 12.
 18.30     141.          3.32E+01 12.
 18.30     142.          5.90E+01 12.
 18.30     144.          9.89E+01 12.
 18.30     145.          1.13E+02 12.
 18.30     148.          1.27E+02 12.
 18.30     151.          1.01E+02 12.
 18.30     154.          5.76E+01 12.
 18.30     155.          8.78E+01 12.
 18.30     157.          1.48E+01 12.
 18.30     157.          4.33E+00
 18.30     160.          9.67E+00 12.
 18.30     162.          3.30E+01 12.
 18.30     163.          1.28E+02 12.
 18.30     163.          2.16E+02 12.
 18.30     166.          3.28E+02 12.
 18.30     168.          4.46E+02 12.
 18.30     171.          4.72E+02 12.
 18.90      17.          2.81E+03 12.
 18.90      22.          6.17E+02 12.
 18.90      25.          1.41E+02 12.
 18.90      30.          1.23E+02 12.
 18.90      33.          1.61E+02 12.
 18.90      38.          9.38E+01 12.
 18.90      40.          2.65E+01 12.
 18.90      44.          1.55E+00
 18.90      44.          1.33E+00
 18.90      48.          1.70E+01 12.
 18.90      48.          2.18E+01 12.
 18.90      52.          4.68E+01 12.
 18.90      56.          6.35E+01 12.
 18.90      60.          6.34E+01 12.
 18.90      60.          5.65E+01 12.
 18.90      62.          4.66E+01 12.
 18.90      66.          3.49E+01 12.
 18.90      68.          2.57E+01 12.
 18.90      73.          2.29E+01 12.
 18.90      76.          2.61E+01 12.
 18.90      78.          3.16E+01 12.
 18.90      81.          3.54E+01 12.
 18.90      84.          3.61E+01 12.
 18.90      89.          2.03E+01 12.
 18.90      93.          8.23E+00 12.
 18.90      97.          2.07E+00
 18.90     102.          3.46E+00
 18.90     104.          3.20E+00
 18.90     104.          5.07E+00 12.
 18.90     106.          4.19E+00
 18.90     108.          3.95E+00
 18.90     109.          2.10E+00
 18.90     112.          1.87E+00
 18.90     115.          3.94E+00
 18.90     119.          1.01E+01 12.
 18.90     121.          2.12E+01 12.
 18.90     123.          2.67E+01 12.
 18.90     125.          3.36E+01 12.
 18.90     125.          2.93E+01 12.
 18.90     130.          2.00E+01 12.
 18.90     131.          8.76E+00 12.
 18.90     137.          8.41E+00 12.
 18.90     138.          2.92E+01 12.
 18.90     143.          6.15E+01 12.
 18.90     144.          1.01E+02 12.
 18.90     146.          1.13E+02 12.
 18.90     149.          1.30E+02 12.
 18.90     150.          1.51E+02 12.
 18.90     152.          1.27E+02 12.
 18.90     154.          6.74E+01 12.
 18.90     156.          3.87E+01 12.
 18.90     159.          4.19E+00
 18.90     159.          2.79E+01 12.
 18.90     161.          1.20E+01 12.
 18.90     164.          7.68E+01 12.
 18.90     166.          1.85E+02 12.
 18.90     166.          3.55E+02 12.
 18.90     170.          5.73E+02 12.
ENDDATA            393
ENDSUBENT          425
SUBENT        T0246004   20040721   20050610                  T018
BIB                  6         14
REACTION   (8-O-16(A,INL)8-O-16,PAR,DA,G)
SAMPLE     Lead oxide target deposited on gold disks.
DETECTOR   (NAICR) 3-in.x 3-in. NaI(Tl) crystal with photo-
            multiplier placed 2 in. from target.
MONITOR    Peak-to-total ratio and efficiency of crystal for
            detection of 6-MeV gamma rays estimated by
            extrapolating known curves for the NaI(Tl) crystal.
            R.L.Heath, Report, IDO-16408 (1957).
           Target thickness determined by measuring the elastic-
            scattering yield from the same target.
ERR-ANALYS (DATA-ERR) Estimated error in absolute cross section.
           (EN-ERR-DIG) Digitizing error in energy.
           (ERR-DIG)    Digitizing error in data.
STATUS     (CURVE) Scanned from Fig.6 in article at RFNC-VNIIEF.
ENDBIB              14
COMMON               6          3
ANG        ANG-RSL    E          DATA-ERR   EN-ERR-DIG ERR-DIG
ADEG       ADEG       MEV        PER-CENT   MEV        MB/SR
 90.        37.         6.13      45.         0.05       0.5
ENDCOMMON            3
DATA                 2        260
EN         DATA
MEV        MB/SR
  9.38       0.7
  9.47       0.7
  9.59       0.9
  9.66       1.2
  9.71       1.2
  9.81       1.2
  9.89       2.0
  9.93       3.7
  9.93       4.8
  9.99       2.3
 10.03       2.9
 10.09       3.7
 10.10       6.2
 10.10       7.0
 10.14       5.6
 10.17       4.3
 10.21      20.0
 10.23      10.7
 10.24      18.1
 10.25      20.7
 10.28       5.3
 10.29       2.6
 10.34       3.3
 10.38       6.0
 10.41       8.1
 10.44       6.6
 10.46       4.0
 10.48       2.3
 10.50       7.9
 10.52      18.0
 10.58      20.5
 10.62      18.5
 10.64      22.8
 10.66      23.8
 10.67      29.4
 10.69      21.5
 10.73      19.6
 10.77      21.6
 10.79      14.6
 10.80      31.9
 10.82      31.2
 10.84      22.4
 10.85      20.6
 10.87      20.1
 10.93      24.7
 10.95      28.4
 10.97      27.5
 11.03      19.5
 11.08      21.7
 11.08      22.5
 11.12      26.8
 11.14      24.8
 11.15      33.7
 11.17      38.4
 11.18      21.6
 11.18      22.2
 11.19      40.2
 11.20      32.6
 11.25      22.3
 11.30      21.8
 11.35      24.4
 11.41      29.4
 11.46      32.7
 11.52      41.5
 11.54      42.4
 11.58      37.5
 11.62      33.4
 11.69      33.4
 11.72      36.2
 11.78      37.8
 11.83      43.3
 11.92      45.6
 11.97      49.4
 12.01      55.8
 12.03      60.5
 12.06      55.1
 12.09      50.3
 12.12      42.2
 12.17      40.7
 12.22      39.1
 12.27      32.7
 12.31      29.9
 12.37      28.8
 12.44      23.8
 12.47      22.3
 12.52      20.7
 12.57      18.7
 12.63      17.0
 12.71      15.5
 12.75      21.5
 12.83      31.5
 12.85      35.6
 12.88      42.1
 12.93      41.3
 12.98      43.4
 13.02      38.9
 13.04      37.8
 13.06      34.7
 13.11      28.6
 13.13      29.4
 13.14      28.0
 13.17      27.3
 13.24      26.7
 13.26      29.1
 13.27      27.3
 13.29      30.2
 13.29      32.6
 13.31      33.7
 13.33      36.2
 13.35      38.0
 13.35      40.9
 13.37      41.4
 13.39      43.4
 13.42      39.4
 13.44      29.7
 13.45      30.3
 13.47      35.6
 13.48      26.3
 13.51      27.3
 13.56      25.6
 13.56      28.9
 13.56      29.7
 13.62      37.8
 13.68      40.3
 13.73      40.8
 13.80      37.1
 13.84      40.5
 13.90      38.3
 13.94      37.6
 13.96      35.5
 13.98      33.1
 14.02      35.0
 14.05      36.9
 14.10      35.2
 14.16      34.5
 14.19      37.5
 14.28      39.8
 14.31      40.5
 14.37      38.0
 14.43      41.6
 14.47      43.0
 14.51      42.1
 14.52      40.8
 14.53      45.3
 14.54      42.8
 14.55      41.8
 14.60      45.5
 14.60      47.1
 14.65      45.9
 14.68      46.5
 14.69      40.4
 14.73      39.1
 14.80      39.8
 14.80      40.9
 14.86      36.9
 14.88      35.0
 14.91      36.1
 14.94      44.7
 14.98      42.2
 15.01      46.8
 15.05      51.7
 15.08      53.0
 15.13      46.4
 15.14      49.5
 15.17      45.7
 15.19      47.6
 15.20      41.6
 15.25      45.7
 15.26      44.8
 15.28      42.1
 15.28      43.6
 15.31      38.8
 15.33      39.6
 15.37      36.6
 15.42      33.8
 15.44      30.6
 15.48      29.8
 15.57      30.1
 15.58      33.9
 15.65      35.3
 15.67      38.0
 15.70      41.0
 15.76      47.0
 15.76      49.1
 15.82      56.2
 15.85      62.2
 15.88      64.0
 15.88      64.7
 15.90      68.8
 15.94      68.1
 15.95      64.4
 15.96      68.9
 16.00      63.9
 16.00      58.7
 16.01      49.0
 16.03      46.5
 16.04      44.0
 16.07      38.2
 16.08      39.3
 16.12      37.3
 16.14      36.6
 16.17      27.2
 16.17      33.4
 16.25      26.5
 16.28      27.7
 16.31      27.1
 16.31      28.2
 16.33      26.5
 16.36      27.2
 16.45      27.0
 16.49      24.6
 16.55      24.0
 16.59      26.2
 16.64      23.8
 16.70      20.4
 16.75      20.6
 16.78      28.1
 16.82      17.1
 16.83      34.0
 16.85      16.0
 16.85      40.0
 16.91      17.4
 16.97      17.7
 17.00      16.4
 17.06      15.8
 17.13      17.3
 17.17      18.2
 17.18      20.2
 17.22      21.7
 17.25      22.8
 17.25      23.6
 17.25      24.2
 17.30      25.3
 17.33      26.9
 17.38      25.3
 17.38      26.3
 17.41      29.1
 17.48      30.2
 17.50      32.8
 17.50      34.2
 17.60      36.1
 17.60      31.5
 17.65      34.3
 17.70      33.6
 17.76      37.8
 17.77      36.1
 17.83      36.8
 17.93      24.8
 17.93      26.4
 17.99      26.0
 18.00      26.7
 18.08      25.3
 18.16      20.7
 18.18      18.4
 18.26      35.3
 18.26      19.6
 18.38      23.6
 18.46      29.9
 18.51      28.8
 18.58      31.7
ENDDATA            262
ENDSUBENT          285
SUBENT        T0246005   20040721   20050610                  T018
BIB                  6         13
REACTION   (8-O-16(A,INL)8-O-16,PAR,DA,G,REL)
SAMPLE     Lead oxide target deposited on gold disks.
DETECTOR   (NAICR) 3-in.x 3-in. NaI(Tl) crystal with photo-
            multiplier placed 2 in. from target.
MONITOR    Peak-to-total ratio and efficiency of crystal for
            detection of 6-MeV gamma rays estimated by
            extrapolating known curves for the NaI(Tl) crystal.
            R.L.Heath, Report, IDO-16408 (1957).
           Target thickness determined by measuring the elastic-
            scattering yield from the same target.
ERR-ANALYS (EN-ERR-DIG) Digitizing error in energy.
           (ERR-DIG)    Digitizing error in data.
STATUS     (CURVE) Scanned from Fig.6 in article at RFNC-VNIIEF.
ENDBIB              13
COMMON               6          3
ANG        ANG-RSL    E-MIN      E-MAX      EN-ERR-DIG ERR-DIG
ADEG       ADEG       MEV        MEV        MEV        ARB-UNITS
 90.        37.         6.92       7.12       0.05       0.05
ENDCOMMON            3
DATA                 2        172
EN         DATA
MEV        ARB-UNITS
 10.85       0.06
 10.96       0.06
 11.04       0.03
 11.13       0.03
 11.21       0.09
 11.29       0.11
 11.37       0.16
 11.48       0.20
 11.56       0.22
 11.64       0.26
 11.72       0.33
 11.79       0.47
 11.84       0.39
 11.91       0.35
 11.99       0.68
 12.02       1.38
 12.03       1.51
 12.10       1.28
 12.15       1.04
 12.21       1.06
 12.26       0.98
 12.29       0.86
 12.34       0.80
 12.41       0.74
 12.46       0.69
 12.52       0.69
 12.57       0.81
 12.63       0.77
 12.64       0.63
 12.73       0.59
 12.79       0.74
 12.85       0.93
 12.90       0.73
 13.04       0.74
 13.06       0.68
 13.10       0.66
 13.15       0.76
 13.22       0.96
 13.27       0.93
 13.34       0.94
 13.35       1.00
 13.41       1.13
 13.42       1.03
 13.46       0.96
 13.53       1.02
 13.58       1.22
 13.64       1.34
 13.64       1.39
 13.69       1.48
 13.76       1.62
 13.81       1.52
 13.90       1.55
 13.90       1.66
 13.94       1.77
 13.98       1.92
 14.01       1.72
 14.01       1.45
 14.06       0.84
 14.15       1.01
 14.15       1.14
 14.27       1.09
 14.33       1.12
 14.39       1.49
 14.44       1.82
 14.50       1.84
 14.54       1.73
 14.55       1.82
 14.65       2.28
 14.70       2.45
 14.72       2.30
 14.74       2.13
 14.78       2.24
 14.85       2.31
 14.86       2.22
 14.87       2.46
 14.88       1.86
 14.93       2.21
 14.96       2.36
 14.99       2.63
 15.03       2.42
 15.05       2.00
 15.06       1.91
 15.12       1.88
 15.13       2.11
 15.15       1.80
 15.18       1.75
 15.20       1.68
 15.23       1.63
 15.24       1.52
 15.29       1.62
 15.31       1.70
 15.36       1.70
 15.39       1.97
 15.40       1.91
 15.46       2.02
 15.49       1.73
 15.50       1.88
 15.54       1.91
 15.55       2.02
 15.59       2.05
 15.63       1.85
 15.65       1.58
 15.69       1.76
 15.71       1.93
 15.76       1.98
 15.79       1.86
 15.80       1.66
 15.81       1.79
 15.87       1.79
 15.88       1.71
 15.89       1.54
 15.92       1.66
 15.98       1.54
 15.98       1.61
 16.08       1.63
 16.09       1.76
 16.10       1.42
 16.13       1.18
 16.17       1.13
 16.21       1.21
 16.25       1.12
 16.28       1.18
 16.36       1.08
 16.39       0.87
 16.44       0.74
 16.48       0.69
 16.52       0.77
 16.59       0.71
 16.66       0.77
 16.72       0.77
 16.76       0.67
 16.79       0.75
 16.82       0.86
 16.86       0.94
 16.93       1.04
 17.01       1.06
 17.04       1.17
 17.12       1.41
 17.15       1.33
 17.17       1.21
 17.22       1.47
 17.25       1.25
 17.28       1.33
 17.32       1.45
 17.35       1.37
 17.36       1.18
 17.43       1.48
 17.48       1.41
 17.51       1.16
 17.53       1.23
 17.61       1.19
 17.68       1.29
 17.69       1.16
 17.73       1.21
 17.76       1.06
 17.85       1.15
 17.90       1.28
 17.93       1.20
 17.98       1.22
 18.01       1.35
 18.05       1.19
 18.11       1.13
 18.18       1.07
 18.21       0.91
 18.25       0.77
 18.32       0.69
 18.40       0.78
 18.40       0.86
 18.42       0.63
 18.46       0.82
 18.48       0.97
 18.50       0.73
ENDDATA            174
ENDSUBENT          196
SUBENT        T0246006   20040721   20050610                  T018
BIB                  7         24
REACTION   (8-O-16(A,INL)8-O-16,PAR,DA,G,RSD)
SAMPLE     Lead oxide target deposited on gold disks, and
            mounted in a thin walled chamber. Target thickness
            about 25 keV for 10 MeV alphas.
DETECTOR   (NAICR) 3-in.x 3-in. NaI(Tl) crystal, mounted on a
            rotating arm at a distance of 10-in. from axis of
            rotation.
MONITOR    Peak-to-total ratio and efficiency of crystal for
            detection of 6-MeV gamma rays estimated by
            extrapolating known curves for the NaI(Tl) crystal.
            R.L.Heath, Report, IDO-16408 (1957).
           NaI(Tl) crystal placed at fixed angle of 90 degrees
            with respect to incident beam served as a monitor.
           Target thickness determined by measuring the elastic-
            scattering yield from the same target.
CORRECTION Data at 15.705 MeV resonance corrected for
            contributions from other levels by subtracting yield
            just off resonance.
ERR-ANALYS (DATA-ERR) Estimated error in absolute cross section.
           (ERR-DIG)  Digitizing error in data, except that data
            at 10.390 and 15.705 MeV read from Fig. 9 with
            greater accuracy.
STATUS     (CURVE) Scanned from Figs.7-9 in article at
            RFNC-VNIIEF.
ENDBIB              24
COMMON               4          3
E          ANG-RSL    DATA-ERR   ERR-DIG
MEV        ADEG       PER-CENT   NO-DIM
  6.13      17.        45.         0.1
ENDCOMMON            3
DATA                 3         54
EN         ANG        DATA
MEV        ADEG       NO-DIM
 10.360      0.         1.74
 10.360     15.         2.06
 10.360     30.         1.97
 10.360     45.         1.53
 10.360     60.         1.26
 10.360     75.         0.99
 10.375      0.         1.73
 10.375     15.         1.78
 10.375     30.         1.52
 10.375     45.         1.16
 10.375     60.         0.79
 10.375     75.         0.99
 10.390      0.         2.02
 10.390     15.         2.12       0.21
 10.390     30.         2.26       0.22
 10.390     45.         1.86       0.19
 10.390     60.         0.97       0.12
 10.390     75.         0.94       0.12
 10.400      0.         2.02
 10.400     15.         2.09
 10.400     30.         2.70
 10.400     45.         1.82
 10.400     60.         1.03
 10.400     75.         0.93
 10.430      0.         0.64
 10.430     15.         0.98
 10.430     30.         1.47
 10.430     45.         1.41
 10.430     60.         0.48
 10.430     75.         0.53
 15.345      0.         0.97
 15.345     15.         0.99
 15.345     30.         1.32
 15.345     45.         1.14
 15.345     60.         0.97
 15.345     75.         0.80
 15.510      0.         1.11
 15.510     15.         1.22
 15.510     30.         1.46
 15.510     45.         1.21
 15.510     60.         0.91
 15.510     75.         0.85
 15.705      0.         3.11
 15.705     15.         3.01      0.29
 15.705     30.         2.20      0.20
 15.705     45.         1.62      0.15
 15.705     60.         1.13      0.13
 15.705     75.         1.01      0.10
 15.903      0.         1.64
 15.903     15.         1.73
 15.903     30.         1.84
 15.903     45.         1.35
 15.903     60.         1.16
 15.903     75.         0.85
ENDDATA             56
ENDSUBENT           89
SUBENT        T0246007   20040721   20050610                  T018
BIB                  6         18
REACTION   (8-O-16(A,INL)8-O-16,PAR,DA,G,RSD)
SAMPLE     Lead oxide target deposited on gold disks, and
            mounted in a thin walled chamber. Target thickness
            about 250 keV for 10 MeV alphas.
DETECTOR   (NAICR) 3-in.x 3-in. NaI(Tl) crystal, mounted on a
            rotating arm at a distance of 10-in. from axis of
            rotation.
MONITOR    Peak-to-total ratio and efficiency of crystal for
            detection of 6-MeV gamma rays estimated by
            extrapolating known curves for the NaI(Tl) crystal.
            R.L.Heath, Report, IDO-16408 (1957).
           NaI(Tl) crystal placed at fixed angle of 90 degrees
            with respect to incident beam served as a monitor.
           Target thickness determined by measuring the elastic-
            scattering yield from the same target.
ERR-ANALYS (DATA-ERR) Estimated error in absolute cross section.
           (ERR-DIG)    Digitizing error in data.
STATUS     (CURVE) Scanned from Figs.8 in article at RFNC-VNIIEF.
ENDBIB              18
COMMON               4          3
E          ANG-RSL    DATA-ERR   ERR-DIG
MEV        ADEG       PER-CENT   NO-DIM
  6.13      17.        45.         0.1
ENDCOMMON            3
DATA                 3         42
EN         ANG        DATA
MEV        ADEG       NO-DIM
 12.660      0.         1.20
 12.660     15.         1.63
 12.660     30.         2.11
 12.660     45.         1.79
 12.660     60.         1.13
 12.660     75.         1.06
 12.660     90.         1.00
 13.995      0.         1.44
 13.995     15.         1.66
 13.995     30.         1.80
 13.995     45.         1.52
 13.995     60.         1.09
 13.995     75.         1.00
 13.995     90.         1.01
 14.745      0.         0.96
 14.745     15.         1.34
 14.745     30.         1.61
 14.745     45.         1.21
 14.745     60.         0.77
 14.745     75.         0.87
 14.745     90.         1.03
 14.960      0.         1.39
 14.960     15.         1.56
 14.960     30.         1.80
 14.960     45.         1.38
 14.960     60.         0.92
 14.960     75.         0.94
 14.960     90.         1.00
 16.410      0.         1.49
 16.410     15.         1.47
 16.410     30.         1.58
 16.410     45.         1.41
 16.410     60.         1.30
 16.410     75.         1.03
 16.410     90.         1.03
 17.105      0.         0.86
 17.105     15.         0.99
 17.105     30.         1.19
 17.105     45.         1.17
 17.105     60.         1.03
 17.105     75.         1.01
 17.105     90.         1.04
ENDDATA             44
ENDSUBENT           71
SUBENT        T0246008   20040721   20050610                  T018
BIB                  4         16
REACTION  1(8-O-16(A,0),,EN)
          2(8-O-16(A,0),,J)
          3(8-O-16(A,0),,PTY)
          4(8-O-16(A,EL),,WID)
ANALYSIS   Levels determined from inspection of elastic scattering
            excitation curves. Some spin and parity assignments
            confirmed by elastic angular distribution analysis.
            For 15.73-MeV resonance, spin and parity  assignment
            from analysis of inelastic scattering to 17.29-MeV
            level.
FLAG       (1.) Resonance energy uncertain.
           (2.) Spin and parity assignment uncertain.
           (3.) Resonance energy, spin and parity assignment
                uncertain.
           (4.) Spin 3 or 7.
STATUS     Data taken from Table I of article.
ENDBIB              16
NOCOMMON             0          0
DATA                 5         31
DATA      1DATA      2DATA      3DATA      4FLAG
MEV        NO-DIM     NO-DIM     KEV        NO-DIM
 10.05       4.         1.       130.
 10.14       0.                   68.
 10.32       4.         1.        75.        2.
 10.43       4.         1.        90.        2.
 10.57       4.         1.        75.        2.
 10.73       4.         1.        90.        2.
 10.87       4.         1.       140.        2.
 11.20                 -1.       400.        4.
 11.20       7.        -1.       400.        2.
 11.51       6.         1.       125.
 11.77                                       1.
 11.97       6.         1.       300.
 12.06                                       1.
 12.31       4.         1.       300.        2.
 12.66       0.         0.       150.
 12.86       0.         0.       150.
 13.16       0.         0.       150.
 13.37       0.         0.       470.
 14.53                                       1.
 14.91       1.        -1.                   3.
 15.18       6.         1.       400.
 15.73       2.         1.       340.        2.
 16.01       0.         0.       230.
 16.30       0.         0.       230.
 16.53                                       1.
 16.70       6.         1.       180.        2.
 16.98       6.         1.       300.        2.
 17.45       6.         1.                   2.
 18.05       6.         1.       250.        2.
 18.35       6.         1.       350.
 18.90       6.         1.       350.
ENDDATA             33
ENDSUBENT           54
SUBENT        T0246009   20040721   20050610                  T018
BIB                  3          5
REACTION  1(8-O-16(A,0),,EN)
          2(8-O-16(A,INL),PAR,WID)
ANALYSIS   Levels determined from inspection of gamma-ray
            excitation curves.
STATUS     Taken from Table V and VI in article.
ENDBIB               5
COMMON               1          3
E
MEV
 6.13
ENDCOMMON            3
DATA                 2         30
DATA      1DATA      2
MEV        KEV
 10.14      70.
 10.275     40.
 10.39      40.
 10.53      70.
 10.69     100.
 10.76     100.
 10.83      50.
 10.87      70.
 11.00     200.
 11.18      50.
 11.49     200.
 11.92     300.
 12.71
 12.80
 13.19
 13.50
 13.63
 13.84
 14.08
 14.26
 14.37
 14.45
 14.55
 14.83
 15.705    400.
 16.16
 16.47
 16.70
 16.84
 17.600    750.
ENDDATA             32
ENDSUBENT           46
ENDENTRY             9
