ENTRY            C2705   20230802   20240405   20240405       C231
SUBENT        C2705001   20230802   20240405   20240405       C231
BIB                  6         10
TITLE      A high resolution investigation of the (p,n) reaction
           through isobaric analogue resonances
AUTHOR     (J.D.Moses,J.C.Browne,H.W.Newson,E.G.Bilpuch,
           G.E.Mitchell)
INSTITUTE  (1USATNL,1USADKE,1USANCS)
REFERENCE  (J,NP/A,168,406,1971)
           #doi:10.1016/0375-9474(71)90802-5
FACILITY   (VDG,1USATNL) The TUNL 3 MV Van de Graaff accelerator
HISTORY    (20220117C) OG
           (20230721A) OS. Data correction in subs.2,3
ENDBIB              10
NOCOMMON             0          0
ENDSUBENT           13
SUBENT        C2705002   20230802   20240405   20240405       C231
BIB                  6         12
REACTION   (24-CR-54(P,N)25-MN-54,,SIG)
DETECTOR   (BF3) The BF3 counter embedded in an unshielded
           polyethylene matrix surrounding the target chamber.
           The detector efficiency was about 10%. The detector
           subtended solid angles of 2pi sr at the targets during
           the experiment.
SAMPLE     The chromium targets consisted of 1.5 mu-g/cm2 of
           S4Cr evaporated onto 10 mu-g/cm2 carbon foils.
           (24-CR-54,ENR=0.98)
ERR-ANALYS No information on uncertainties.
STATUS     (CURVE,,J.D.Moses+,J,NP/A,168,406,1971) Fig.2
HISTORY    (20230721A) EN units corrected
ENDBIB              12
NOCOMMON             0          0
DATA                 2        165
EN         DATA
KEV        MB
   2587.456     19.427
   2587.588     10.084
   2587.800      8.849
   2587.891      8.848
   2588.003      7.470
   2588.150      7.468
   2588.373     22.914
   2588.479      9.525
   2588.581      7.459
   2588.739     14.336
   2588.785     13.647
   2588.966     14.332
   2589.329     23.267
   2589.631     34.481
   2589.721     68.606
   2590.003    164.963
   2590.033    100.090
   2590.122    154.948
   2590.218     76.709
   2590.823     12.920
   2590.982     11.542
   2591.265     10.160
   2591.423     12.909
   2591.637     22.086
   2591.908     90.350
   2592.216    204.101
   2592.283    174.013
   2592.330     40.253
   2592.449     26.894
   2593.847      8.048
   2594.040      9.421
   2594.583      2.531
   2595.217     10.774
   2595.412      7.961
   2595.871      4.019
   2596.225      6.627
   2596.953    103.845
   2597.034     59.714
   2597.179     48.367
   2597.272     34.335
   2597.509     10.963
   2597.675     30.677
   2597.730     37.082
   2598.075    197.658
   2598.273    166.253
   2598.333    128.348
   2598.334    120.094
   2598.389     86.385
   2598.502     50.611
   2598.558     35.476
   2599.253      3.878
   2599.463      5.878
   2599.770     49.212
   2599.943     74.883
   2599.982     81.577
   2600.048     63.529
   2600.128     45.483
   2600.177     32.006
   2600.458      3.397
   2600.851     12.154
   2600.959     10.665
   2601.179      7.523
   2601.320      3.092
   2601.454      3.553
   2601.730      6.271
   2602.237     71.228
   2602.273     89.751
   2602.442      7.198
   2602.671     45.880
   2602.761     64.621
   2602.946     45.254
   2603.065     31.263
   2603.394     29.194
   2603.633    117.242
   2603.682    237.994
   2603.855    183.176
   2603.910    148.405
   2604.192     38.091
   2604.424     24.359
   2604.822     10.098
   2605.019      5.447
   2605.203      3.469
   2605.688      2.876
   2606.002      4.931
   2606.280      5.750
   2606.734     22.251
   2606.902     80.651
   2607.021     69.299
   2607.267     44.943
   2607.623     69.393
   2607.700    103.516
   2607.817    116.242
   2607.949    110.243
   2608.031    263.420
   2608.205    215.291
   2608.406    135.061
   2608.483    168.515
   2608.625    197.298
   2608.681    135.773
   2608.828     90.984
   2608.934     70.935
   2609.259     30.459
   2609.814     16.690
   2609.974      1.538
   2610.301      1.589
   2610.392     18.743
   2610.595     24.243
   2610.822     35.933
   2610.901     49.171
   2611.044     65.245
   2611.119    113.661
   2611.209    161.584
   2611.500    332.852
   2611.607    294.745
   2611.705    194.434
   2611.933    115.547
   2612.040     73.426
   2612.102     56.546
   2612.215     40.034
   2612.357     25.988
   2613.250      1.381
   2613.970     10.188
   2614.220      2.201
   2614.757      7.635
   2614.978     41.781
   2615.092     33.101
   2615.570      1.743
   2615.906     39.964
   2616.031     35.834
   2616.121     22.075
   2616.212     12.442
   2616.356      1.865
   2616.605      0.567
   2616.802      1.266
   2616.999      0.628
   2617.234      2.671
   2617.470      2.708
   2618.020     18.177
   2618.328    128.584
   2618.379    144.644
   2618.498    135.299
   2618.605    101.873
   2618.699     63.764
   2618.765     49.060
   2618.942     30.964
   2619.168     21.330
   2619.337     31.645
   2619.530     32.329
   2619.666     21.320
   2619.835     10.310
   2620.187     20.622
   2620.338     41.279
   2620.377     45.299
   2620.662      8.231
   2621.598     20.073
   2621.675     36.137
   2621.794     27.461
   2621.926     14.774
   2621.992      4.083
   2622.593     26.248
   2622.684     40.308
   2622.848     40.522
   2622.921     31.650
   2623.000     20.292
   2623.105     12.951
ENDDATA            167
ENDSUBENT          184
SUBENT        C2705003   20230802   20240405   20240405       C231
BIB                  6          8
REACTION   (24-CR-54(P,EL)24-CR-54,,DA)
DETECTOR   The surface-barrier detectors
SAMPLE     The chromium targets consisted of 1.5 mu-g/cm2 of
           S4Cr evaporated onto 10 mu-g/cm2 carbon foils.
           (24-CR-54,ENR=0.98)
ERR-ANALYS No information on uncertainties
STATUS     (CURVE,,J.D.Moses+,J,NP/A,168,406,1971) Fig.2
HISTORY    (20230721A) EN units corrected
ENDBIB               8
NOCOMMON             0          0
DATA                 3        783
ANG        EN         DATA
ADEG       KEV        MB/SR
        90.   2587.279    470.120
        90.   2587.381    472.432
        90.   2587.597    466.137
        90.   2587.755    470.755
        90.   2587.880    463.300
        90.   2588.004    469.062
        90.   2588.084    467.348
        90.   2588.560    455.340
        90.   2588.979    462.865
        90.   2589.069    474.945
        90.   2589.160    455.991
        90.   2589.262    468.647
        90.   2589.387    462.342
        90.   2589.500    461.781
        90.   2589.784    445.151
        90.   2589.842    414.125
        90.   2590.078    449.786
        90.   2590.281    467.627
        90.   2590.451    465.350
        90.   2590.554    460.191
        90.   2590.769    463.666
        90.   2590.916    465.409
        90.   2591.166    450.499
        90.   2591.278    467.179
        90.   2591.460    462.605
        90.   2591.675    468.379
        90.   2591.958    463.243
        90.   2592.026    464.401
        90.   2592.299    452.941
        90.   2592.694    470.232
        90.   2592.774    457.599
        90.   2592.888    455.315
        90.   2592.967    455.900
        90.   2593.306    468.011
        90.   2593.782    467.497
        90.   2593.941    462.919
        90.   2594.191    445.710
        90.   2594.383    462.976
        90.   2594.553    448.630
        90.   2594.779    462.451
        90.   2594.938    455.000
        90.   2595.165    456.178
        90.   2595.776    469.474
        90.   2595.992    449.387
        90.   2596.071    459.742
        90.   2596.807    452.939
        90.   2597.033    469.059
        90.   2597.306    457.025
        90.   2597.567    449.587
        90.   2597.860    469.164
        90.   2598.190    451.390
        90.   2598.257    466.341
        90.   2598.473    456.598
        90.   2598.586    456.613
        90.   2598.778    464.683
        90.   2599.107    461.851
        90.   2599.311    456.130
        90.   2599.356    464.756
        90.   2599.549    456.735
        90.   2599.662    452.726
        90.   2599.752    474.001
        90.   2599.877    467.696
        90.   2600.013    458.518
        90.   2600.218    445.900
        90.   2600.501    446.511
        90.   2600.840    457.473
        90.   2601.282    458.104
        90.   2601.656    445.508
        90.   2601.849    446.107
        90.   2601.939    461.636
        90.   2602.087    441.540
        90.   2602.404    443.304
        90.   2602.541    430.679
        90.   2602.747    392.775
        90.   2602.782    366.344
        90.   2602.804    377.265
        90.   2602.846    438.188
        90.   2603.129    441.098
        90.   2603.299    448.016
        90.   2603.378    443.428
        90.   2603.537    446.322
        90.   2603.786    443.480
        90.   2603.922    452.692
        90.   2604.330    452.169
        90.   2604.386    462.521
        90.   2604.556    452.198
        90.   2604.817    444.760
        90.   2604.999    441.910
        90.   2605.191    451.129
        90.   2605.384    444.832
        90.   2605.610    455.205
        90.   2605.757    447.178
        90.   2605.995    447.208
        90.   2606.199    447.234
        90.   2606.539    443.829
        90.   2606.971    414.000
        90.   2607.140    442.181
        90.   2607.458    415.786
        90.   2607.527    393.382
        90.   2607.608    361.784
        90.   2607.758    316.977
        90.   2607.815    296.870
        90.   2607.826    310.664
        90.   2607.882    323.314
        90.   2608.047    419.883
        90.   2608.273    438.877
        90.   2608.567    448.684
        90.   2608.702    456.747
        90.   2608.929    444.132
        90.   2609.225    432.676
        90.   2609.360    440.164
        90.   2609.474    433.282
        90.   2609.643    440.200
        90.   2609.734    431.017
        90.   2610.245    421.886
        90.   2610.380    428.800
        90.   2610.584    440.894
        90.   2610.765    434.021
        90.   2610.935    434.042
        90.   2611.014    438.650
        90.   2611.434    435.255
        90.   2611.570    428.376
        90.   2611.773    439.321
        90.   2611.864    438.758
        90.   2612.091    418.672
        90.   2613.322    498.136
        90.   2613.451    417.121
        90.   2613.643    423.467
        90.   2614.051    424.093
        90.   2614.277    428.145
        90.   2614.799    412.694
        90.   2615.037    408.702
        90.   2615.104    428.825
        90.   2615.207    417.918
        90.   2616.442    420.374
        90.   2616.577    420.391
        90.   2617.438    419.926
        90.   2617.642    431.445
        90.   2617.710    425.132
        90.   2617.824    419.975
        90.   2617.971    419.419
        90.   2618.435    425.224
        90.   2618.866    424.130
        90.   2619.002    425.871
        90.   2619.240    420.154
        90.   2619.409    424.773
        90.   2619.535    411.571
        90.   2619.636    420.205
        90.   2619.852    416.209
        90.   2620.227    389.246
        90.   2620.330    361.099
        90.   2620.454    370.310
        90.   2620.465    390.426
        90.   2620.634    411.136
        90.   2620.859    437.600
        90.   2621.470    440.552
        90.   2621.619    419.307
        90.   2621.778    411.281
        90.   2621.892    400.951
        90.   2621.958    422.798
        90.   2622.276    417.666
        90.   2622.480    415.393
        90.   2622.638    421.735
        90.   2622.740    424.047
        90.   2622.865    421.764
       120.   2587.285    210.921
       120.   2587.353    213.160
       120.   2587.636    211.754
       120.   2587.783    214.833
       120.   2587.964    212.309
       120.   2588.065    208.945
       120.   2588.201    211.744
       120.   2588.280    217.905
       120.   2588.371    211.741
       120.   2588.529    208.937
       120.   2588.585    211.457
       120.   2588.698    208.093
       120.   2588.879    207.530
       120.   2588.947    206.128
       120.   2589.105    206.965
       120.   2589.433    205.278
       120.   2589.580    199.113
       120.   2589.647    191.549
       120.   2589.885    188.183
       120.   2589.998    202.747
       120.   2590.078    220.392
       120.   2590.191    219.270
       120.   2590.315    218.707
       120.   2590.371    213.664
       120.   2590.519    218.983
       120.   2590.609    217.581
       120.   2590.688    221.221
       120.   2590.778    215.617
       120.   2590.846    214.776
       120.   2590.993    213.653
       120.   2591.084    212.530
       120.   2591.185    216.730
       120.   2591.355    210.284
       120.   2591.524    211.682
       120.   2591.570    210.280
       120.   2591.660    210.559
       120.   2591.773    205.515
       120.   2591.807    197.951
       120.   2591.931    189.266
       120.   2592.157    183.939
       120.   2592.202    190.381
       120.   2592.259    207.467
       120.   2592.361    211.106
       120.   2592.474    215.025
       120.   2592.576    211.662
       120.   2592.689    211.100
       120.   2592.836    212.778
       120.   2592.994    215.016
       120.   2593.073    209.692
       120.   2593.164    216.973
       120.   2593.265    213.890
       120.   2593.378    216.129
       120.   2593.536    208.283
       120.   2593.808    214.720
       120.   2593.977    209.675
       120.   2594.158    207.431
       120.   2594.362    209.668
       120.   2594.588    209.944
       120.   2594.780    207.700
       120.   2594.995    209.376
       120.   2595.379    210.770
       120.   2595.842    202.078
       120.   2596.023    207.956
       120.   2596.249    210.193
       120.   2596.430    203.747
       120.   2596.633    206.545
       120.   2596.746    197.019
       120.   2596.871    200.938
       120.   2597.086    207.096
       120.   2597.210    204.573
       120.   2597.402    202.048
       120.   2597.538    202.606
       120.   2597.854    185.794
       120.   2598.046    179.628
       120.   2598.306    196.149
       120.   2598.408    200.909
       120.   2598.544    204.268
       120.   2598.770    201.183
       120.   2598.939    207.622
       120.   2598.940    208.462
       120.   2599.143    201.456
       120.   2599.301    205.374
       120.   2599.584    205.089
       120.   2599.775    192.480
       120.   2599.842    164.749
       120.   2599.945    177.351
       120.   2600.047    191.075
       120.   2600.149    198.636
       120.   2600.386    195.830
       120.   2600.488    201.150
       120.   2601.008    199.180
       120.   2601.064    204.781
       120.   2601.449    198.331
       120.   2601.731    199.727
       120.   2601.968    194.960
       120.   2602.070    189.356
       120.   2602.217    184.032
       120.   2602.725    168.616
       120.   2602.839    185.701
       120.   2602.873    213.431
       120.   2603.009    210.067
       120.   2603.077    210.906
       120.   2603.393    201.376
       120.   2603.517    181.767
       120.   2603.607    173.642
       120.   2603.686    179.242
       120.   2603.901    191.283
       120.   2604.003    197.163
       120.   2604.309    203.320
       120.   2604.388    199.117
       120.   2604.580    198.833
       120.   2604.795    198.829
       120.   2604.987    196.865
       120.   2605.156    197.142
       120.   2605.394    198.538
       120.   2605.597    197.134
       120.   2605.732    190.128
       120.   2605.913    192.366
       120.   2606.173    182.557
       120.   2606.343    181.434
       120.   2606.478    174.989
       120.   2606.602    177.787
       120.   2606.636    173.025
       120.   2606.817    163.218
       120.   2606.874    175.822
       120.   2606.998    171.338
       120.   2607.088    164.893
       120.   2607.201    162.650
       120.   2607.303    154.525
       120.   2607.404    142.199
       120.   2607.640    114.464
       120.   2607.663    116.704
       120.   2607.811    136.589
       120.   2607.958    158.435
       120.   2608.117    176.919
       120.   2608.310    189.800
       120.   2608.332    177.755
       120.   2608.478    145.820
       120.   2608.557    155.622
       120.   2608.580    143.017
       120.   2608.750    169.624
       120.   2608.863    180.266
       120.   2608.920    194.831
       120.   2609.067    196.789
       120.   2609.260    204.908
       120.   2609.440    203.504
       120.   2609.633    209.383
       120.   2609.802    211.621
       120.   2610.006    209.376
       120.   2610.379    209.369
       120.   2610.594    206.004
       120.   2610.944    202.916
       120.   2611.192    187.225
       120.   2611.305    173.218
       120.   2611.361    163.973
       120.   2611.417    157.810
       120.   2611.564    165.650
       120.   2611.768    181.052
       120.   2611.882    191.694
       120.   2611.995    195.894
       120.   2612.459    202.888
       120.   2612.594    201.485
       120.   2613.012    200.637
       120.   2613.227    198.952
       120.   2613.335    408.190
       120.   2613.453    201.188
       120.   2613.634    195.303
       120.   2614.064    198.656
       120.   2614.233    199.213
       120.   2614.324    204.253
       120.   2614.403    196.409
       120.   2614.617    195.004
       120.   2614.923    196.399
       120.   2615.058    198.077
       120.   2615.251    201.715
       120.   2615.318    192.750
       120.   2615.669    194.425
       120.   2616.030    189.936
       120.   2616.200    196.936
       120.   2616.403    193.290
       120.   2616.629    198.888
       120.   2616.855    194.963
       120.   2617.014    192.999
       120.   2617.240    195.796
       120.   2617.466    194.111
       120.   2617.692    192.146
       120.   2617.828    194.664
       120.   2618.279    185.412
       120.   2618.483    180.367
       120.   2618.845    186.242
       120.   2618.992    184.839
       120.   2619.240    192.677
       120.   2619.320    196.037
       120.   2619.512    193.232
       120.   2619.851    187.624
       120.   2620.246    166.328
       120.   2620.631    201.615
       120.   2620.857    204.412
       120.   2620.959    190.684
       120.   2621.253    198.802
       120.   2621.422    195.157
       120.   2621.603    192.353
       120.   2621.738    189.829
       120.   2621.818    193.189
       120.   2621.942    195.988
       120.   2622.202    196.543
       120.   2622.869    199.052
       120.   2623.016    194.567
       135.   2587.558    164.081
       135.   2587.682    169.308
       135.   2587.863    168.151
       135.   2587.942    164.379
       135.   2588.055    164.671
       135.   2588.201    164.674
       135.   2588.371    165.838
       135.   2588.484    163.518
       135.   2588.608    161.779
       135.   2588.721    167.006
       135.   2588.890    162.946
       135.   2589.026    160.336
       135.   2589.139    162.370
       135.   2589.297    158.019
       135.   2589.534    150.477
       135.   2589.738    140.612
       135.   2589.862    150.483
       135.   2589.918    159.192
       135.   2590.042    174.288
       135.   2590.154    179.225
       135.   2590.245    175.743
       135.   2590.346    173.133
       135.   2590.448    169.362
       135.   2590.561    175.459
       135.   2590.663    168.785
       135.   2590.776    169.078
       135.   2591.002    166.179
       135.   2591.092    165.310
       135.   2591.148    167.343
       135.   2591.261    162.411
       135.   2591.385    166.477
       135.   2591.442    163.576
       135.   2591.555    160.385
       135.   2591.691    154.292
       135.   2591.815    144.426
       135.   2591.985    130.206
       135.   2592.243    168.816
       135.   2592.345    165.044
       135.   2592.515    165.628
       135.   2592.695    170.566
       135.   2592.921    165.346
       135.   2593.045    167.670
       135.   2593.124    167.962
       135.   2593.294    167.675
       135.   2593.565    167.680
       135.   2593.711    168.554
       135.   2593.982    166.527
       135.   2594.377    168.857
       135.   2594.569    165.378
       135.   2594.773    165.382
       135.   2594.965    164.224
       135.   2595.179    165.099
       135.   2595.529    161.913
       135.   2595.766    160.757
       135.   2596.083    157.280
       135.   2596.467    159.609
       135.   2596.580    151.194
       135.   2596.636    156.710
       135.   2596.772    152.068
       135.   2596.794    147.715
       135.   2596.986    153.234
       135.   2597.189    156.721
       135.   2597.325    156.723
       135.   2597.539    152.373
       135.   2597.630    147.731
       135.   2597.913    128.870
       135.   2598.003    125.969
       135.   2598.026    130.613
       135.   2598.149    140.485
       135.   2598.375    158.485
       135.   2598.521    159.939
       135.   2598.612    159.941
       135.   2598.860    161.107
       135.   2599.007    155.304
       135.   2599.086    160.531
       135.   2599.312    157.342
       135.   2599.459    151.830
       135.   2599.606    144.286
       135.   2599.730    135.581
       135.   2599.832    121.650
       135.   2600.091    157.357
       135.   2600.305    160.845
       135.   2600.463    160.557
       135.   2600.588    157.367
       135.   2600.712    159.691
       135.   2600.927    156.503
       135.   2601.062    157.086
       135.   2601.209    154.476
       135.   2601.356    155.060
       135.   2601.819    151.585
       135.   2601.999    148.106
       135.   2602.112    144.625
       135.   2602.180    137.660
       135.   2602.338    137.953
       135.   2602.451    136.214
       135.   2602.678    126.640
       135.   2602.778    148.121
       135.   2602.846    158.281
       135.   2602.913    168.442
       135.   2603.094    164.091
       135.   2603.196    160.610
       135.   2603.343    155.679
       135.   2603.479    125.204
       135.   2603.592    125.496
       135.   2603.693    135.948
       135.   2603.784    141.174
       135.   2603.885    153.948
       135.   2603.998    157.723
       135.   2604.088    159.176
       135.   2604.257    153.664
       135.   2604.393    153.087
       135.   2604.585    155.412
       135.   2604.720    150.190
       135.   2604.992    148.164
       135.   2605.161    148.457
       135.   2605.375    150.203
       135.   2605.590    147.305
       135.   2605.703    143.243
       135.   2605.884    138.022
       135.   2606.200    135.416
       135.   2606.347    131.355
       135.   2606.471    126.133
       135.   2606.630    120.621
       135.   2606.776    114.528
       135.   2606.878    124.399
       135.   2606.980    119.757
       135.   2607.081    113.663
       135.   2607.194    107.570
       135.   2607.307    102.638
       135.   2607.409     91.900
       135.   2607.557     79.712
       135.   2607.636     77.101
       135.   2607.737     85.521
       135.   2607.804    101.486
       135.   2607.996    117.454
       135.   2608.232    147.936
       135.   2608.312    125.007
       135.   2608.369    100.917
       135.   2608.493    110.498
       135.   2608.572     99.759
       135.   2608.684    124.144
       135.   2608.706    165.942
       135.   2608.729    153.461
       135.   2608.818    186.262
       135.   2608.898    166.816
       135.   2608.976    175.235
       135.   2609.134    184.236
       135.   2609.258    187.432
       135.   2609.575    185.116
       135.   2609.812    180.476
       135.   2609.981    179.028
       135.   2610.196    174.968
       135.   2610.354    177.584
       135.   2610.422    171.490
       135.   2610.580    175.266
       135.   2610.829    162.499
       135.   2610.919    162.211
       135.   2610.987    153.795
       135.   2611.089    147.411
       135.   2611.383    109.102
       135.   2611.642    143.358
       135.   2611.800    153.520
       135.   2611.856    162.810
       135.   2611.867    172.969
       135.   2612.003    170.069
       135.   2612.149    175.006
       135.   2612.352    173.849
       135.   2612.567    175.014
       135.   2612.793    170.665
       135.   2612.974    172.120
       135.   2613.165    173.575
       135.   2613.300    586.328
       135.   2613.369    173.288
       135.   2613.753    172.715
       135.   2614.024    170.398
       135.   2614.159    169.530
       135.   2614.351    171.275
       135.   2614.645    170.991
       135.   2614.870    171.285
       135.   2615.029    167.225
       135.   2615.209    166.067
       135.   2615.311    169.843
       135.   2615.390    166.942
       135.   2615.571    164.043
       135.   2615.785    162.015
       135.   2615.966    159.116
       135.   2616.124    163.182
       135.   2616.192    165.796
       135.   2616.338    164.638
       135.   2616.598    165.223
       135.   2616.756    164.356
       135.   2617.208    164.074
       135.   2617.592    165.823
       135.   2617.761    163.504
       135.   2617.885    157.411
       135.   2618.010    157.704
       135.   2618.315    145.809
       135.   2618.383    139.715
       135.   2618.484    146.393
       135.   2618.586    150.749
       135.   2618.653    158.587
       135.   2618.789    158.880
       135.   2618.890    164.687
       135.   2618.992    162.367
       135.   2619.206    164.693
       135.   2619.398    163.826
       135.   2619.602    161.508
       135.   2619.816    159.771
       135.   2619.997    153.389
       135.   2620.166    151.360
       135.   2620.302    152.524
       135.   2620.448    172.264
       135.   2620.527    179.813
       135.   2621.035    169.083
       135.   2621.239    169.667
       135.   2621.453    163.576
       135.   2621.623    162.128
       135.   2621.792    163.873
       135.   2621.939    168.229
       135.   2622.266    164.462
       135.   2622.616    165.050
       135.   2622.842    165.054
       135.   2622.944    162.153
       160.   2587.347    127.950
       160.   2587.747    129.133
       160.   2588.035    123.792
       160.   2588.277    126.739
       160.   2588.764    125.417
       160.   2588.865    118.222
       160.   2588.967    118.248
       160.   2589.114    118.284
       160.   2589.273    118.038
       160.   2589.659    106.876
       160.   2589.990    137.631
       160.   2590.120    133.333
       160.   2590.409    127.992
       160.   2590.581    125.870
       160.   2590.868    124.137
       160.   2591.183    122.773
       160.   2591.341    120.286
       160.   2591.661    108.458
       160.   2591.866     95.879
       160.   2591.976    100.709
       160.   2592.085    120.111
       160.   2592.177    140.702
       160.   2592.278    138.506
       160.   2592.426    136.542
       160.   2592.710    133.257
       160.   2592.983    128.273
       160.   2593.183    130.849
       160.   2593.269    129.427
       160.   2593.470    128.034
       160.   2593.686    125.562
       160.   2593.899    127.780
       160.   2594.085    127.466
       160.   2594.271    128.595
       160.   2594.473    125.036
       160.   2594.686    121.960
       160.   2594.879    122.008
       160.   2595.083    121.488
       160.   2595.276    120.964
       160.   2595.490    124.447
       160.   2595.693    125.355
       160.   2596.091    121.453
       160.   2596.228    118.058
       160.   2596.375    120.095
       160.   2596.533    120.421
       160.   2596.673    109.882
       160.   2596.808    112.202
       160.   2596.897    116.511
       160.   2597.021    119.685
       160.   2597.350    116.909
       160.   2597.720     99.855
       160.   2597.835     93.883
       160.   2597.938     91.337
       160.   2597.979    103.064
       160.   2598.076    114.519
       160.   2598.118    124.245
       160.   2598.434    127.753
       160.   2598.591    130.936
       160.   2598.650    125.235
       160.   2598.912    121.014
       160.   2599.219    117.376
       160.   2599.388    119.418
       160.   2599.447    114.003
       160.   2599.648     94.049
       160.   2599.760     96.364
       160.   2599.926    134.984
       160.   2600.200    130.480
       160.   2600.405    126.245
       160.   2600.587    124.575
       160.   2600.710    128.321
       160.   2600.859    124.643
       160.   2600.916    123.800
       160.   2601.155    120.716
       160.   2601.403    123.064
       160.   2601.665    119.415
       160.   2601.872    113.179
       160.   2601.999    106.924
       160.   2602.078    107.515
       160.   2602.179    109.827
       160.   2602.316    106.146
       160.   2602.465    102.182
       160.   2602.599    106.502
       160.   2602.682    127.384
       160.   2602.767    140.265
       160.   2603.069    123.194
       160.   2603.263    119.813
       160.   2603.431     95.279
       160.   2603.543     97.593
       160.   2603.585    106.462
       160.   2603.683    117.060
       160.   2603.758    126.224
       160.   2604.055    120.011
       160.   2604.189    126.045
       160.   2604.464    117.541
       160.   2604.669    116.449
       160.   2604.849    118.494
       160.   2604.906    117.365
       160.   2605.031    117.111
       160.   2605.247    114.593
       160.   2605.453    109.786
       160.   2605.557    104.954
       160.   2606.377     94.013
       160.   2606.774     90.969
       160.   2606.901     85.571
       160.   2606.971     81.587
       160.   2607.062     79.324
       160.   2607.215     65.359
       160.   2607.365     56.538
       160.   2607.538     50.580
       160.   2607.644     69.467
       160.   2607.706     84.343
       160.   2607.912    108.113
       160.   2607.997    121.565
       160.   2607.999    116.994
       160.   2608.096    128.734
       160.   2608.210     98.185
       160.   2608.297     78.203
       160.   2608.346     97.362
       160.   2608.364     81.363
       160.   2608.400    103.948
       160.   2608.498    144.838
       160.   2608.656    174.026
       160.   2608.698    210.901
       160.   2608.729    190.047
       160.   2609.024    188.406
       160.   2609.174    183.014
       160.   2609.289    176.756
       160.   2609.664    175.420
       160.   2609.814    167.456
       160.   2610.021    160.363
       160.   2610.421    150.176
       160.   2610.619    136.794
       160.   2610.838    126.561
       160.   2610.900    114.574
       160.   2610.983    103.735
       160.   2611.184     83.210
       160.   2611.343    111.541
       160.   2611.564    153.604
       160.   2611.708    162.499
       160.   2611.831    166.816
       160.   2612.216    166.055
       160.   2612.254    156.062
       160.   2612.434    159.537
       160.   2612.820    156.775
       160.   2613.015    150.537
       160.   2613.333    148.902
       160.   2613.446    150.930
       160.   2613.618    144.400
       160.   2613.946    146.482
       160.   2614.218    146.264
       160.   2614.467    145.469
       160.   2614.649    143.800
       160.   2614.774    143.831
       160.   2614.910    143.294
       160.   2615.650    134.619
       160.   2616.000    137.279
       160.   2616.429    140.529
       160.   2616.656    140.300
       160.   2617.020    136.390
       160.   2617.247    135.875
       160.   2617.382    136.195
       160.   2617.497    132.794
       160.   2617.599    133.677
       160.   2617.815    130.016
       160.   2618.228    118.116
       160.   2618.371    129.297
       160.   2618.502    140.760
       160.   2618.740    139.677
       160.   2619.172    137.212
       160.   2619.285    137.241
       160.   2619.412    132.128
       160.   2619.797    130.796
       160.   2620.027    123.423
       160.   2620.113    134.589
       160.   2620.117    153.737
       160.   2620.193    160.900
       160.   2620.333    152.933
       160.   2620.413    148.953
       160.   2620.617    148.432
       160.   2620.835    143.343
       160.   2620.961    139.088
       160.   2621.187    140.573
       160.   2621.357    139.186
       160.   2621.560    142.952
       160.   2621.673    142.980
       160.   2621.764    141.574
       160.   2621.991    140.202
       160.   2622.194    142.539
ENDDATA            785
ENDSUBENT          798
SUBENT        C2705004   20220117   20220803   20220802       C212
BIB                  3          8
REACTION  1(24-CR-54(P,0),,EN)
          2(24-CR-54(P,EL),,WID)
          3(24-CR-54(P,N),,WID)
ERR-ANALYS (DATA-ERR) The uncertainties quoted for the widths are
           merely estimates.
STATUS     (TABLE) Tab.1 (p.410) in Nucl.Phys.A,168,406,1971
           (DEP,C2705002)
           (DEP,C2705003)
ENDBIB               8
COMMON               1          3
DATA-ERR  1
KEV
   2.
ENDCOMMON            3
DATA                 5         12
DATA      1DATA      2DATA-ERR  2DATA      3DATA-ERR  3
MEV        KEV        KEV        KEV        KEV
     2.4228        20.        10.       180.        50.
     2.5921        30.        10.        70.        20.
     2.5971        10.         5.        80.        25.
     2.5981        40.        15.       150.        50.
     2.5999        30.        10.         5.         5.
     2.6038        30.        10.       140.        50.
     2.6082        80.        20.        80.        25.
     2.6086       225.        50.        50.        15.
     2.6115       125.        30.       325.       100.
     2.6184        10.         5.        20.        10.
     2.6425        20.        10.        50.        25.
     2.6622        10.         5.        75.        25.
ENDDATA             14
ENDSUBENT           31
SUBENT        C2705005   20220117   20220803   20220802       C212
BIB                  5         12
REACTION   (28-NI-64(P,N)29-CU-64,,SIG)
DETECTOR   (BF3) The BF3 counter embedded in an unshielded
           polyethylene matrix surrounding the target chamber.
           The detector efficiency was about 10%. The detector
           subtended solid angles of pi sr at the targets during
           the experiment.
SAMPLE     The nickel targets were 2 mu-g/cm2 of 64Ni evaporated
           onto 10 mu-g/cm2 carbon foils.
           (28-NI-64,ENR=0.98)
ERR-ANALYS No information on uncertainties
STATUS     (CURVE) Fig.5 (p.413) in Nucl.Phys.A,168,406,1971 was
           digitized by GSYS2.4.7.
ENDBIB              12
NOCOMMON             0          0
DATA                 2        214
EN         DATA
KEV        MB
   3192.141     17.821
   3192.278     13.109
   3192.470     14.787
   3192.579      9.067
   3192.743      7.045
   3193.003     14.775
   3193.017      7.375
   3193.167      7.708
   3193.400      7.367
   3193.550      7.363
   3193.933      9.709
   3194.097      6.678
   3194.234      8.021
   3194.371      8.018
   3194.508      8.015
   3194.699      8.683
   3194.863     11.370
   3195.179     22.461
   3195.398     35.572
   3195.466     30.190
   3195.575     26.824
   3195.671     18.751
   3195.821     13.030
   3195.931     16.054
   3196.149      8.987
   3196.423     10.662
   3196.792      6.954
   3196.997      7.622
   3197.162      7.619
   3197.380      7.950
   3197.573     35.860
   3197.655     42.248
   3197.765     37.874
   3197.860     29.464
   3197.942     16.682
   3198.051     14.325
   3198.133      6.252
   3198.256     11.294
   3198.379      6.582
   3198.571      6.578
   3198.762      7.919
   3198.967     10.941
   3199.200      8.582
   3199.392     11.604
   3199.775     17.650
   3199.954     42.197
   3200.145     34.793
   3200.323     44.206
   3200.405     51.603
   3200.707     81.529
   3200.871     78.834
   3201.076     54.951
   3201.226     35.105
   3201.541     48.887
   3201.787     63.343
   3201.978     48.541
   3202.074     41.140
   3202.169     35.084
   3202.361     25.999
   3202.620     16.913
   3202.922     49.865
   3202.991     54.572
   3203.305     49.184
   3203.387     38.084
   3203.551     32.026
   3203.660     18.235
   3203.729     24.960
   3204.030     28.316
   3204.262     16.204
   3204.456     80.099
   3204.470     98.933
   3204.648     98.256
   3204.975     73.361
   3205.140     78.402
   3205.222     76.046
   3205.317     61.919
   3205.413     68.307
   3205.521     44.762
   3205.549     40.390
   3205.754     37.022
   3205.959     37.017
   3206.233     42.056
   3206.286      8.423
   3206.438     34.652
   3206.588     40.703
   3206.780     54.487
   3207.505     35.637
   3207.628     38.325
   3207.999     91.791
   3208.096    116.003
   3208.219    105.575
   3208.506     97.833
   3208.572     52.093
   3208.764     52.425
   3209.310     27.525
   3209.625     24.828
   3209.802     20.788
   3209.871     18.432
   3210.199     23.133
   3210.528     50.704
   3210.886    103.833
   3210.914    116.277
   3211.050     98.112
   3211.267     46.651
   3211.362     38.578
   3211.430     29.496
   3211.786     24.443
   3212.196     21.743
   3212.387      9.632
   3212.811     10.631
   3213.387     28.106
   3213.592     28.774
   3213.756     22.717
   3213.975     27.421
   3214.194     32.124
   3214.426     26.065
   3214.604     20.680
   3214.795     20.676
   3215.260      8.558
   3215.383     11.246
   3215.575     17.632
   3215.685     17.965
   3215.835     21.325
   3216.669     10.881
   3216.765     18.950
   3216.957     21.973
   3217.080     34.750
   3217.163     43.156
   3217.355     66.694
   3217.410     74.428
   3217.424     62.993
   3217.629     57.943
   3217.903     84.170
   3218.162     64.658
   3218.340     58.600
   3218.504     50.525
   3218.764     51.528
   3218.832     55.226
   3218.901     59.933
   3218.997     73.383
   3219.038     81.118
   3219.175     74.725
   3219.339     79.766
   3219.503     71.018
   3219.640     62.270
   3219.858     55.203
   3220.036     48.473
   3220.159     41.071
   3220.295     36.696
   3220.432     40.392
   3221.227     75.687
   3221.460     79.382
   3221.555     71.308
   3221.622     29.267
   3221.814     40.698
   3222.142     27.238
   3222.265     43.378
   3222.402     40.684
   3222.470     37.992
   3222.635     44.715
   3222.690     52.785
   3222.842    102.556
   3222.952    107.935
   3223.048    119.368
   3223.171    124.746
   3223.253    114.318
   3223.403    109.943
   3223.540    109.603
   3223.691    115.990
   3223.814    111.952
   3223.937    114.976
   3224.346     78.308
   3224.373     72.590
   3224.524     91.757
   3224.634    105.879
   3224.757    101.841
   3224.975     72.913
   3225.070     58.113
   3225.248     51.383
   3225.357     48.690
   3225.604     51.375
   3225.904     45.651
   3226.260     33.535
   3226.465     39.921
   3226.602     51.352
   3226.849     54.374
   3227.013     56.388
   3227.205     64.455
   3227.451     68.822
   3227.670     57.718
   3227.861     55.360
   3228.025     39.213
   3228.230     44.589
   3228.599     44.917
   3228.956     66.770
   3229.066     82.238
   3229.148     79.209
   3229.325     67.434
   3229.489     62.722
   3229.530     69.111
   3229.845     68.432
   3230.051     78.853
   3230.420     82.544
   3230.611     77.831
   3230.652     66.059
   3230.775     62.357
   3230.926     65.717
   3231.322     65.372
   3231.391     72.769
   3231.583     75.455
   3231.609     58.975
   3231.760     55.945
   3232.020     54.594
   3232.143     58.291
ENDDATA            216
ENDSUBENT          233
SUBENT        C2705006   20220117   20220803   20220802       C212
BIB                  5          8
REACTION   (28-NI-64(P,EL)28-NI-64,,DA)
DETECTOR   The surface-barrier detectors
SAMPLE     The nickel targets were 2 mu-g/cm2 of 64Ni evaporated
           onto 10 mu-g/cm2 carbon foils.
           (28-NI-64,ENR=0.98)
ERR-ANALYS No information on uncertainties
STATUS     (CURVE) Fig.5 (p.413) in Nucl.Phys.A,168,406,1971 was
           digitized by GSYS2.4.7.
ENDBIB               8
NOCOMMON             0          0
DATA                 3        948
ANG        EN         DATA
ADEG       KEV        MB/SR
        90.   3192.138    404.063
        90.   3192.371    415.610
        90.   3192.535    415.599
        90.   3192.672    413.549
        90.   3192.836    404.695
        90.   3193.055    416.244
        90.   3193.150    405.354
        90.   3193.410    408.738
        90.   3193.534    413.491
        90.   3194.012    407.336
        90.   3194.258    409.360
        90.   3194.422    393.024
        90.   3194.614    403.214
        90.   3194.792    405.242
        90.   3194.929    405.233
        90.   3195.024    401.826
        90.   3195.215    386.168
        90.   3195.421    388.194
        90.   3195.585    396.346
        90.   3195.681    390.217
        90.   3195.804    399.052
        90.   3196.023    404.479
        90.   3196.269    402.421
        90.   3196.461    404.449
        90.   3196.652    401.035
        90.   3196.857    395.579
        90.   3197.076    398.965
        90.   3197.227    398.275
        90.   3197.459    401.660
        90.   3197.569    411.175
        90.   3197.706    415.247
        90.   3197.815    407.077
        90.   3197.952    415.231
        90.   3198.130    401.614
        90.   3198.444    405.674
        90.   3198.690    395.454
        90.   3198.841    403.607
        90.   3199.046    402.912
        90.   3199.251    403.579
        90.   3199.539    404.920
        90.   3199.675    395.387
        90.   3199.867    399.456
        90.   3200.059    404.204
        90.   3200.359    396.701
        90.   3200.797    400.073
        90.   3200.880    412.311
        90.   3201.016    398.697
        90.   3201.180    407.529
        90.   3201.276    399.360
        90.   3201.426    395.268
        90.   3201.645    389.812
        90.   3201.960    396.592
        90.   3202.206    401.337
        90.   3202.384    401.325
        90.   3202.562    400.633
        90.   3202.726    406.063
        90.   3202.904    412.853
        90.   3202.917    395.847
        90.   3203.055    413.523
        90.   3203.164    403.313
        90.   3203.369    411.461
        90.   3203.533    399.886
        90.   3203.766    405.992
        90.   3203.902    396.460
        90.   3204.354    394.389
        90.   3204.463    368.534
        90.   3204.722    354.912
        90.   3204.859    367.146
        90.   3205.024    382.780
        90.   3205.092    375.293
        90.   3205.243    386.166
        90.   3205.352    396.362
        90.   3205.530    375.943
        90.   3205.626    379.338
        90.   3205.667    394.300
        90.   3205.858    381.363
        90.   3205.941    394.961
        90.   3206.173    396.306
        90.   3206.474    395.605
        90.   3206.488    382.680
        90.   3206.651    369.745
        90.   3206.829    360.890
        90.   3207.075    356.112
        90.   3207.281    371.743
        90.   3207.527    377.848
        90.   3207.582    385.327
        90.   3207.787    388.714
        90.   3208.184    388.687
        90.   3208.416    383.229
        90.   3208.581    393.421
        90.   3208.717    386.610
        90.   3208.964    390.674
        90.   3209.128    392.024
        90.   3209.278    382.490
        90.   3209.484    395.400
        90.   3209.621    394.711
        90.   3209.825    382.453
        90.   3210.003    382.441
        90.   3210.140    389.914
        90.   3210.223    397.391
        90.   3210.565    402.129
        90.   3210.688    400.080
        90.   3210.701    372.871
        90.   3210.919    363.333
        90.   3211.042    364.005
        90.   3211.193    363.995
        90.   3211.330    371.467
        90.   3211.467    372.819
        90.   3211.878    391.156
        90.   3212.219    379.570
        90.   3212.425    388.398
        90.   3212.575    392.469
        90.   3212.821    384.970
        90.   3213.068    380.192
        90.   3213.204    385.624
        90.   3213.465    392.409
        90.   3213.711    391.032
        90.   3213.903    399.181
        90.   3214.231    388.956
        90.   3214.477    394.381
        90.   3214.627    387.568
        90.   3214.833    392.316
        90.   3214.969    390.946
        90.   3215.257    398.409
        90.   3215.366    392.960
        90.   3215.544    387.506
        90.   3215.667    402.462
        90.   3215.735    387.493
        90.   3215.859    395.647
        90.   3216.064    387.471
        90.   3216.351    397.654
        90.   3216.447    390.846
        90.   3216.693    396.270
        90.   3216.830    400.342
        90.   3217.063    405.088
        90.   3217.282    408.474
        90.   3217.500    398.256
        90.   3217.678    396.884
        90.   3217.856    405.034
        90.   3218.006    398.902
        90.   3218.075    415.222
        90.   3218.266    397.524
        90.   3218.376    391.395
        90.   3218.636    398.179
        90.   3218.773    403.611
        90.   3218.964    404.278
        90.   3219.047    421.958
        90.   3219.183    416.507
        90.   3219.334    410.375
        90.   3219.443    417.170
        90.   3219.511    402.201
        90.   3219.771    404.224
        90.   3219.962    391.967
        90.   3220.209    391.270
        90.   3220.304    379.020
        90.   3220.441    375.609
        90.   3220.633    382.398
        90.   3220.879    381.701
        90.   3221.016    391.215
        90.   3221.262    391.878
        90.   3221.440    392.547
        90.   3221.672    388.449
        90.   3221.823    397.962
        90.   3222.056    391.824
        90.   3222.302    385.006
        90.   3222.548    389.070
        90.   3222.753    402.660
        90.   3222.877    402.652
        90.   3223.109    408.078
        90.   3223.150    391.750
        90.   3223.232    401.267
        90.   3223.465    390.368
        90.   3223.574    399.203
        90.   3223.670    391.034
        90.   3223.875    397.823
        90.   3224.039    402.573
        90.   3224.217    408.002
        90.   3224.408    391.664
        90.   3224.573    390.293
        90.   3224.710    398.446
        90.   3224.860    403.877
        90.   3225.093    403.181
        90.   3225.175    399.775
        90.   3225.448    402.477
        90.   3225.694    392.257
        90.   3225.817    386.127
        90.   3225.995    390.196
        90.   3226.269    389.497
        90.   3226.460    389.484
        90.   3226.706    384.026
        90.   3226.830    384.698
        90.   3227.062    386.722
        90.   3227.253    375.826
        90.   3227.472    377.852
        90.   3227.691    385.999
        90.   3227.924    384.623
        90.   3228.129    384.609
        90.   3228.279    377.117
        90.   3228.498    366.899
        90.   3228.662    375.730
        90.   3228.854    384.560
        90.   3229.060    389.307
        90.   3229.306    390.651
        90.   3229.593    377.708
        90.   3229.784    366.811
        90.   3229.989    361.356
        90.   3230.153    359.304
        90.   3230.263    364.738
        90.   3230.522    358.598
        90.   3230.660    371.513
        90.   3230.783    368.784
        90.   3230.851    376.262
        90.   3231.056    371.486
        90.   3231.330    368.066
        90.   3231.522    387.779
        90.   3231.631    372.127
        90.   3231.754    373.479
        90.   3231.918    368.707
        90.   3232.055    376.180
        90.   3232.192    376.851
       120.   3192.016    186.063
       120.   3192.139    185.720
       120.   3192.330    187.453
       120.   3192.426    187.800
       120.   3192.522    183.309
       120.   3192.700    185.042
       120.   3192.891    188.848
       120.   3192.974    183.666
       120.   3193.069    187.124
       120.   3193.548    184.370
       120.   3193.863    183.340
       120.   3194.136    185.420
       120.   3194.711    185.779
       120.   3194.834    181.980
       120.   3195.381    182.339
       120.   3195.559    185.108
       120.   3195.737    190.296
       120.   3195.996    192.376
       120.   3196.010    183.044
       120.   3196.243    179.248
       120.   3196.407    185.473
       120.   3196.530    187.204
       120.   3196.722    184.443
       120.   3196.982    187.560
       120.   3197.639    174.787
       120.   3197.885    184.816
       120.   3197.953    181.361
       120.   3198.145    183.439
       120.   3198.254    187.935
       120.   3198.760    186.909
       120.   3198.897    186.221
       120.   3199.006    184.150
       120.   3199.143    183.808
       120.   3199.266    183.811
       120.   3199.417    184.160
       120.   3199.526    176.213
       120.   3199.773    181.057
       120.   3200.005    181.754
       120.   3200.115    179.683
       120.   3200.265    181.069
       120.   3200.429    177.962
       120.   3200.457    174.506
       120.   3200.539    172.434
       120.   3200.689    170.018
       120.   3200.867    173.133
       120.   3200.976    177.283
       120.   3201.127    181.434
       120.   3201.373    184.205
       120.   3201.852    181.796
       120.   3202.057    179.727
       120.   3202.153    186.988
       120.   3202.262    184.571
       120.   3202.481    184.921
       120.   3202.741    178.706
       120.   3202.864    177.672
       120.   3203.028    179.750
       120.   3203.329    176.646
       120.   3203.425    176.303
       120.   3203.507    179.415
       120.   3203.603    177.344
       120.   3203.740    178.384
       120.   3203.945    180.116
       120.   3204.260    177.359
       120.   3204.343    151.439
       120.   3204.370    156.278
       120.   3204.588    165.270
       120.   3204.643    172.183
       120.   3204.875    187.050
       120.   3205.012    189.127
       120.   3205.190    187.058
       120.   3205.313    187.060
       120.   3205.422    180.842
       120.   3205.573    181.191
       120.   3205.956    179.472
       120.   3206.161    182.587
       120.   3206.394    182.247
       120.   3206.531    174.300
       120.   3206.763    168.776
       120.   3206.968    176.730
       120.   3207.132    184.683
       120.   3207.269    186.414
       120.   3207.474    185.382
       120.   3207.584    182.620
       120.   3207.707    181.931
       120.   3207.762    179.513
       120.   3208.022    173.298
       120.   3208.213    171.920
       120.   3208.350    173.651
       120.   3208.446    177.801
       120.   3208.651    180.916
       120.   3208.829    181.266
       120.   3208.924    178.157
       120.   3209.088    185.074
       120.   3209.211    186.805
       120.   3209.321    185.425
       120.   3209.567    179.209
       120.   3209.950    180.600
       120.   3210.101    179.913
       120.   3210.170    172.311
       120.   3210.238    169.547
       120.   3210.334    172.660
       120.   3210.430    164.713
       120.   3210.471    161.603
       120.   3210.608    154.694
       120.   3210.717    157.462
       120.   3210.909    162.650
       120.   3210.977    175.785
       120.   3211.195    190.998
       120.   3211.332    191.692
       120.   3211.427    190.658
       120.   3211.687    191.009
       120.   3211.838    189.976
       120.   3211.988    189.288
       120.   3212.125    190.328
       120.   3212.344    191.370
       120.   3212.467    188.953
       120.   3212.576    192.758
       120.   3212.782    187.578
       120.   3213.192    188.624
       120.   3213.261    187.589
       120.   3213.357    183.098
       120.   3213.466    186.557
       120.   3213.603    186.560
       120.   3213.671    183.451
       120.   3213.767    190.366
       120.   3213.863    186.566
       120.   3214.123    183.116
       120.   3214.328    185.540
       120.   3214.615    184.164
       120.   3214.779    185.205
       120.   3215.436    184.183
       120.   3215.518    180.038
       120.   3215.696    179.005
       120.   3215.942    182.812
       120.   3216.065    179.013
       120.   3216.202    179.362
       120.   3216.312    177.636
       120.   3216.476    178.677
       120.   3216.613    174.187
       120.   3216.626    177.298
       120.   3216.763    175.228
       120.   3216.969    169.011
       120.   3217.092    165.903
       120.   3217.215    164.178
       120.   3217.447    166.603
       120.   3217.625    161.423
       120.   3217.735    159.351
       120.   3217.994    171.800
       120.   3218.076    174.567
       120.   3218.213    180.100
       120.   3218.419    168.699
       120.   3218.555    171.467
       120.   3218.665    165.940
       120.   3218.802    159.030
       120.   3219.049    151.432
       120.   3219.172    155.928
       120.   3219.349    155.932
       120.   3219.554    166.306
       120.   3219.664    164.926
       120.   3219.814    169.422
       120.   3220.019    180.832
       120.   3220.156    181.872
       120.   3220.374    182.223
       120.   3220.525    183.955
       120.   3220.716    184.650
       120.   3220.922    177.051
       120.   3221.155    171.527
       120.   3221.305    173.258
       120.   3221.428    177.063
       120.   3221.524    179.830
       120.   3221.647    181.907
       120.   3221.811    180.874
       120.   3221.975    179.149
       120.   3222.139    178.462
       120.   3222.221    175.699
       120.   3222.331    176.738
       120.   3222.482    170.866
       120.   3222.783    156.357
       120.   3223.029    158.091
       120.   3223.275    157.405
       120.   3223.508    162.941
       120.   3223.740    161.909
       120.   3223.891    163.986
       120.   3224.205    172.980
       120.   3224.287    175.401
       120.   3224.383    165.034
       120.   3224.520    160.199
       120.   3224.684    159.166
       120.   3224.835    162.625
       120.   3224.985    165.394
       120.   3225.286    169.894
       120.   3225.737    173.706
       120.   3225.806    176.818
       120.   3225.983    176.822
       120.   3226.257    178.557
       120.   3226.531    171.996
       120.   3226.695    177.184
       120.   3226.955    179.264
       120.   3227.146    175.121
       120.   3227.283    178.580
       120.   3227.515    181.351
       120.   3227.652    178.589
       120.   3228.076    182.401
       120.   3228.336    182.407
       120.   3228.555    181.375
       120.   3228.733    178.268
       120.   3228.788    173.776
       120.   3228.884    169.631
       120.   3229.048    165.833
       120.   3229.185    174.477
       120.   3229.335    174.135
       120.   3229.472    171.373
       120.   3229.636    171.722
       120.   3229.800    170.689
       120.   3229.923    173.803
       120.   3230.088    171.041
       120.   3230.224    171.736
       120.   3230.320    174.157
       120.   3230.498    177.272
       120.   3230.607    178.311
       120.   3230.703    182.461
       120.   3230.963    180.393
       120.   3231.195    179.016
       120.   3231.278    173.488
       120.   3231.414    174.874
       120.   3231.551    182.826
       120.   3231.824    182.487
       120.   3231.920    180.070
       120.   3232.016    180.763
       135.   3192.054    149.074
       135.   3192.102    147.857
       135.   3192.231    148.466
       135.   3192.393    148.466
       135.   3192.652    144.207
       135.   3192.878    144.815
       135.   3193.008    147.857
       135.   3193.105    143.599
       135.   3193.282    146.843
       135.   3193.509    146.843
       135.   3193.848    144.613
       135.   3194.075    145.829
       135.   3194.285    145.018
       135.   3194.479    143.599
       135.   3194.770    143.396
       135.   3195.029    142.382
       135.   3195.352    142.382
       135.   3195.514    150.899
       135.   3195.578    147.654
       135.   3195.675    145.221
       135.   3195.788    146.843
       135.   3195.950    149.277
       135.   3196.079    147.857
       135.   3196.306    146.640
       135.   3196.516    147.249
       135.   3196.726    144.613
       135.   3196.904    144.004
       135.   3197.130    143.599
       135.   3197.341    132.040
       135.   3197.341    141.368
       135.   3197.486    127.173
       135.   3197.567    131.432
       135.   3197.632    135.487
       135.   3197.793    139.543
       135.   3197.793    145.221
       135.   3197.890    146.640
       135.   3198.052    146.032
       135.   3198.165    149.074
       135.   3198.295    146.640
       135.   3198.699    147.654
       135.   3198.925    142.585
       135.   3199.071    145.424
       135.   3199.281    144.613
       135.   3199.313    139.543
       135.   3199.539    142.382
       135.   3199.717    141.368
       135.   3199.927    140.760
       135.   3200.105    137.312
       135.   3200.267    138.529
       135.   3200.299    133.459
       135.   3200.412    132.040
       135.   3200.962    136.907
       135.   3201.156    140.557
       135.   3201.302    143.396
       135.   3201.463    138.935
       135.   3201.480    142.382
       135.   3201.674    138.732
       135.   3201.900    141.165
       135.   3202.256    145.018
       135.   3202.514    144.207
       135.   3202.708    136.907
       135.   3202.919    132.851
       135.   3203.161    136.907
       135.   3203.404    137.515
       135.   3203.662    138.732
       135.   3203.743    137.110
       135.   3204.050    139.340
       135.   3204.131    138.124
       135.   3204.277    133.662
       135.   3204.309    118.251
       135.   3204.406    116.628
       135.   3204.568    131.432
       135.   3204.843    148.263
       135.   3205.117    147.857
       135.   3205.328    145.627
       135.   3205.473    143.193
       135.   3205.683    145.221
       135.   3205.974    144.410
       135.   3206.152    141.976
       135.   3206.362    143.193
       135.   3206.508    138.529
       135.   3206.734    134.068
       135.   3206.928    137.515
       135.   3207.025    140.557
       135.   3207.155    143.396
       135.   3207.510    144.207
       135.   3207.575    142.990
       135.   3207.737    133.662
       135.   3208.028    127.782
       135.   3208.189    128.795
       135.   3208.319    132.851
       135.   3208.497    137.110
       135.   3208.545    140.354
       135.   3208.707    140.557
       135.   3208.755    142.788
       135.   3209.046    141.774
       135.   3209.160    147.452
       135.   3209.774    141.774
       135.   3209.936    138.124
       135.   3210.113    134.879
       135.   3210.259    130.418
       135.   3210.534    116.223
       135.   3210.647    117.034
       135.   3210.776    122.915
       135.   3210.841    130.012
       135.   3211.003    141.368
       135.   3211.164    155.766
       135.   3211.342    154.549
       135.   3211.455    153.535
       135.   3211.581    154.618
       135.   3211.923    147.931
       135.   3212.361    148.274
       135.   3212.361    151.710
       135.   3212.571    151.305
       135.   3212.743    152.732
       135.   3212.878    147.654
       135.   3213.121    148.060
       135.   3213.444    142.788
       135.   3213.638    144.004
       135.   3213.719    142.788
       135.   3214.172    141.368
       135.   3214.349    144.207
       135.   3214.511    140.760
       135.   3214.964    141.368
       135.   3215.109    140.354
       135.   3215.396    137.471
       135.   3215.514    135.082
       135.   3215.643    135.082
       135.   3215.956    135.585
       135.   3216.144    134.068
       135.   3216.193    132.446
       135.   3216.209    131.026
       135.   3216.338    128.795
       135.   3216.516    127.782
       135.   3216.581    124.537
       135.   3216.807    124.537
       135.   3216.855    117.237
       135.   3216.888    115.209
       135.   3217.001    111.559
       135.   3217.130    110.139
       135.   3217.243    113.181
       135.   3217.421    119.062
       135.   3217.534    115.209
       135.   3217.664    112.573
       135.   3217.680    116.223
       135.   3217.809    120.887
       135.   3217.906    126.565
       135.   3218.020    131.229
       135.   3218.133    131.229
       135.   3218.181    141.774
       135.   3218.246    129.607
       135.   3218.327    124.740
       135.   3218.488    118.859
       135.   3218.602    118.859
       135.   3218.699    112.370
       135.   3218.779    105.881
       135.   3218.828    101.419
       135.   3219.006    101.622
       135.   3219.087    109.328
       135.   3219.167    112.978
       135.   3219.281    116.426
       135.   3219.410    126.159
       135.   3219.475    129.809
       135.   3219.653    134.473
       135.   3219.814    141.165
       135.   3219.960    143.193
       135.   3220.073    150.696
       135.   3220.202    146.640
       135.   3220.736    141.571
       135.   3220.946    136.501
       135.   3221.124    132.851
       135.   3221.302    138.326
       135.   3221.399    142.179
       135.   3221.577    146.235
       135.   3221.738    145.018
       135.   3222.062    138.529
       135.   3222.240    131.634
       135.   3222.304    130.823
       135.   3222.530    123.117
       135.   3222.595    117.439
       135.   3222.724    113.992
       135.   3222.854    114.600
       135.   3222.886    110.342
       135.   3223.080    113.789
       135.   3223.210    115.817
       135.   3223.323    117.237
       135.   3223.549    124.740
       135.   3223.581    118.656
       135.   3223.792    120.278
       135.   3223.792    122.915
       135.   3223.986    131.432
       135.   3224.034    136.096
       135.   3224.261    132.243
       135.   3224.374    131.634
       135.   3224.455    126.768
       135.   3224.568    119.265
       135.   3224.810    121.292
       135.   3224.875    126.970
       135.   3224.972    133.257
       135.   3225.004    136.907
       135.   3225.506    144.410
       135.   3225.861    148.466
       135.   3226.088    146.438
       135.   3226.314    146.235
       135.   3226.524    143.599
       135.   3226.864    145.424
       135.   3227.139    147.857
       135.   3227.316    152.927
       135.   3227.688    153.130
       135.   3227.915    153.738
       135.   3228.076    149.277
       135.   3228.319    151.507
       135.   3228.513    149.277
       135.   3228.885    133.054
       135.   3229.240    143.801
       135.   3229.693    147.654
       135.   3230.340    130.012
       135.   3230.340    143.801
       135.   3230.388    139.543
       135.   3230.453    152.116
       135.   3230.485    121.292
       135.   3230.825    153.332
       135.   3230.954    152.724
       135.   3231.067    150.291
       135.   3231.358    146.438
       135.   3231.520    151.102
       135.   3231.682    153.941
       135.   3231.827    154.144
       135.   3231.941    150.088
       160.   3192.023    121.773
       160.   3192.172    118.359
       160.   3192.321    115.891
       160.   3192.412    118.349
       160.   3192.559    114.617
       160.   3192.725    113.214
       160.   3192.919    114.952
       160.   3192.974    113.378
       160.   3193.112    113.199
       160.   3193.348    114.935
       160.   3193.528    115.103
       160.   3193.929    114.913
       160.   3194.122    113.509
       160.   3194.330    113.675
       160.   3194.550    110.873
       160.   3194.661    109.647
       160.   3194.827    111.212
       160.   3194.937    109.462
       160.   3195.311    111.892
       160.   3195.408    111.888
       160.   3195.533    114.851
       160.   3195.616    115.197
       160.   3195.768    112.398
       160.   3195.920    112.915
       160.   3196.128    113.431
       160.   3196.293    113.076
       160.   3196.569    109.050
       160.   3196.721    109.044
       160.   3196.928    106.766
       160.   3197.135    105.362
       160.   3197.274    105.356
       160.   3197.437     95.225
       160.   3197.603     95.393
       160.   3197.688    101.151
       160.   3197.786    107.781
       160.   3197.842    112.317
       160.   3197.899    115.981
       160.   3198.023    115.977
       160.   3198.244    114.746
       160.   3198.355    116.138
       160.   3198.562    113.163
       160.   3198.700    112.284
       160.   3198.935    111.402
       160.   3199.156    109.299
       160.   3199.322    110.165
       160.   3199.446    108.764
       160.   3199.529    107.190
       160.   3199.722    106.135
       160.   3199.943    105.777
       160.   3200.135    100.183
       160.   3200.329     98.430
       160.   3200.480     93.361
       160.   3200.577     95.976
       160.   3200.660     96.671
       160.   3200.716     99.811
       160.   3200.855     99.632
       160.   3200.966    102.595
       160.   3201.036    106.433
       160.   3201.203    109.744
       160.   3201.327    109.564
       160.   3201.492    105.368
       160.   3201.810    104.657
       160.   3201.921    107.446
       160.   3202.033    109.362
       160.   3202.199    109.181
       160.   3202.254    111.100
       160.   3202.420    107.951
       160.   3202.544    107.073
       160.   3202.750    101.130
       160.   3202.860     98.856
       160.   3202.944    101.471
       160.   3203.041    102.340
       160.   3203.166    104.430
       160.   3203.291    109.139
       160.   3203.318    104.250
       160.   3203.429    105.817
       160.   3203.554    108.256
       160.   3203.650    107.030
       160.   3203.774    105.629
       160.   3203.913    106.671
       160.   3204.174    101.075
       160.   3204.271     99.849
       160.   3204.338     90.244
       160.   3204.436     95.478
       160.   3204.634    112.753
       160.   3204.760    121.128
       160.   3204.842    117.634
       160.   3204.994    114.136
       160.   3205.187    114.129
       160.   3205.382    116.565
       160.   3205.491    112.720
       160.   3205.616    112.716
       160.   3205.809    111.137
       160.   3205.961    110.782
       160.   3206.168    107.282
       160.   3206.788    100.450
       160.   3207.067    107.597
       160.   3207.275    108.636
       160.   3207.577    101.991
       160.   3207.824     93.252
       160.   3207.892     88.536
       160.   3208.044     89.228
       160.   3208.183     92.540
       160.   3208.309     97.947
       160.   3208.420     98.641
       160.   3208.463    102.655
       160.   3208.588    108.236
       160.   3208.713    107.184
       160.   3208.990    110.839
       160.   3209.072    107.694
       160.   3209.197    109.086
       160.   3209.335    108.557
       160.   3209.584    105.230
       160.   3209.791    105.047
       160.   3209.969     99.279
       160.   3210.121     99.099
       160.   3210.176     94.209
       160.   3210.230     90.715
       160.   3210.395     84.773
       160.   3210.436     82.677
       160.   3210.574     83.195
       160.   3210.700     87.380
       160.   3210.771     98.376
       160.   3210.857    107.450
       160.   3210.955    114.255
       160.   3211.026    122.283
       160.   3211.151    125.246
       160.   3211.247    121.052
       160.   3211.510    121.042
       160.   3211.744    118.764
       160.   3212.034    116.832
       160.   3212.228    115.602
       160.   3212.381    118.390
       160.   3212.463    115.768
       160.   3212.587    114.716
       160.   3212.711    112.616
       160.   3213.001    110.510
       160.   3213.181    109.106
       160.   3213.373    105.433
       160.   3213.582    108.742
       160.   3213.636    106.295
       160.   3213.858    108.906
       160.   3214.023    103.138
       160.   3214.203    104.179
       160.   3214.411    107.138
       160.   3214.576    103.466
       160.   3214.797    103.283
       160.   3215.018    101.528
       160.   3215.197     98.205
       160.   3215.432     96.101
       160.   3215.598     95.221
       160.   3215.777     93.992
       160.   3215.998     90.841
       160.   3216.219     89.262
       160.   3216.287     86.815
       160.   3216.412     86.636
       160.   3216.508     83.315
       160.   3216.618     79.819
       160.   3216.686     78.944
       160.   3216.810     74.400
       160.   3216.892     71.953
       160.   3216.975     70.029
       160.   3217.057     67.233
       160.   3217.210     68.798
       160.   3217.294     74.032
       160.   3217.406     78.916
       160.   3217.544     77.165
       160.   3217.640     75.241
       160.   3217.722     69.651
       160.   3217.767     85.012
       160.   3217.823     90.771
       160.   3218.047     98.793
       160.   3218.147    112.057
       160.   3218.185     98.613
       160.   3218.350     95.639
       160.   3218.418     89.700
       160.   3218.513     82.190
       160.   3218.650     76.249
       160.   3218.745     69.786
       160.   3218.855     64.719
       160.   3218.993     66.285
       160.   3219.050     70.298
       160.   3219.191     82.688
       160.   3219.402     98.915
       160.   3219.473    106.070
       160.   3219.544    113.574
       160.   3219.643    121.077
       160.   3219.754    124.215
       160.   3219.893    127.178
       160.   3219.963    131.016
       160.   3220.157    130.310
       160.   3220.322    128.732
       160.   3220.584    122.263
       160.   3221.008    103.043
       160.   3221.172     97.625
       160.   3221.327    109.664
       160.   3221.439    112.803
       160.   3221.605    114.716
       160.   3221.826    112.788
       160.   3221.949    105.974
       160.   3222.128    104.571
       160.   3222.142    102.999
       160.   3222.402     91.991
       160.   3222.593     80.461
       160.   3222.716     74.521
       160.   3222.744     78.360
       160.   3222.870     81.323
       160.   3222.995     82.890
       160.   3223.063     81.665
       160.   3223.189     85.326
       160.   3223.259     90.386
       160.   3223.357     94.049
       160.   3223.538     98.057
       160.   3223.689     93.512
       160.   3223.799     90.191
       160.   3223.841     93.506
       160.   3223.925     96.820
       160.   3223.967    101.706
       160.   3224.052    108.861
       160.   3224.247    113.043
       160.   3224.315    109.898
       160.   3224.356    106.230
       160.   3224.492     98.369
       160.   3224.560     93.304
       160.   3224.683     88.236
       160.   3224.793     86.137
       160.   3224.895    106.210
       160.   3224.979    112.142
       160.   3225.022    117.378
       160.   3225.161    119.991
       160.   3225.259    124.701
       160.   3225.384    126.791
       160.   3225.648    130.447
       160.   3225.759    133.061
       160.   3225.884    133.580
       160.   3225.966    131.831
       160.   3226.132    131.301
       160.   3226.367    132.165
       160.   3226.574    126.396
       160.   3226.727    130.405
       160.   3226.933    126.556
       160.   3227.168    126.024
       160.   3227.363    129.508
       160.   3227.570    128.801
       160.   3227.777    128.444
       160.   3227.985    129.484
       160.   3228.151    128.430
       160.   3228.399    123.707
       160.   3228.592    121.080
       160.   3228.769    112.868
       160.   3229.044    105.002
       160.   3229.155    107.616
       160.   3229.173    122.804
       160.   3229.352    120.702
       160.   3229.504    120.347
       160.   3229.630    123.659
       160.   3229.644    126.103
       160.   3229.837    124.349
       160.   3230.099    120.324
       160.   3230.196    118.749
       160.   3230.529    126.592
       160.   3230.710    130.775
       160.   3230.737    128.155
       160.   3230.973    130.241
       160.   3231.194    127.963
       160.   3231.595    127.598
       160.   3231.636    128.993
       160.   3231.747    129.862
       160.   3231.872    130.206
       160.   3232.010    127.932
ENDDATA            950
ENDSUBENT          963
SUBENT        C2705007   20220117   20220803   20220802       C212
BIB                  3          8
REACTION  1(28-NI-64(P,0),,EN)
          2(28-NI-64(P,EL),,WID)
          3(28-NI-64(P,N),,WID)
ERR-ANALYS (DATA-ERR) The uncertainties quoted for the widths are
           merely estimates.
STATUS     (TABLE) Tab.2 (p.414) in Nucl.Phys.A,168,406,1971
           (DEP,C2705005)
           (DEP,C2705006)
ENDBIB               8
COMMON               1          3
DATA-ERR  1
KEV
   2.
ENDCOMMON            3
DATA                 5         15
DATA      1DATA      2DATA-ERR  2DATA      3DATA-ERR  3
MEV        KEV        KEV        KEV        KEV
     3.1977        35.         5.        10.         5.
     3.2009        75.        15.       450.       100.
     3.2018        35.        10.       455.       150.
     3.2030        30.        10.       220.        75.
     3.2083       125.        25.       670.       125.
     3.2174       100.        25.        25.        15.
     3.2179       120.        30.        55.        25.
     3.2191       210.        50.        50.        25.
     3.2194       170.        50.        55.        25.
     3.2213        50.        20.       140.        50.
     3.2228        60.        15.        20.        10.
     3.2231       120.        30.       400.       100.
     3.2239       120.        30.       110.        50.
     3.2248       160.        35.        35.        15.
     3.2291        35.        10.        10.         5.
ENDDATA             17
ENDSUBENT           34
ENDENTRY             7
