ENTRY            C2730   20220415   20230306   20230304       C219
SUBENT        C2730001   20220415   20230306   20230304       C219
BIB                 11         30
TITLE      Isospin-forbidden particle decays in light nuclei (II).
           Widths of T =3/2 levels of 17O.
AUTHOR     (A.B.McDonald,T.K.Alexander,O.Hausser)
INSTITUTE  (1CANCRC)
REFERENCE  (J,NP/A,273,464,1976)
           #doi:10.1016/0375-9474(76)90604-7
FACILITY   (VDGT,1CANCRC) The Chalk River MP Tandem accelerator
SAMPLE     (6-C-13,ENR=0.9) The polymerized hydrocarbon targets
           were prepared by cracking methyl iodide onto thick
           tantalum backings by means of a radio-frequency
           discharge induced by a tesla coil. Target thickness
           ranged from 0.5 to 30 mu-g/cm2. Thickness for the
           thickest targets was determined from the energy loss
           of 5.48 MeV alpha-particles from an 241Am source.
           Target thicknesses for the thinner targets were
           determined from the relative yields of the
           13C(alpha,n0) reaction.
DETECTOR   (SCIN) Three 5 cm long by 5 cm diameter NE213 liquid
           scintillators coupled to RCA8575 photomultipliers.
           Relative neutron efficiencies were determined from the
           values tabulated by Verbinskii et al. presented
           in Nucl.Instr.,65,8,1968 for neutron detectors of
           approximately this geometry.
MONITOR    (6-C-13(A,N)8-O-16,,DA)
           Absolute cross sections were determined by normalizing
           to the cross-section measurements of Kerr et al. in
           the region of incident energy between 4.2 and 5.0 MeV.
MONIT-REF  (O0886001,G.W.Kerr+,J,NP/A,110,637,1968)
METHOD     (EXTB)
HISTORY    (20220415C) OG
ENDBIB              30
NOCOMMON             0          0
ENDSUBENT           33
SUBENT        C2730002   20220415   20230306   20230304       C219
BIB                  3          4
REACTION   (6-C-13(A,N)8-O-16,PAR,DA)
ERR-ANALYS (DATA-ERR) No information on source of uncertainties.
STATUS     (CURVE) Figs.3-6 in J,NP/A,273,464,1976 were
           digitized by GSYS2.4.7.
ENDBIB               4
COMMON               1          3
E-LVL
MEV
0.0
ENDCOMMON            3
DATA                 4        868
ANG-CM     EN         DATA-CM    DATA-ERR
ADEG       KEV        MB/SR      MB/SR
         0.   6152.316      6.533
         0.   6153.356      6.512
         0.   6154.272      6.532
         0.   6155.353      6.490
         0.   6156.352      6.678
         0.   6157.392      6.573
         0.   6158.391      6.551
         0.   6159.390      6.824
         0.   6160.388      6.508
         0.   6161.387      6.823
         0.   6162.427      6.759
         0.   6163.385      6.821
         0.   6164.466      6.800
         0.   6165.507      7.072
         0.   6166.548      7.576
         0.   6167.465      8.038
         0.   6168.423      8.857
         0.   6169.507      9.822
         0.   6170.467     11.208
         0.   6171.509     11.964
         0.   6172.507     11.628
         0.   6173.505     11.249
         0.   6174.501     10.156
         0.   6175.540      9.357
         0.   6176.537      8.894
         0.   6177.535      8.369
         0.   6178.575      8.137
         0.   6179.531      7.821
         0.   6180.529      7.611
         0.   6181.569      7.547
         0.   6182.567      7.400
         0.   6183.566      7.315
         0.   6184.523      7.462
         0.   6185.563      7.188
         0.   6186.562      7.229
         0.   6187.560      7.145
         0.   6188.559      7.270
         0.   6189.599      7.270
         0.   6190.556      7.122
         0.   6191.554      7.080
         0.   6192.552      6.848
         0.   6193.593      6.847
         0.   7952.846      8.102      0.211
         0.   7953.911      8.054      0.259
         0.   7954.973      7.881      0.230
         0.   7955.906      8.235      0.220
         0.   7956.896      8.023      0.230
         0.   7957.951      7.534      0.201
         0.   7958.950      7.678      0.220
         0.   7959.955      8.089      0.220
         0.   7960.948      8.003      0.220
         0.   7961.994      7.149      0.211
         0.   7962.926      7.465      0.211
         0.   7963.926      7.695      0.211
         0.   7964.921      7.656      0.220
         0.   7965.917      7.713      0.220
         0.   7966.910      7.617      0.211
         0.   7967.975      7.539      0.211
         0.   7968.900      7.597      0.201
         0.   7969.907      8.085      0.211
         0.   7970.964      7.672      0.192
         0.   7971.902      8.285      0.220
         0.   7972.888      7.882      0.220
         0.   7973.888      8.093      0.240
         0.   7974.817      8.265      0.221
         0.   7975.894      8.725      0.259
         0.   7976.838      9.568      0.268
         0.   7977.769      9.855      0.259
         0.   7978.839      9.998      0.249
         0.   7979.830      9.835      0.259
         0.   7980.890      9.566      0.249
         0.   7981.877      9.192      0.220
         0.   7982.864      8.865      0.230
         0.   7983.852      8.558      0.268
         0.   7984.968      7.666      0.240
         0.   7985.952      7.177      0.201
         0.   7987.009      6.774      0.211
         0.   7987.983      5.882      0.201
         0.   7988.983      6.102      0.211
         0.   7990.037      5.565      0.182
         0.   7991.029      5.440      0.201
         0.   7992.012      4.893      0.192
         0.   7993.017      5.324      0.182
         0.   7994.010      5.238      0.172
         0.   7994.932      5.151      0.173
         0.   7996.060      4.719      0.201
         0.   7996.988      4.910      0.163
         0.   7998.058      5.034      0.201
         0.   7999.045      4.679      0.182
         0.   8000.044      4.842      0.192
         0.   8601.016      5.337      0.098
         0.   8601.503      5.547      0.081
         0.   8602.012      5.546      0.067
         0.   8602.500      5.270      0.074
         0.   8602.990      5.576      0.079
         0.   8603.514      5.577      0.072
         0.   8604.022      5.496      0.086
         0.   8604.508      5.658      0.088
         0.   8605.024      5.732      0.065
         0.   8605.523      5.446      0.063
         0.   8606.013      5.818      0.073
         0.   8606.547      5.737      0.090
         0.   8607.004      5.812      0.082
         0.   8607.546      6.098      0.089
         0.   8608.026      5.968      0.086
         0.   8608.530      5.687      0.081
         0.   8609.018      5.940      0.097
         0.   8609.527      5.918      0.087
         0.   8610.006      5.766      0.090
         0.   8610.546      5.928      0.097
         0.   8611.029      6.029      0.083
         0.   8611.510      5.873      0.095
         0.   8612.013      5.587      0.074
         0.   8612.534      5.980      0.072
         0.   8613.012      6.123      0.086
         0.   8613.519      5.801      0.067
         0.   8613.976      5.882      0.078
         0.   8614.478      6.114      0.080
         0.   8615.049      5.897      0.090
         0.   8615.524      5.535      0.072
         0.   8616.032      5.454      0.084
         0.   8616.568      5.443      0.064
         0.   8617.020      5.264      0.067
         0.   8617.507      5.469      0.072
         0.   8618.046      6.151      0.096
         0.   8618.502      5.603      0.077
         0.   8619.040      6.349      0.072
         0.   8619.553      6.205      0.076
         0.   8619.999      6.740      0.072
         0.   8620.554      6.747      0.080
         0.   8620.987      6.579      0.080
         0.   8621.551      7.057      0.080
         0.   8622.034      6.963      0.088
         0.   8622.502      7.081      0.104
         0.   8622.975      6.929      0.088
         0.   8623.567      6.800      0.096
         0.   8623.971      7.183      0.101
         0.   8624.525      7.175      0.080
         0.   8625.001      7.174      0.088
         0.   8625.513      7.006      0.074
         0.   8626.026      6.934      0.080
         0.   8626.467      7.189      0.080
         0.   8627.020      7.069      0.088
         0.   8627.459      7.228      0.111
         0.   8628.050      7.092      0.087
         0.   8628.519      6.765      0.096
         0.   8629.033      6.700      0.096
         0.   8629.441      7.266      0.104
         0.   8667.580      7.283      0.134
         0.   8668.633      7.319      0.116
         0.   8669.598      7.345      0.134
         0.   8670.610      7.703      0.152
         0.   8671.612      6.942      0.143
         0.   8672.704      6.459      0.134
         0.   8673.674      6.977      0.134
         0.   8674.681      6.825      0.143
         0.   8675.689      6.699      0.134
         0.   8676.697      6.672      0.152
         0.   8677.618      6.564      0.125
         0.   8678.669      6.438      0.143
         0.   8679.670      5.499      0.107
         0.   8680.802      4.586      0.098
         0.   8681.849      3.942      0.107
         0.   8682.773      4.237      0.107
         0.   8683.739      4.397      0.098
         0.   8684.745      4.093      0.107
         0.   8685.798      4.101      0.098
         0.   8686.808      4.235      0.098
         0.   8687.687      4.485      0.090
         0.   8688.698      4.762      0.134
         0.   8689.708      4.914      0.107
         0.   8690.629      4.914      0.089
         0.   8691.724      4.690      0.125
         0.   8692.731      4.475      0.107
         0.   8693.697      4.581      0.107
        60.   6152.743      4.521      0.069
        60.   6153.767      4.805      0.067
        60.   6154.844      4.612      0.078
        60.   6155.851      4.666      0.068
        60.   6156.843      4.550      0.092
        60.   6157.862      4.650      0.059
        60.   6158.883      4.372      0.073
        60.   6159.966      4.405      0.061
        60.   6160.930      4.355      0.059
        60.   6161.953      4.133      0.061
        60.   6162.987      4.236      0.060
        60.   6163.993      4.153      0.054
        60.   6164.971      4.066      0.059
        60.   6166.008      4.036      0.062
        60.   6167.016      3.630      0.061
        60.   6168.065      3.428      0.064
        60.   6169.036      3.341      0.059
        60.   6170.140      3.333      0.044
        60.   6171.110      3.792      0.076
        60.   6171.908      4.411      0.048
        60.   6172.871      4.866      0.071
        60.   6173.892      5.196      0.087
        60.   6174.945      5.238      0.073
        60.   6175.865      5.214      0.078
        60.   6176.935      5.059      0.083
        60.   6177.868      5.226      0.059
        60.   6178.945      4.881      0.072
        60.   6179.881      4.859      0.085
        60.   6180.874      4.735      0.063
        60.   6181.961      4.806      0.060
        60.   6182.929      4.694      0.083
        60.   6183.990      4.723      0.062
        60.   6185.004      4.199      0.076
        60.   6185.957      4.541      0.073
        60.   6186.965      4.518      0.088
        60.   6187.998      4.532      0.072
        60.   6188.966      4.755      0.059
        60.   6189.966      4.620      0.080
        60.   6190.994      4.473      0.054
        60.   6191.925      4.685      0.069
        60.   6192.931      4.691      0.078
        60.   6194.028      4.203      0.068
        61.   7952.904      1.832      0.046
        61.   7953.896      1.795      0.050
        61.   7954.890      1.777      0.048
        61.   7955.973      1.733      0.048
        61.   7956.885      1.815      0.050
        61.   7957.961      1.699      0.041
        61.   7958.868      1.722      0.050
        61.   7959.945      1.612      0.041
        61.   7961.038      1.692      0.043
        61.   7961.937      1.628      0.041
        61.   7962.933      1.628      0.039
        61.   7964.016      1.596      0.043
        61.   7965.005      1.520      0.041
        61.   7966.003      1.545      0.041
        61.   7966.998      1.541      0.039
        61.   7967.810      1.504      0.037
        61.   7968.891      1.449      0.037
        61.   7969.973      1.406      0.039
        61.   7970.973      1.454      0.039
        61.   7972.052      1.374      0.039
        61.   7973.048      1.376      0.039
        61.   7973.953      1.374      0.039
        61.   7974.941      1.289      0.041
        61.   7975.839      1.209      0.048
        61.   7976.925      1.204      0.043
        61.   7978.103      1.218      0.041
        61.   7978.814      1.072      0.041
        61.   7979.993      1.104      0.037
        61.   7980.986      1.065      0.041
        61.   7981.975      0.994      0.041
        61.   7982.883      1.031      0.041
        61.   7983.880      1.037      0.039
        61.   7984.969      1.076      0.039
        61.   7985.875      1.083      0.041
        61.   7986.869      1.067      0.041
        61.   7987.873      1.158      0.041
        61.   7988.875      1.224      0.037
        61.   7989.955      1.158      0.034
        61.   7990.858      1.140      0.039
        61.   7991.769      1.201      0.037
        61.   7992.853      1.174      0.034
        61.   7993.757      1.162      0.032
        61.   7994.842      1.153      0.032
        61.   7995.748      1.158      0.037
        61.   7996.835      1.174      0.032
        61.   7997.830      1.169      0.039
        61.   7998.921      1.222      0.034
        61.   7999.823      1.185      0.034
        61.   8600.992      2.052      0.047
        61.   8601.501      2.066      0.035
        61.   8601.984      2.189      0.041
        61.   8602.493      2.087      0.037
        61.   8602.976      2.093      0.035
        61.   8603.485      2.083      0.037
        61.   8603.995      2.062      0.033
        61.   8604.477      2.012      0.047
        61.   8605.013      2.032      0.041
        61.   8605.496      2.030      0.039
        61.   8606.005      2.005      0.043
        61.   8606.515      1.971      0.043
        61.   8606.971      2.028      0.045
        61.   8607.507      2.036      0.035
        61.   8608.016      1.973      0.033
        61.   8608.445      1.973      0.031
        61.   8608.981      1.948      0.037
        61.   8609.517      1.948      0.035
        61.   8610.027      1.961      0.043
        61.   8610.509      2.056      0.037
        61.   8611.019      1.981      0.041
        61.   8611.475      1.967      0.043
        61.   8611.957      2.054      0.039
        61.   8612.466      1.898      0.035
        61.   8612.976      1.914      0.037
        61.   8613.512      1.948      0.043
        61.   8614.021      1.849      0.045
        61.   8614.531      1.989      0.033
        61.   8614.960      1.918      0.041
        61.   8615.469      1.948      0.037
        61.   8615.979      2.062      0.039
        61.   8616.461      1.942      0.047
        61.   8616.971      1.916      0.028
        61.   8617.480      1.851      0.037
        61.   8617.989      1.682      0.031
        61.   8618.472      1.727      0.037
        61.   8618.981      1.664      0.026
        61.   8619.491      1.584      0.037
        61.   8620.054      1.558      0.039
        61.   8620.590      1.607      0.043
        61.   8620.992      1.651      0.031
        61.   8621.528      1.627      0.031
        61.   8621.984      1.684      0.033
        61.   8622.547      1.590      0.039
        61.   8623.003      1.651      0.035
        61.   8623.539      1.611      0.035
        61.   8624.021      1.586      0.031
        61.   8624.504      1.580      0.033
        61.   8625.067      1.611      0.035
        61.   8625.523      1.637      0.035
        61.   8626.032      1.625      0.031
        61.   8626.542      1.609      0.031
        61.   8627.024      1.629      0.035
        61.   8627.560      1.625      0.031
        61.   8628.043      1.568      0.039
        61.   8628.552      1.641      0.037
        61.   8629.035      1.578      0.035
        61.   8629.517      1.647      0.039
        61.   8668.141      1.607      0.049
        61.   8669.148      1.584      0.051
        61.   8670.155      1.535      0.047
        61.   8671.172      1.716      0.047
        61.   8672.218      1.582      0.051
        61.   8673.146      1.740      0.054
        61.   8674.109      1.682      0.045
        61.   8675.160      1.657      0.054
        61.   8676.170      1.673      0.051
        61.   8677.177      1.646      0.051
        61.   8678.142      1.628      0.054
        61.   8679.070      1.789      0.049
        61.   8680.119      1.706      0.054
        61.   8681.085      1.741      0.054
        61.   8682.054      1.826      0.056
        61.   8683.059      1.743      0.056
        61.   8684.111      1.730      0.056
        61.   8684.995      1.891      0.054
        61.   8686.000      1.797      0.049
        61.   8687.137      1.734      0.047
        61.   8688.058      1.727      0.056
        61.   8688.943      1.908      0.051
        61.   8690.038      1.874      0.051
        61.   8691.002      1.854      0.051
        61.   8692.007      1.756      0.047
        61.   8693.015      1.747      0.045
        61.   8693.978      1.711      0.056
        76.   6152.840      3.523      0.062
        76.   6153.876      3.505      0.080
        76.   6154.934      3.454      0.065
        76.   6155.886      3.274      0.080
        76.   6156.930      3.361      0.056
        76.   6157.932      3.449      0.065
        76.   6158.937      3.218      0.062
        76.   6159.915      3.173      0.062
        76.   6161.006      3.020      0.059
        76.   6162.015      3.099      0.083
        76.   6162.988      2.804      0.047
        76.   6164.025      2.854      0.050
        76.   6165.031      2.754      0.050
        76.   6166.065      2.633      0.068
        76.   6167.030      2.438      0.045
        76.   6168.099      2.214      0.041
        76.   6169.048      2.155      0.062
        76.   6170.139      2.004      0.041
        76.   6171.095      2.284      0.053
        76.   6172.080      2.546      0.050
        76.   6173.135      2.989      0.063
        76.   6174.143      3.338      0.065
        76.   6175.191      3.463      0.051
        76.   6176.107      3.629      0.074
        76.   6177.102      3.616      0.060
        76.   6178.094      3.658      0.077
        76.   6179.012      3.498      0.062
        76.   6180.192      3.507      0.082
        76.   6181.167      3.319      0.056
        76.   6182.174      3.289      0.047
        76.   6183.151      3.191      0.056
        76.   6184.184      3.041      0.041
        76.   6185.220      3.011      0.062
        76.   6186.174      3.161      0.056
        76.   6187.178      2.996      0.056
        76.   6188.192      3.293      0.062
        76.   6189.254      3.137      0.044
        76.   6190.174      3.084      0.059
        76.   6191.181      3.066      0.065
        76.   6192.219      3.113      0.056
        76.   6193.226      3.086      0.056
        76.   6194.264      3.148      0.053
        77.   8608.247      1.578      0.016
        77.   8608.840      1.697      0.022
        77.   8609.293      1.656      0.021
        77.   8609.802      1.651      0.016
        77.   8610.310      1.634      0.018
        77.   8610.792      1.644      0.018
        77.   8611.326      1.601      0.021
        77.   8611.807      1.583      0.023
        77.   8612.318      1.657      0.015
        77.   8612.826      1.649      0.019
        77.   8613.308      1.645      0.021
        77.   8613.815      1.615      0.018
        77.   8614.321      1.546      0.018
        77.   8614.778      1.587      0.016
        77.   8615.286      1.558      0.016
        77.   8615.823      1.605      0.022
        77.   8616.278      1.606      0.019
        77.   8616.786      1.598      0.018
        77.   8617.294      1.577      0.019
        77.   8617.775      1.564      0.019
        77.   8618.283      1.540      0.019
        77.   8618.792      1.573      0.021
        77.   8619.300      1.551      0.016
        77.   8619.809      1.557      0.015
        77.   8620.292      1.600      0.018
        77.   8620.803      1.651      0.019
        77.   8621.283      1.610      0.023
        77.   8621.764      1.591      0.021
        77.   8622.299      1.566      0.018
        77.   8622.809      1.623      0.019
        77.   8623.317      1.603      0.018
        77.   8623.798      1.581      0.021
        77.   8624.281      1.604      0.016
        77.   8624.789      1.597      0.019
        77.   8625.298      1.615      0.021
        77.   8625.778      1.563      0.018
        77.   8626.260      1.570      0.022
        77.   8626.769      1.572      0.023
        77.   8627.278      1.587      0.022
        77.   8665.620      1.409      0.061
        77.   8666.633      1.574      0.064
        77.   8667.638      1.442      0.061
        77.   8668.656      1.743      0.071
        77.   8669.625      1.911      0.084
        77.   8670.595      2.063      0.098
        77.   8671.605      2.104      0.068
        77.   8672.565      1.955      0.081
        77.   8673.620      2.029      0.078
        77.   8674.583      1.975      0.078
        77.   8675.550      2.032      0.081
        77.   8676.598      1.870      0.074
        77.   8677.608      1.927      0.081
        77.   8678.578      2.096      0.081
        77.   8679.593      2.318      0.084
        77.   8680.556      2.241      0.084
        77.   8681.564      2.223      0.084
        77.   8682.569      2.095      0.081
        77.   8683.577      2.075      0.074
        77.   8684.539      1.959      0.071
        77.   8685.591      1.929      0.084
        77.   8686.556      1.935      0.078
        77.   8687.566      1.996      0.078
        77.   8688.525      1.759      0.078
        77.   8689.536      1.844      0.071
        77.   8690.498      1.752      0.068
        77.   8691.515      2.039      0.084
        77.   8692.519      1.857      0.078
        77.   8693.486      1.961      0.071
        77.   8694.495      1.958      0.071
        77.   8695.458      1.887      0.071
        77.   8696.469      1.957      0.078
        77.   8697.476      1.896      0.081
        97.   6153.347      2.635      0.063
        97.   6154.279      2.716      0.067
        97.   6155.355      2.753      0.053
        97.   6156.287      2.662      0.054
        97.   6157.363      2.646      0.065
        97.   6158.438      2.571      0.054
        97.   6159.442      2.491      0.061
        97.   6160.375      2.501      0.062
        97.   6161.307      2.533      0.062
        97.   6162.454      2.464      0.066
        97.   6163.387      2.303      0.053
        97.   6164.391      2.223      0.048
        97.   6165.467      2.164      0.054
        97.   6166.399      2.099      0.043
        97.   6167.355      1.958      0.054
        97.   6168.406      1.656      0.036
        97.   6169.376      1.523      0.054
        97.   6170.508      1.384      0.054
        97.   6171.478      1.517      0.042
        97.   6172.487      1.733      0.041
        97.   6173.499      2.060      0.048
        97.   6174.550      2.465      0.048
        97.   6175.682      2.640      0.048
        97.   6176.583      2.673      0.059
        97.   6177.515      2.625      0.048
        97.   6178.662      2.726      0.043
        97.   6179.738      2.630      0.054
        97.   6180.670      2.860      0.069
        97.   6181.603      2.667      0.038
        97.   6182.678      2.533      0.072
        97.   6183.611      2.533      0.053
        97.   6184.758      2.560      0.057
        97.   6185.690      2.512      0.054
        97.   6186.694      2.555      0.054
        97.   6187.627      2.410      0.068
        97.   6188.631      2.496      0.066
        97.   6189.850      2.416      0.055
        97.   6190.711      2.362      0.063
        97.   6191.715      2.378      0.054
        97.   6192.647      2.475      0.048
        97.   6193.723      2.448      0.054
        97.   6194.798      2.217      0.038
        97.   8601.002      1.289      0.041
        97.   8601.548      1.185      0.038
        97.   8602.056      1.269      0.040
        97.   8602.527      1.280      0.046
        97.   8603.042      1.169      0.037
        97.   8603.608      1.247      0.043
        97.   8604.074      1.219      0.044
        97.   8604.572      1.208      0.031
        97.   8605.072      1.220      0.043
        97.   8605.538      1.199      0.040
        97.   8606.034      1.174      0.038
        97.   8606.567      1.219      0.044
        97.   8607.068      1.231      0.043
        97.   8607.563      1.206      0.040
        97.   8608.067      1.245      0.043
        97.   8608.584      1.157      0.038
        97.   8609.044      1.077      0.038
        97.   8609.553      1.168      0.037
        97.   8610.054      1.186      0.041
        97.   8610.551      1.172      0.037
        97.   8611.059      1.250      0.038
        97.   8611.559      1.262      0.041
        97.   8612.049      1.190      0.043
        97.   8612.553      1.235      0.040
        97.   8613.051      1.223      0.038
        97.   8613.523      1.251      0.038
        97.   8614.044      1.189      0.040
        97.   8614.545      1.207      0.044
        97.   8615.040      1.180      0.037
        97.   8615.547      1.246      0.043
        97.   8616.066      1.177      0.038
        97.   8616.548      1.035      0.035
        97.   8617.041      0.983      0.037
        97.   8617.509      0.977      0.038
        97.   8618.054      0.870      0.034
        97.   8618.515      0.798      0.034
        97.   8619.018      0.835      0.034
        97.   8619.516      0.826      0.034
        97.   8620.026      0.929      0.035
        97.   8620.504      0.998      0.040
        97.   8621.058      0.967      0.034
        97.   8621.529      0.982      0.038
        97.   8622.061      1.020      0.037
        97.   8622.559      1.017      0.040
        97.   8623.031      1.034      0.035
        97.   8623.567      1.104      0.035
        97.   8624.032      1.069      0.043
        97.   8624.571      1.164      0.038
        97.   8625.066      1.130      0.041
        97.   8625.541      1.172      0.041
        97.   8626.044      1.215      0.040
        97.   8626.566      1.159      0.037
        97.   8627.035      1.157      0.037
        97.   8627.558      1.117      0.037
        97.   8628.069      1.223      0.037
        97.   8628.528      1.133      0.037
        97.   8629.041      1.254      0.035
        97.   8629.490      1.335      0.044
        97.   8667.650      1.307      0.052
        97.   8668.670      1.278      0.052
        97.   8669.601      1.354      0.054
        97.   8670.621      1.388      0.056
        97.   8671.641      1.294      0.049
        97.   8672.616      1.374      0.049
        97.   8673.592      1.406      0.052
        97.   8674.612      1.361      0.049
        97.   8675.632      1.339      0.054
        97.   8676.563      1.424      0.052
        97.   8677.627      1.377      0.056
        97.   8678.559      1.522      0.052
        97.   8679.490      1.637      0.058
        97.   8680.510      1.601      0.049
        97.   8681.574      1.457      0.054
        97.   8682.683      1.184      0.047
        97.   8683.703      1.148      0.047
        97.   8684.678      1.063      0.045
        97.   8685.698      1.130      0.045
        97.   8686.718      1.061      0.040
        97.   8687.694      1.101      0.040
        97.   8688.714      1.135      0.043
        97.   8689.690      1.103      0.040
        97.   8690.710      1.110      0.047
        97.   8691.685      1.170      0.052
        97.   8692.661      1.094      0.045
        97.   8693.681      1.150      0.049
       131.   6153.022      4.554      0.089
       131.   6154.028      4.622      0.096
       131.   6155.091      4.520      0.082
       131.   6156.211      4.403      0.069
       131.   6157.105      4.472      0.075
       131.   6158.112      4.431      0.075
       131.   6159.177      4.253      0.082
       131.   6160.071      4.294      0.075
       131.   6161.189      4.335      0.069
       131.   6162.141      4.192      0.075
       131.   6163.208      3.788      0.069
       131.   6164.212      4.014      0.075
       131.   6165.162      4.076      0.089
       131.   6166.226      3.953      0.069
       131.   6167.236      3.699      0.089
       131.   6168.245      3.439      0.062
       131.   6170.263      2.980      0.089
       131.   6171.275      2.384      0.082
       131.   6172.394      2.343      0.069
       131.   6173.344      2.432      0.075
       131.   6174.348      2.754      0.075
       131.   6175.353      2.871      0.075
       131.   6176.244      3.276      0.082
       131.   6177.305      3.433      0.082
       131.   6178.366      3.612      0.075
       131.   6179.372      3.680      0.075
       131.   6180.323      3.619      0.075
       131.   6181.442      3.592      0.075
       131.   6182.392      3.653      0.062
       131.   6183.399      3.612      0.075
       131.   6184.405      3.647      0.075
       131.   6185.414      3.441      0.082
       131.   6186.420      3.483      0.089
       131.   6187.483      3.490      0.082
       131.   6188.432      3.675      0.069
       131.   6189.440      3.545      0.069
       131.   6190.444      3.819      0.075
       131.   6191.509      3.573      0.082
       131.   6192.348      3.600      0.089
       131.   6193.408      3.847      0.075
       131.   6194.471      3.792      0.082
       131.   6195.478      3.779      0.062
       131.   8608.220      1.905      0.013
       131.   8608.842      1.966      0.017
       131.   8609.341      1.975      0.011
       131.   8609.841      1.984      0.021
       131.   8610.341      1.990      0.015
       131.   8610.840      1.993      0.021
       131.   8611.328      1.866      0.011
       131.   8611.829      1.887      0.015
       131.   8612.366      1.987      0.015
       131.   8612.838      2.010      0.015
       131.   8613.341      2.059      0.015
       131.   8613.834      1.994      0.019
       131.   8614.333      1.988      0.013
       131.   8614.863      2.007      0.013
       131.   8615.355      1.935      0.017
       131.   8615.854      1.931      0.013
       131.   8616.357      1.972      0.011
       131.   8616.882      1.938      0.019
       131.   8617.355      1.978      0.017
       131.   8617.856      1.994      0.019
       131.   8618.358      2.028      0.017
       131.   8618.849      1.943      0.019
       131.   8619.340      1.854      0.015
       131.   8619.872      1.886      0.015
       131.   8620.375      1.931      0.019
       131.   8620.882      2.022      0.017
       131.   8621.378      1.987      0.017
       131.   8621.878      2.004      0.021
       131.   8622.343      1.945      0.015
       131.   8622.874      1.981      0.019
       131.   8623.372      1.968      0.019
       131.   8623.880      2.066      0.017
       131.   8624.415      2.140      0.017
       131.   8624.874      2.018      0.021
       131.   8625.400      1.990      0.013
       131.   8625.925      1.954      0.017
       131.   8626.390      1.906      0.017
       131.   8626.902      2.054      0.013
       131.   8627.397      2.002      0.015
       131.   8665.211      2.100      0.049
       131.   8666.231      2.038      0.043
       131.   8667.206      1.986      0.046
       131.   8668.226      1.950      0.046
       131.   8669.246      1.776      0.043
       131.   8670.222      1.802      0.039
       131.   8671.242      1.743      0.039
       131.   8672.217      1.730      0.033
       131.   8673.282      1.681      0.043
       131.   8674.257      1.675      0.046
       131.   8675.233      1.658      0.043
       131.   8676.208      1.694      0.046
       131.   8677.184      1.750      0.049
       131.   8678.204      1.865      0.043
       131.   8679.180      1.861      0.046
       131.   8680.200      1.868      0.043
       131.   8681.175      1.914      0.052
       131.   8682.195      1.855      0.052
       131.   8683.259      1.740      0.049
       131.   8684.146      1.635      0.039
       131.   8685.166      1.711      0.039
       131.   8686.231      1.668      0.043
       131.   8687.206      1.707      0.039
       131.   8688.226      1.730      0.029
       131.   8689.246      1.671      0.033
       131.   8690.222      1.635      0.052
       131.   8691.197      1.596      0.039
       131.   8692.217      1.590      0.046
       131.   8693.237      1.616      0.036
       131.   8694.213      1.560      0.043
       131.   8695.233      1.616      0.039
       131.   8696.208      1.583      0.046
       131.   8697.228      1.488      0.036
       149.   6153.569      4.788      0.091
       149.   6154.578      4.686      0.101
       149.   6155.594      4.821      0.083
       149.   6156.601      4.601      0.068
       149.   6157.617      4.736      0.076
       149.   6158.625      4.592      0.078
       149.   6159.641      4.693      0.085
       149.   6160.650      4.583      0.076
       149.   6161.598      4.675      0.072
       149.   6162.608      4.616      0.076
       149.   6163.549      4.464      0.073
       149.   6164.631      4.547      0.075
       149.   6165.644      4.555      0.090
       149.   6166.593      4.681      0.076
       149.   6167.587      4.506      0.094
       149.   6168.677      4.394      0.076
       149.   6169.750      4.150      0.093
       149.   6170.551      3.812      0.067
       149.   6171.620      3.425      0.084
       149.   6172.693      3.138      0.084
       149.   6173.702      3.045      0.067
       149.   6174.718      3.171      0.076
       149.   6175.734      3.280      0.079
       149.   6176.753      3.515      0.076
       149.   6177.697      3.498      0.080
       149.   6178.643      3.959      0.080
       149.   6179.665      3.884      0.084
       149.   6180.682      4.035      0.077
       149.   6181.633      4.052      0.060
       149.   6182.637      3.967      0.059
       149.   6183.588      4.177      0.081
       149.   6184.666      4.126      0.076
       149.   6185.733      3.996      0.089
       149.   6186.690      4.025      0.084
       149.   6187.690      4.179      0.075
       149.   6188.646      4.194      0.070
       149.   6189.680      4.129      0.079
       149.   6190.674      4.141      0.084
       149.   6191.619      4.140      0.093
       149.   6192.766      4.131      0.076
       149.   6193.648      4.291      0.084
       149.   6194.594      4.324      0.067
       149.   6195.742      4.332      0.118
       149.   7953.354      1.701      0.046
       149.   7954.248      1.805      0.051
       149.   7955.348      1.678      0.049
       149.   7956.348      1.636      0.051
       149.   7957.339      1.680      0.049
       149.   7958.344      1.599      0.056
       149.   7959.242      1.659      0.051
       149.   7960.335      1.597      0.053
       149.   7961.432      1.509      0.044
       149.   7962.334      1.537      0.042
       149.   7963.418      1.556      0.039
       149.   7964.330      1.496      0.044
       149.   7965.425      1.415      0.042
       149.   7966.420      1.420      0.042
       149.   7967.410      1.466      0.039
       149.   7968.317      1.454      0.049
       149.   7969.327      1.325      0.044
       149.   7970.407      1.378      0.051
       149.   7971.316      1.351      0.058
       149.   7972.401      1.353      0.039
       149.   7973.410      1.240      0.039
       149.   7974.302      1.355      0.046
       149.   7975.219      1.247      0.042
       149.   7976.485      1.261      0.049
       149.   7977.486      1.210      0.044
       149.   7978.309      1.141      0.042
       149.   7979.391      1.180      0.042
       149.   7980.391      1.136      0.037
       149.   7981.487      1.051      0.042
       149.   7982.387      1.099      0.042
       149.   7983.461      1.203      0.042
       149.   7984.378      1.097      0.039
       149.   7985.459      1.141      0.039
       149.   7986.368      1.107      0.042
       149.   7987.258      1.243      0.042
       149.   7988.261      1.178      0.042
       149.   7989.245      1.280      0.051
       149.   7990.244      1.253      0.046
       149.   7991.418      1.280      0.046
       149.   7992.425      1.176      0.037
       149.   7993.321      1.257      0.046
       149.   7994.317      1.255      0.044
       149.   7995.222      1.255      0.032
       149.   7996.304      1.288      0.049
       149.   7997.309      1.209      0.042
       149.   7998.306      1.193      0.053
       149.   7999.385      1.258      0.044
       149.   8000.285      1.309      0.049
       149.   8608.476      1.896      0.024
       149.   8609.020      1.949      0.018
       149.   8609.560      1.922      0.013
       149.   8610.062      1.904      0.021
       149.   8610.565      1.907      0.024
       149.   8611.030      1.912      0.021
       149.   8611.570      1.883      0.013
       149.   8612.073      1.888      0.016
       149.   8612.540      1.951      0.016
       149.   8613.083      1.979      0.016
       149.   8613.582      1.909      0.016
       149.   8614.007      1.893      0.018
       149.   8614.586      1.872      0.013
       149.   8615.051      1.885      0.016
       149.   8615.591      1.853      0.018
       149.   8616.059      1.942      0.013
       149.   8616.483      1.908      0.013
       149.   8617.063      1.884      0.018
       149.   8617.604      1.892      0.018
       149.   8618.108      1.910      0.021
       149.   8618.572      1.908      0.018
       149.   8619.037      1.931      0.018
       149.   8619.578      1.905      0.016
       149.   8620.003      1.907      0.016
       149.   8620.585      1.941      0.021
       149.   8621.051      1.975      0.018
       149.   8621.553      1.959      0.018
       149.   8622.094      1.959      0.024
       149.   8622.596      1.943      0.016
       149.   8623.022      1.949      0.018
       149.   8623.564      1.962      0.018
       149.   8624.067      1.948      0.018
       149.   8624.572      2.006      0.024
       149.   8625.076      2.040      0.013
       149.   8625.576      1.969      0.018
       149.   8626.080      1.992      0.018
       149.   8626.542      1.935      0.013
       149.   8627.087      2.018      0.016
       149.   8627.549      1.979      0.018
       149.   8665.355      2.272      0.061
       149.   8666.403      2.427      0.054
       149.   8667.392      2.250      0.047
       149.   8668.388      2.117      0.047
       149.   8669.398      2.059      0.054
       149.   8670.370      2.037      0.061
       149.   8671.374      1.949      0.057
       149.   8672.349      1.944      0.057
       149.   8673.325      1.947      0.044
       149.   8674.342      1.929      0.047
       149.   8675.353      1.877      0.044
       149.   8676.362      1.818      0.047
       149.   8677.396      1.892      0.051
       149.   8678.362      2.090      0.044
       149.   8679.362      1.977      0.044
       149.   8680.387      2.257      0.048
       149.   8681.318      2.003      0.044
       149.   8682.342      2.025      0.054
       149.   8683.372      1.831      0.051
       149.   8684.394      1.841      0.041
       149.   8685.361      1.792      0.041
       149.   8686.392      1.852      0.044
       149.   8687.363      1.831      0.041
       149.   8688.389      1.863      0.054
       149.   8689.345      1.751      0.047
       149.   8690.322      1.760      0.044
       149.   8691.369      1.661      0.041
       149.   8692.357      1.728      0.047
       149.   8693.293      1.754      0.037
       149.   8694.347      1.699      0.044
       149.   8695.322      1.694      0.040
       149.   8696.375      1.629      0.047
       149.   8697.357      1.662      0.037
ENDDATA            870
ENDSUBENT          883
ENDENTRY             2
