ENTRY            C2794   20220815   20231218   20231218       C228
SUBENT        C2794001   20220815   20231218   20231218       C228
BIB                 10         22
TITLE      Elastic scattering of alpha-particles by 54Fe from 8
           to 15 MeV
AUTHOR     (B.Yaramis,D.D.Tolbert,R.H.Davis)
INSTITUTE  (1USAFSU)
REFERENCE  (J,NP/A,215,197,1973)
           #doi:10.1016/0375-9474(73)90111-5
FACILITY   (VDGT,1USAFSU) The Florida State University FN tandem
           Van de Graaff.
SAMPLE     (26-FE-54,ENR=0.99) A self-supporting target, 1 mg/cm2
           in thickness.
DETECTOR   (SIBAR) Fourteen surface barrier detectors placed in a
           multiple detector array at 10 degrees intervals
           constituted the detection system, whose angular
           resolution was approximately 1 degree.
ERR-ANALYS (DATA-ERR) The error in the cross sections ranged
           from <=6% at forward angles where it was difficult to
           separate the elastic peak from the oxygen and carbon
           contaminants, to <=8% at backward angles where the
           background was difficult to estimate. No further
           information on source of uncertainties.
ADD-RES    (POT) Optical model calculations
HISTORY    (20220807C) OG
ENDBIB              22
NOCOMMON             0          0
ENDSUBENT           25
SUBENT        C2794002   20220815   20231218   20231218       C228
BIB                  2          4
REACTION   (26-FE-54(A,EL)26-FE-54,,DA,,RTH)
STATUS     (CURVE) Fig.1 (p.200) in J,NP/A,215,197,1973 was
           digitized by GSYS-2.4.9.
           (COREL,C2794003) Angular distribution
ENDBIB               4
NOCOMMON             0          0
DATA                 4        336
ANG-CM     EN         DATA       DATA-ERR
ADEG       MEV        NO-DIM     NO-DIM
      26.79      8.122      1.000      0.059
      26.79      8.609      1.020      0.054
      26.79      9.096      0.990      0.054
      26.79      9.583      0.970      0.062
      26.79     10.082      0.997      0.059
      26.79     10.581      0.980      0.062
      26.79     11.092      0.958      0.057
      26.79     11.591      0.958      0.064
      26.79     12.090      0.988      0.062
      26.79     12.602      1.027      0.059
      26.79     13.089      0.995      0.064
      26.79     15.085      1.032      0.074
      32.12      8.061      0.980      0.051
      32.12      8.560      0.958      0.051
      32.12      9.083      0.958      0.051
      32.12      9.558      0.995      0.064
      32.12     10.070      0.990      0.061
      32.12     10.569      0.958      0.064
      32.12     11.068      0.954      0.054
      32.12     11.579      1.015      0.059
      32.12     12.066      1.010      0.056
      32.12     12.565      1.022      0.059
      32.12     13.052      1.044      0.051
      32.12     15.061      0.951      0.061
      37.44      8.002      1.017      0.051
      37.44      8.501      0.966      0.051
      37.44      9.000      0.993      0.051
      37.44      9.499      1.030      0.063
      37.44      9.998      1.054      0.061
      37.44     10.497      1.018      0.063
      37.44     11.009      0.994      0.053
      37.44     11.496      0.994      0.058
      37.44     12.007      1.016      0.056
      37.44     12.506      1.024      0.058
      37.44     13.005      1.048      0.046
      37.44     14.979      0.833      0.049
      42.73      8.068      0.992      0.059
      42.73      8.581      1.000      0.051
      42.73      9.057      0.968      0.049
      42.73      9.584      1.082      0.066
      42.73     10.085      1.090      0.056
      42.73     10.560      0.996      0.049
      42.73     11.061      1.031      0.059
      42.73     11.586      1.006      0.061
      42.73     12.075      0.976      0.061
      42.73     12.588      0.969      0.061
      42.73     13.076      0.942      0.049
      42.73     15.066      0.770      0.054
      48.00      7.972      1.005      0.047
      48.00      8.472      0.993      0.051
      48.00      8.996      1.008      0.049
      48.00      9.472      1.069      0.051
      48.00      9.972      1.067      0.066
      48.00     10.484      1.082      0.054
      48.00     10.972      1.038      0.044
      48.00     11.484      1.028      0.051
      48.00     11.960      0.982      0.044
      48.00     12.473      0.916      0.047
      48.00     12.973      0.877      0.037
      48.00     14.976      0.615      0.044
      53.25      8.064      1.010      0.037
      53.25      8.564      1.000      0.037
      53.25      9.076      1.007      0.042
      53.25      9.577      1.100      0.061
      53.25     10.065      1.095      0.066
      53.25     10.564      1.035      0.047
      53.25     11.051      0.996      0.044
      53.25     11.563      0.966      0.039
      53.25     12.062      0.895      0.047
      53.25     12.562      0.833      0.039
      53.25     13.049      0.796      0.037
      53.25     15.058      0.517      0.039
      58.48      7.988      0.993      0.036
      58.48      8.524      1.010      0.036
      58.48      9.024      1.002      0.041
      58.48      9.512      1.092      0.049
      58.48     10.024      1.073      0.054
      58.48     10.512      1.061      0.046
      58.48     11.000      0.976      0.044
      58.48     11.500      0.895      0.039
      58.48     11.988      0.844      0.034
      58.48     12.476      0.783      0.032
      58.48     13.000      0.718      0.044
      58.48     15.000      0.428      0.032
      63.68      8.012      0.980      0.037
      63.68      8.511      1.005      0.034
      63.68      9.010      1.029      0.029
      63.68      9.497      1.086      0.054
      63.68      9.997      1.064      0.059
      63.68     10.483      0.973      0.044
      63.68     10.995      0.924      0.037
      63.68     11.494      0.804      0.037
      63.68     11.993      0.756      0.037
      63.68     12.480      0.670      0.027
      63.68     13.003      0.648      0.017
      63.68     14.976      0.377      0.034
      68.85      8.012      0.993      0.042
      68.85      8.511      1.052      0.042
      68.85      8.998      1.069      0.037
      68.85      9.497      1.049      0.054
      68.85      9.997      1.042      0.059
      68.85     10.508      0.958      0.044
      68.85     10.983      0.860      0.037
      68.85     11.470      0.781      0.027
      68.85     11.981      0.703      0.037
      68.85     12.492      0.619      0.027
      68.85     12.967      0.531      0.032
      68.85     14.976      0.273      0.022
      73.99      7.980      1.022      0.044
      73.99      8.468      0.996      0.042
      73.99      8.980      1.018      0.037
      73.99      9.492      1.036      0.052
      73.99      9.968      1.004      0.054
      73.99     10.470      0.871      0.044
      73.99     10.971      0.772      0.035
      73.99     11.484      0.706      0.030
      73.99     11.973      0.605      0.032
      73.99     12.474      0.509      0.032
      73.99     12.975      0.450      0.025
      73.99     14.977      0.253      0.022
      79.10      8.012      1.000      0.029
      79.10      8.512      1.073      0.042
      79.10      9.000      1.061      0.039
      79.10      9.512      1.010      0.042
      79.10     10.012      0.922      0.042
      79.10     10.488      0.861      0.039
      79.10     10.988      0.731      0.034
      79.10     11.488      0.648      0.024
      79.10     12.000      0.562      0.032
      79.10     12.488      0.462      0.020
      79.10     13.000      0.411      0.024
      79.10     15.000      0.210      0.022
      84.18      7.996      1.044      0.037
      84.18      8.483      1.020      0.032
      84.18      8.995      1.040      0.034
      84.18      9.482      1.001      0.042
      84.18      9.970      0.910      0.039
      84.18     10.482      0.774      0.027
      84.18     10.982      0.654      0.025
      84.18     11.518      0.590      0.025
      84.18     11.982      0.487      0.020
      84.18     12.482      0.420      0.020
      84.18     12.981      0.334      0.017
      84.18     14.967      0.192      0.022
      89.23      8.012      0.995      0.037
      89.23      8.499      1.041      0.039
      89.23      8.998      1.022      0.034
      89.23      9.497      0.976      0.039
      89.23      9.984      0.873      0.046
      89.23     10.508      0.754      0.027
      89.23     10.983      0.619      0.024
      89.23     11.506      0.537      0.024
      89.23     11.981      0.483      0.020
      89.23     12.492      0.376      0.022
      89.23     13.003      0.337      0.024
      89.23     14.976      0.156      0.022
      94.25      8.012      1.039      0.037
      94.25      8.499      0.980      0.039
      94.25      9.010      1.000      0.039
      94.25      9.510      0.951
      94.25      9.997      0.844      0.037
      94.25     10.508      0.680      0.027
      94.25     10.983      0.560      0.024
      94.25     11.494      0.511      0.024
      94.25     11.993      0.440      0.020
      94.25     12.504      0.347      0.022
      94.25     12.979      0.298      0.024
      94.25     14.988      0.166      0.022
     104.18      7.948      0.972      0.037
     104.18      8.424      1.019      0.037
     104.18      8.954      0.889      0.030
     104.18      9.431      0.889      0.042
     104.18      9.937      0.716      0.037
     104.18     10.455      0.573      0.022
     104.18     10.935      0.458      0.022
     104.18     11.451      0.384      0.020
     104.18     11.967      0.332      0.015
     104.18     12.447      0.231      0.015
     104.18     12.950      0.177      0.020
     104.18     14.934      0.123      0.020
     109.10      8.149      0.985      0.027
     109.10      8.664      0.975      0.037
     109.10      9.153      0.850      0.029
     109.10      9.643      0.786      0.032
     109.10     10.145      0.742      0.029
     109.10     10.633      0.512      0.022
     109.10     11.147      0.412      0.017
     109.10     11.649      0.333      0.020
     109.10     12.139      0.270      0.015
     109.10     12.629      0.211      0.015
     109.10     13.119      0.159      0.010
     109.10     15.104      0.078      0.017
     113.99      8.020      0.960      0.029
     113.99      8.511      0.987      0.029
     113.99      9.029      0.839      0.029
     113.99      9.520      0.817      0.032
     113.99     10.037      0.718      0.039
     113.99     10.519      0.475      0.022
     113.99     11.024      0.385      0.024
     113.99     11.516      0.315      0.019
     113.99     12.020      0.257      0.015
     113.99     12.525      0.196      0.017
     113.99     13.041      0.157      0.017
     113.99     15.018      0.117      0.017
     118.85      7.898      0.994      0.029
     118.85      8.402      0.978      0.029
     118.85      8.886      0.837      0.029
     118.85      9.406      0.735      0.032
     118.85      9.911      0.672      0.027
     118.85     10.409      0.475      0.027
     118.85     10.929      0.361      0.024
     118.85     11.411      0.288      0.020
     118.85     11.928      0.235      0.015
     118.85     12.433      0.204      0.017
     118.85     12.938      0.148      0.017
     118.85     14.931      0.075      0.017
     123.68      7.883      0.926      0.037
     123.68      8.421      0.939      0.032
     123.68      8.903      0.805      0.032
     123.68      9.396      0.715      0.029
     123.68      9.912      0.648      0.029
     123.68     10.398      0.423      0.025
     123.68     10.903      0.330      0.017
     123.68     11.430      0.299      0.017
     123.68     11.922      0.249      0.020
     123.68     12.400      0.212      0.017
     123.68     12.904      0.159      0.015
     123.68     14.913      0.116      0.015
     128.48      8.011      0.924      0.037
     128.48      8.488      0.924      0.032
     128.48      9.017      0.736      0.032
     128.48      9.495      0.639      0.029
     128.48     10.010      0.588      0.029
     128.48     10.489      0.408      0.024
     128.48     11.017      0.315      0.017
     128.48     11.506      0.286      0.017
     128.48     12.009      0.247      0.020
     128.48     12.499      0.211      0.017
     128.48     13.001      0.177      0.015
     128.48     15.021      0.110      0.017
     133.25      8.094      0.911      0.036
     133.25      8.584      0.881      0.034
     133.25      9.085      0.738      0.029
     133.25      9.586      0.628      0.032
     133.25     10.088      0.518      0.032
     133.25     10.576      0.377      0.022
     133.25     11.078      0.308      0.022
     133.25     11.592      0.257      0.017
     133.25     12.070      0.250      0.017
     133.25     12.584      0.181      0.017
     133.25     13.087      0.161      0.017
     133.25     15.060      0.100      0.017
     138.00      8.049      0.888      0.037
     138.00      8.564      0.846      0.034
     138.00      9.042      0.702      0.029
     138.00      9.532      0.614      0.032
     138.00     10.035      0.506      0.032
     138.00     10.538      0.352      0.022
     138.00     11.040      0.284      0.022
     138.00     11.543      0.252      0.017
     138.00     12.046      0.235      0.017
     138.00     12.524      0.181      0.017
     138.00     13.051      0.154      0.017
     138.00     15.037      0.073      0.017
     142.73      7.941      0.915      0.034
     142.73      8.457      0.886      0.027
     142.73      8.965      0.717      0.027
     142.73      9.470      0.626      0.030
     142.73      9.951      0.575      0.032
     142.73     10.460      0.342      0.022
     142.73     10.953      0.284      0.017
     142.73     11.457      0.262      0.012
     142.73     11.973      0.223      0.017
     142.73     12.490      0.175      0.017
     142.73     12.946      0.124      0.020
     142.73     14.937      0.072      0.022
     147.44      8.034      0.893      0.035
     147.44      8.562      0.859      0.037
     147.44      9.027      0.673      0.035
     147.44      9.542      0.589      0.032
     147.44     10.033      0.540      0.032
     147.44     10.535      0.334      0.022
     147.44     11.025      0.240      0.017
     147.44     11.541      0.245      0.012
     147.44     12.044      0.201      0.017
     147.44     12.547      0.153      0.017
     147.44     13.038      0.114      0.025
     147.44     15.051      0.044      0.022
     161.45      7.987      0.904      0.029
     161.45      8.489      0.855      0.032
     161.45      8.981      0.674      0.032
     161.45      9.495      0.616      0.032
     161.45      9.999      0.494      0.022
     161.45     10.465      0.367      0.020
     161.45     11.004      0.301      0.024
     161.45     11.495      0.214      0.024
     161.45     11.997      0.206      0.020
     161.45     12.487      0.168      0.020
     161.45     12.989      0.119      0.017
     161.45     14.985      0.071      0.022
     166.10      8.010      0.892      0.037
     166.10      8.487      0.845      0.032
     166.10      8.978      0.673      0.034
     166.10      9.481      0.617      0.032
     166.10     10.008      0.506      0.022
     166.10     10.498      0.405      0.020
     166.10     11.001      0.314      0.025
     166.10     11.516      0.216      0.025
     166.10     11.993      0.216      0.020
     166.10     12.495      0.162      0.020
     166.10     12.985      0.130      0.017
     166.10     14.992      0.082      0.022
     170.74      8.035      0.875      0.044
     170.74      8.525      0.784      0.039
     170.74      9.015      0.654      0.029
     170.74      9.531      0.610      0.032
     170.74     10.034      0.505      0.037
     170.74     10.536      0.363      0.027
     170.74     11.027      0.314      0.024
     170.74     11.542      0.231      0.024
     170.74     12.034      0.211      0.020
     170.74     12.513      0.169      0.022
     170.74     13.029      0.120      0.024
     170.74     15.021      0.080      0.022
     175.37      8.005      0.873      0.044
     175.37      8.498      0.783      0.039
     175.37      9.017      0.651      0.029
     175.37      9.498      0.646      0.044
     175.37      9.992      0.529      0.037
     175.37     10.498      0.429      0.027
     175.37     11.029      0.339      0.024
     175.37     11.535      0.283      0.024
     175.37     12.003      0.246      0.020
     175.37     12.497      0.198      0.022
     175.37     13.015      0.154      0.024
     175.37     15.036      0.108      0.022
ENDDATA            338
ENDSUBENT          347
SUBENT        C2794003   20220815   20231218   20231218       C228
BIB                  2          4
REACTION   (26-FE-54(A,EL)26-FE-54,,DA,,RTH)
STATUS     (CURVE) Fig.2 (p.201) in J,NP/A,215,197,1973 was
           digitized by GSYS-2.4.9.
           (COREL,C2794002) Excitation function
ENDBIB               4
NOCOMMON             0          0
DATA                 4        336
EN         ANG-CM     DATA       DATA-ERR
MEV        ADEG       NO-DIM     NO-DIM
        8.0     26.944      0.999      0.056
        8.0     32.441      0.978      0.056
        8.0     37.939      1.022      0.052
        8.0     43.436      0.991      0.046
        8.0     48.644      0.999      0.041
        8.0     53.273      1.009      0.043
        8.0     58.770      0.990      0.035
        8.0     63.689      0.978      0.040
        8.0     69.476      0.990      0.035
        8.0     74.105      1.019      0.043
        8.0     79.168      1.003      0.027
        8.0     84.087      1.040      0.032
        8.0     88.861      1.000      0.038
        8.0     94.213      1.038      0.041
        8.0    104.195      0.969      0.027
        8.0    108.969      0.999      0.035
        8.0    113.888      0.971      0.029
        8.0    118.951      0.987      0.031
        8.0    123.725      0.913      0.025
        8.0    128.210      0.928      0.028
        8.0    132.984      0.918      0.031
        8.0    137.902      0.897      0.032
        8.0    142.821      0.906      0.034
        8.0    147.161      0.898      0.028
        8.0    161.193      0.895      0.022
        8.0    165.967      0.885      0.027
        8.0    170.741      0.875      0.040
        8.0    174.792      0.865      0.037
        8.5     26.348      1.024      0.068
        8.5     31.996      0.959      0.044
        8.5     37.492      0.972      0.050
        8.5     42.842      1.000      0.056
        8.5     47.905      1.000      0.041
        8.5     52.968      1.002      0.043
        8.5     58.320      1.008      0.037
        8.5     63.384      1.009      0.040
        8.5     68.877      1.050      0.025
        8.5     73.802      0.987      0.035
        8.5     78.713      1.070      0.050
        8.5     83.780      1.021      0.051
        8.5     88.842      1.042      0.051
        8.5     93.621      0.979      0.046
        8.5    103.600      1.018      0.041
        8.5    108.666      0.991      0.035
        8.5    113.583      0.999      0.038
        8.5    118.505      0.967      0.032
        8.5    123.138      0.926      0.037
        8.5    127.477      0.932      0.035
        8.5    132.834      0.883      0.032
        8.5    137.611      0.850      0.032
        8.5    142.672      0.878      0.034
        8.5    147.013      0.866      0.028
        8.5    160.903      0.845      0.031
        8.5    165.243      0.838      0.032
        8.5    170.311      0.785      0.047
        8.5    174.507      0.778      0.043
        9.0     25.763      0.991      0.056
        9.0     30.990      0.959      0.044
        9.0     36.920      0.999      0.050
        9.0     42.146      0.970      0.044
        9.0     47.207      1.008      0.048
        9.0     52.135      1.010      0.047
        9.0     57.644      1.001      0.040
        9.0     62.418      1.032      0.032
        9.0     67.917      1.060      0.048
        9.0     73.145      1.024      0.048
        9.0     77.773      1.057      0.045
        9.0     82.706      1.038      0.035
        9.0     87.929      1.020      0.040
        9.0     93.007      0.999      0.040
        9.0    103.038      0.893      0.032
        9.0    108.117      0.871      0.031
        9.0    112.761      0.850      0.029
        9.0    117.694      0.830      0.029
        9.0    122.196      0.800      0.028
        9.0    126.705      0.741      0.029
        9.0    131.923      0.740      0.028
        9.0    136.715      0.709      0.029
        9.0    141.932      0.711      0.031
        9.0    146.427      0.701      0.029
        9.0    160.495      0.669      0.031
        9.0    164.987      0.670      0.032
        9.0    170.063      0.659      0.037
        9.0    173.834      0.647      0.035
        9.5     25.447      0.971      0.063
        9.5     31.237      0.996      0.059
        9.5     36.734      1.028      0.057
        9.5     41.938      1.077      0.060
        9.5     47.012      1.070      0.062
        9.5     51.929      1.108      0.065
        9.5     57.877      1.088      0.060
        9.5     62.511      1.098      0.057
        9.5     68.032      1.051      0.056
        9.5     73.110      1.032      0.050
        9.5     78.044      1.011      0.046
        9.5     83.119      1.002      0.047
        9.5     87.918      0.946      0.046
        9.5     93.141      0.927      0.044
        9.5    103.159      0.866      0.043
        9.5    107.817      0.794      0.040
        9.5    112.738      0.818      0.029
        9.5    117.838      0.724      0.043
        9.5    122.481      0.704      0.041
        9.5    127.136      0.643      0.041
        9.5    132.360      0.623      0.037
        9.5    136.565      0.613      0.035
        9.5    142.072      0.615      0.028
        9.5    146.572      0.591      0.023
        9.5    160.626      0.605      0.031
        9.5    164.972      0.612      0.032
        9.5    169.899      0.612      0.043
        9.5    173.951      0.633      0.046
       10.0     26.400      1.002      0.063
       10.0     31.762      1.003      0.062
       10.0     37.260      1.064      0.059
       10.0     42.764      1.090      0.075
       10.0     47.984      1.070      0.066
       10.0     52.907      1.104      0.069
       10.0     58.273      1.074      0.062
       10.0     63.491      1.071      0.057
       10.0     68.858      1.042      0.057
       10.0     74.081      1.002      0.050
       10.0     78.586      0.917      0.046
       10.0     83.660      0.908      0.047
       10.0     88.738      0.867      0.046
       10.0     93.815      0.838      0.047
       10.0    103.688      0.711      0.043
       10.0    108.464      0.757      0.035
       10.0    113.687      0.719      0.037
       10.0    118.624      0.652      0.034
       10.0    123.120      0.633      0.034
       10.0    127.765      0.583      0.038
       10.0    132.703      0.513      0.034
       10.0    137.487      0.504      0.037
       10.0    142.406      0.561      0.031
       10.0    147.046      0.545      0.031
       10.0    160.968      0.482      0.038
       10.0    165.315      0.491      0.038
       10.0    170.385      0.503      0.043
       10.0    174.441      0.516      0.041
       10.5     26.314      0.984      0.059
       10.5     31.824      0.962      0.058
       10.5     37.323      1.018      0.046
       10.5     42.978      0.999      0.050
       10.5     48.039      1.082      0.061
       10.5     52.682      1.045      0.052
       10.5     58.331      1.066      0.046
       10.5     63.271      0.983      0.039
       10.5     68.781      0.962      0.041
       10.5     74.011      0.872      0.043
       10.5     78.796      0.857      0.046
       10.5     83.592      0.768      0.043
       10.5     88.666      0.757      0.046
       10.5     93.749      0.680      0.031
       10.5    103.764      0.576      0.022
       10.5    108.554      0.526      0.024
       10.5    113.924      0.473      0.024
       10.5    118.563      0.462      0.027
       10.5    123.352      0.424      0.019
       10.5    127.702      0.403      0.025
       10.5    132.779      0.374      0.021
       10.5    137.854      0.354      0.019
       10.5    142.930      0.332      0.024
       10.5    147.276      0.343      0.024
       10.5    161.042      0.358      0.021
       10.5    165.676      0.386      0.024
       10.5    170.752      0.364      0.030
       10.5    174.657      0.416      0.031
       11.0     26.378      0.959      0.053
       11.0     32.320      0.957      0.058
       11.0     37.532      0.999      0.056
       11.0     42.890      1.028      0.059
       11.0     47.816      1.039      0.053
       11.0     52.750      0.995      0.044
       11.0     58.406      0.968      0.040
       11.0     63.194      0.927      0.038
       11.0     68.856      0.859      0.035
       11.0     73.942      0.766      0.043
       11.0     79.020      0.728      0.028
       11.0     83.959      0.647      0.029
       11.0     88.746      0.616      0.032
       11.0     93.683      0.554      0.031
       11.0    103.988      0.453      0.027
       11.0    108.920      0.422      0.024
       11.0    113.853      0.378      0.024
       11.0    118.930      0.348      0.022
       11.0    123.137      0.320      0.019
       11.0    127.631      0.310      0.022
       11.0    132.851      0.298      0.021
       11.0    137.926      0.279      0.019
       11.0    142.855      0.267      0.019
       11.0    147.496      0.247      0.018
       11.0    161.257      0.293      0.021
       11.0    165.749      0.302      0.019
       11.0    170.820      0.312      0.022
       11.0    174.732      0.319      0.031
       11.5     25.689      0.962      0.053
       11.5     31.462      1.020      0.057
       11.5     36.542      1.002      0.056
       11.5     42.335      1.010      0.050
       11.5     47.255      1.028      0.053
       11.5     52.207      0.972      0.049
       11.5     57.749      0.891      0.043
       11.5     62.713      0.809      0.038
       11.5     68.232      0.782      0.043
       11.5     73.191      0.708      0.034
       11.5     78.290      0.648      0.037
       11.5     83.389      0.587      0.019
       11.5     88.196      0.532      0.021
       11.5     93.424      0.506      0.021
       11.5    103.334      0.382      0.015
       11.5    108.569      0.341      0.015
       11.5    113.509      0.313      0.024
       11.5    118.596      0.278      0.015
       11.5    122.649      0.290      0.018
       11.5    127.435      0.283      0.022
       11.5    132.666      0.252      0.019
       11.5    137.448      0.252      0.019
       11.5    142.521      0.253      0.019
       11.5    146.724      0.253      0.016
       11.5    160.804      0.202      0.016
       11.5    165.436      0.214      0.019
       11.5    170.355      0.233      0.019
       11.5    174.400      0.264      0.019
       12.0     25.851      0.999      0.057
       12.0     31.349      1.021      0.057
       12.0     36.857      1.020      0.063
       12.0     42.381      0.980      0.057
       12.0     47.162      0.984      0.057
       12.0     52.562      0.899      0.056
       12.0     57.804      0.841      0.043
       12.0     62.768      0.758      0.029
       12.0     68.301      0.699      0.029
       12.0     73.413      0.608      0.026
       12.0     78.507      0.559      0.026
       12.0     83.322      0.484      0.032
       12.0     88.250      0.484      0.026
       12.0     93.633      0.436      0.028
       12.0    103.678      0.333      0.015
       12.0    108.772      0.283      0.015
       12.0    113.858      0.253      0.012
       12.0    118.653      0.224      0.013
       12.0    123.137      0.244      0.021
       12.0    127.774      0.245      0.018
       12.0    132.847      0.243      0.019
       12.0    137.923      0.236      0.019
       12.0    142.570      0.216      0.019
       12.0    147.351      0.219      0.016
       12.0    161.130      0.195      0.016
       12.0    165.763      0.205      0.019
       12.0    170.830      0.217      0.024
       12.0    174.879      0.238      0.028
       12.5     26.566      1.029      0.061
       12.5     32.218      1.029      0.060
       12.5     37.580      1.030      0.058
       12.5     43.241      0.975      0.053
       12.5     48.320      0.924      0.053
       12.5     53.403      0.853      0.038
       12.5     58.774      0.796      0.031
       12.5     63.717      0.688      0.027
       12.5     69.375      0.646      0.033
       12.5     74.318      0.543      0.024
       12.5     79.252      0.497      0.019
       12.5     84.185      0.461      0.020
       12.5     88.974      0.415      0.018
       12.5     94.051      0.386      0.016
       12.5    104.064      0.295      0.014
       12.5    109.283      0.286      0.014
       12.5    114.358      0.263      0.011
       12.5    119.287      0.255      0.012
       12.5    123.344      0.265      0.019
       12.5    128.271      0.266      0.016
       12.5    133.058      0.238      0.018
       12.5    138.274      0.246      0.015
       12.5    143.204      0.230      0.014
       12.5    147.552      0.225      0.015
       12.5    161.466      0.219      0.015
       12.5    165.959      0.219      0.018
       12.5    171.174      0.237      0.022
       12.5    175.085      0.248      0.026
       13.0     26.609      0.999      0.066
       13.0     32.110      1.047      0.065
       13.0     37.615      1.059      0.057
       13.0     42.994      0.949      0.057
       13.0     48.221      0.882      0.048
       13.0     53.450      0.801      0.041
       13.0     58.972      0.700      0.026
       13.0     63.617      0.649      0.029
       13.0     69.431      0.527      0.028
       13.0     74.225      0.449      0.019
       13.0     79.304      0.409      0.021
       13.0     84.097      0.335      0.022
       13.0     89.314      0.337      0.019
       13.0     93.960      0.281      0.018
       13.0    104.264      0.183      0.015
       13.0    109.048      0.173      0.015
       13.0    113.978      0.157      0.012
       13.0    119.344      0.133      0.013
       13.0    123.835      0.144      0.016
       13.0    128.178      0.176      0.018
       13.0    133.254      0.154      0.019
       13.0    138.036      0.157      0.016
       13.0    142.970      0.115      0.015
       13.0    147.460      0.134      0.016
       13.0    161.522      0.102      0.016
       13.0    166.012      0.122      0.016
       13.0    171.084      0.122      0.019
       13.0    174.994      0.146      0.023
       15.0     26.527      1.042      0.074
       15.0     32.193      0.971      0.075
       15.0     37.586      0.839      0.058
       15.0     43.250      0.776      0.058
       15.0     48.216      0.615      0.035
       15.0     53.453      0.524      0.032
       15.0     58.549      0.415      0.027
       15.0     63.773      0.375      0.024
       15.0     69.158      0.270      0.016
       15.0     74.086      0.253      0.019
       15.0     78.877      0.203      0.013
       15.0     84.095      0.185      0.016
       15.0     89.029      0.142      0.019
       15.0     94.095      0.151      0.018
       15.0    104.093      0.122      0.015
       15.0    109.024      0.093      0.015
       15.0    114.231      0.113      0.012
       15.0    119.168      0.062      0.012
       15.0    123.646      0.103      0.010
       15.0    127.991      0.099      0.018
       15.0    133.061      0.092      0.019
       15.0    138.134      0.073      0.016
       15.0    143.059      0.064      0.015
       15.0    147.547      0.067      0.013
       15.0    161.593      0.064      0.016
       15.0    166.224      0.075      0.013
       15.0    171.145      0.082      0.019
       15.0    174.906      0.096      0.024
ENDDATA            338
ENDSUBENT          347
ENDENTRY             3
