ENTRY            C2792   20220805   20240315   20240315       C229
SUBENT        C2792001   20220805   20240315   20240315       C229
BIB                  9         22
TITLE      Optical-model analysis of alpha-particle scattering
           by 36Ar from 12.83 to 17.83 MeV
AUTHOR     (W.J.Wallace,K.R.Knuth,R.H.Davis)
INSTITUTE  (1USAFSU)
REFERENCE  (J,PR/C,2,1738,1970)
           #doi:10.1103/PhysRevC.2.1738
FACILITY   (CYCLO,1USALRC) The National Aeronautics and Space
           Administration 60-in. cyclotron at the Lewis Research
           Center.
SAMPLE     A 36Ar target gas pressure of 25.0 Torr (2.5-cm Hg).
DETECTOR   (SIBAR) Sixteen surface-barrier detectors placed in a
           multiple-detector array at 10 degrees intervals
           comprised the detection system.
ERR-ANALYS The sum of the systematic error of 3% plus
           the statistical error.
           (ERR-1) A systematic rms error of 3%. This was
           estimated as 1% due to beam integration accuracy,
           1% for absolute G-factor determination,
           1% for determination of the target gas density,
           1% for errors in making the dead-time corrections, and
           1% for uncertainty in the detector angular positioning.
HISTORY    (20220802C) OG
ENDBIB              22
COMMON               1          3
ERR-1
PER-CENT
3.
ENDCOMMON            3
ENDSUBENT           29
SUBENT        C2792002   20220805   20240315   20240315       C229
BIB                  2          4
REACTION   (18-AR-36(A,EL)18-AR-36,,DA)
STATUS     (CURVE,,W.J.Wallace+,J,PR/C,2,1738,1970) Figs.1,2
           digitized by GSYS-2.4.9.
           (COREL,C2792003) Angular distribution
ENDBIB               4
NOCOMMON             0          0
DATA                 3       1925
ANG-CM     EN         DATA-CM
ADEG       MEV        MB/SR
       79.8     12.916     13.733
       79.8     12.935     10.213
       79.8     12.972     10.216
       79.8     13.011     14.093
       79.8     13.065     16.984
       79.8     13.078     19.873
       79.8     13.110     18.256
       79.8     13.141     21.145
       79.8     13.173     19.528
       79.8     13.205     20.728
       79.8     13.223     19.673
       79.8     13.247     18.478
       79.8     13.255     20.098
       79.8     13.287     20.735
       79.8     13.301     19.257
       79.8     13.312     14.047
       79.8     13.336     11.303
       79.8     13.359      9.826
       79.8     13.400      9.970
       79.8     13.413     11.168
       79.8     13.434     16.733
       79.8     13.452     16.101
       79.8     13.490     13.217
       79.8     13.511     16.176
       79.8     13.535     13.995
       79.8     13.562     14.701
       79.8     13.572     13.083
       79.8     13.591     10.549
       79.8     13.609      9.565
       79.8     13.627     10.411
       79.8     13.659     11.329
       79.8     13.683      7.036
       79.8     13.706      5.488
       79.8     13.743      5.350
       79.8     13.770      6.831
       79.8     13.832      9.935
       79.8     13.854     13.035
       79.8     13.872     13.882
       79.8     13.891     11.841
       79.8     13.914      9.449
       79.8     13.932      9.943
       79.8     13.954     13.325
       79.8     13.981     12.905
       79.8     14.005     10.583
       79.8     14.046     10.093
       79.8     14.078     11.152
       79.8     14.091     10.520
       79.8     14.147      8.341
       79.8     14.174      9.048
       79.8     14.215      8.276
       79.8     14.246     11.730
       79.8     14.263     14.759
       79.8     14.291     13.635
       79.8     14.309     12.791
       79.8     14.368     13.570
       79.8     14.391     11.812
       79.8     14.397      8.643
       79.8     14.425      6.392
       79.8     14.476      5.763
       79.8     14.502      7.596
       79.8     14.520      8.161
       79.8     14.542     10.345
       79.8     14.578     12.320
       79.8     14.611      9.788
       79.8     14.625      7.676
       79.8     14.648      8.453
       79.8     14.666      7.609
       79.8     14.680      6.695
       79.8     14.703      5.429
       79.8     14.740      5.573
       79.8     14.757      8.321
       79.8     14.792     10.789
       79.8     14.815     12.551
       79.8     14.837     12.271
       79.8     14.865     10.654
       79.8     14.879     11.359
       79.8     14.901     11.783
       79.8     14.930      8.969
       79.8     14.966      7.986
       79.8     15.003      8.764
       79.8     15.025      8.484
       79.8     15.067      7.994
       79.8     15.089      8.348
       79.8     15.098      9.405
       79.8     15.116      8.703
       79.8     15.145      6.240
       79.8     15.154      4.269
       79.8     15.168      3.637
       79.8     15.200      4.414
       79.8     15.258      7.799
       79.8     15.300      4.985
       79.8     15.336      6.678
       79.8     15.362      8.159
       79.8     15.385      8.161
       79.8     15.408      7.741
       79.8     15.449      6.969
       79.8     15.481      8.169
       79.8     15.526      8.877
       79.8     15.536      6.977
       79.8     15.563      6.275
       79.8     15.577      5.783
       79.8     15.631      7.548
       79.8     15.650      6.352
       79.8     15.681      6.988
       79.8     15.722      9.104
       79.8     15.749      7.839
       79.8     15.786      6.152
       79.8     15.818      6.225
       79.8     15.845      7.495
       79.8     15.872      8.976
       79.8     15.909      8.134
       79.8     15.945      9.616
       79.8     15.967      9.547
       79.8     16.013      9.973
       79.8     16.023      7.721
       79.8     16.055      5.047
       79.8     16.096      6.459
       79.8     16.123      5.757
       79.8     16.174      5.832
       79.8     16.206      5.130
       79.8     16.228      5.907
       79.8     16.251      6.894
       79.8     16.264      7.952
       79.8     16.278      6.826
       79.8     16.315      5.069
       79.8     16.365      5.566
       79.8     16.401      6.625
       79.8     16.433      6.064
       79.8     16.442      5.291
       79.8     16.470      4.377
       79.8     16.506      4.380
       79.8     16.552      4.173
       79.8     16.565      5.441
       79.8     16.592      6.500
       79.8     16.620      5.868
       79.8     16.638      4.602
       79.8     16.666      4.112
       79.8     16.698      3.692
       79.8     16.739      4.118
       79.8     16.780      4.121
       79.8     16.844      2.718
       79.8     16.894      3.426
       79.8     16.921      4.555
       79.8     16.957      4.136
       79.8     16.971      3.785
       79.8     17.003      3.787
       79.8     17.044      2.875
       79.8     17.085      2.597
       79.8     17.122      1.192
       79.8     17.140      3.094
       79.8     17.148      3.799
       79.8     17.176      4.435
       79.8     17.199      3.663
       79.8     17.222      2.115
       79.8     17.254      2.047
       79.8     17.286      2.261
       79.8     17.331      1.983
       79.8     17.349      2.759
       79.8     17.380      4.593
       79.8     17.413      3.680
       79.8     17.445      2.204
       79.8     17.495      3.124
       79.8     17.535      3.620
       79.8     17.567      3.975
       79.8     17.590      2.991
       79.8     17.613      1.936
       79.8     17.650      2.080
       79.8     17.686      2.153
       79.8     17.718      1.593
       79.8     17.782      1.316
       79.8     17.823      1.531
       79.8     17.855      1.674
       82.4     12.843     10.873
       82.4     12.884     13.013
       82.4     12.902     10.118
       82.4     12.930     10.671
       82.4     12.961     13.569
       82.4     13.006     15.916
       82.4     13.028     18.262
       82.4     13.050     20.332
       82.4     13.069     19.644
       82.4     13.087     17.783
       82.4     13.114     20.198
       82.4     13.151     19.855
       82.4     13.182     20.547
       82.4     13.211     16.963
       82.4     13.242     19.654
       82.4     13.274     16.690
       82.4     13.289     12.485
       82.4     13.304      9.382
       82.4     13.349     10.006
       82.4     13.367      9.317
       82.4     13.389     13.525
       82.4     13.420     16.354
       82.4     13.453     14.218
       82.4     13.458     12.494
       82.4     13.503     13.325
       82.4     13.512     12.636
       82.4     13.531     12.154
       82.4     13.540      9.396
       82.4     13.573      8.364
       82.4     13.604      9.538
       82.4     13.627     10.780
       82.4     13.641      9.126
       82.4     13.664      5.886
       82.4     13.701      4.716
       82.4     13.737      6.994
       82.4     13.773      9.892
       82.4     13.795      9.825
       82.4     13.809     10.791
       82.4     13.836     13.413
       82.4     13.868     11.622
       82.4     13.873     10.725
       82.4     13.886     10.519
       82.4     13.914     11.004
       82.4     13.954     15.350
       82.4     13.982     12.180
       82.4     14.000      9.974
       82.4     14.028      8.666
       82.4     14.060     10.667
       82.4     14.087     10.048
       82.4     14.101      9.290
       82.4     14.124      8.533
       82.4     14.156      6.880
       82.4     14.188      7.089
       82.4     14.206      8.193
       82.4     14.219     11.366
       82.4     14.250     14.402
       82.4     14.273     13.783
       82.4     14.305     13.371
       82.4     14.323     12.062
       82.4     14.351     10.891
       82.4     14.361      8.754
       82.4     14.388      8.066
       82.4     14.398      5.101
       82.4     14.439      4.621
       82.4     14.525      8.349
       82.4     14.556     11.730
       82.4     14.593      9.319
       82.4     14.612      6.768
       82.4     14.626      5.390
       82.4     14.640      4.632
       82.4     14.671      4.979
       82.4     14.685      4.221
       82.4     14.722      4.844
       82.4     14.744      6.845
       82.4     14.771      8.088
       82.4     14.780      9.191
       82.4     14.807      8.503
       82.4     14.830      7.953
       82.4     14.871     10.024
       82.4     14.894      7.336
       82.4     14.917      5.200
       82.4     14.922      4.166
       82.4     14.954      4.237
       82.4     14.972      5.272
       82.4     14.990      5.618
       82.4     15.018      4.723
       82.4     15.049      5.276
       82.4     15.081      5.968
       82.4     15.095      4.934
       82.4     15.123      3.832
       82.4     15.132      2.454
       82.4     15.155      1.766
       82.4     15.196      3.285
       82.4     15.223      4.873
       82.4     15.241      5.839
       82.4     15.264      4.737
       82.4     15.287      4.325
       82.4     15.300      5.153
       82.4     15.318      6.257
       82.4     15.336      7.293
       82.4     15.368      6.950
       82.4     15.386      6.054
       82.4     15.441      6.333
       82.4     15.459      7.782
       82.4     15.491      8.405
       82.4     15.504      7.509
       82.4     15.528      5.718
       82.4     15.564      5.237
       82.4     15.587      5.859
       82.4     15.605      6.274
       82.4     15.633      5.172
       82.4     15.678      6.140
       82.4     15.691      7.106
       82.4     15.709      7.728
       82.4     15.737      7.040
       82.4     15.760      6.283
       82.4     15.774      5.870
       82.4     15.810      5.941
       82.4     15.823      7.941
       82.4     15.841      8.425
       82.4     15.869      7.875
       82.4     15.887      6.911
       82.4     15.923      8.843
       82.4     15.951      8.362
       82.4     15.997      7.400
       82.4     16.024      6.643
       82.4     16.047      4.782
       82.4     16.074      5.611
       82.4     16.111      4.234
       82.4     16.143      4.719
       82.4     16.193      4.928
       82.4     16.211      5.550
       82.4     16.247      6.862
       82.4     16.270      5.278
       82.4     16.307      3.625
       82.4     16.353      4.386
       82.4     16.375      5.353
       82.4     16.398      5.906
       82.4     16.421      5.424
       82.4     16.444      4.667
       82.4     16.458      3.495
       82.4     16.521      3.292
       82.4     16.535      3.845
       82.4     16.576      5.364
       82.4     16.599      4.262
       82.4     16.622      3.643
       82.4     16.649      3.782
       82.4     16.667      3.232
       82.4     16.722      3.786
       82.4     16.754      3.581
       82.4     16.795      3.515
       82.4     16.840      3.586
       82.4     16.863      3.450
       82.4     16.881      4.002
       82.4     16.908      4.832
       82.4     16.959      4.007
       82.4     17.004      3.320
       82.4     17.046      2.633
       82.4     17.109      3.602
       82.4     17.118      4.499
       82.4     17.150      5.121
       82.4     17.168      5.329
       82.4     17.182      3.813
       82.4     17.219      2.643
       82.4     17.269      2.577
       82.4     17.319      2.786
       82.4     17.346      4.305
       82.4     17.359      5.754
       82.4     17.382      5.204
       82.4     17.405      3.619
       82.4     17.424      2.517
       82.4     17.483      3.554
       82.4     17.546      4.937
       82.4     17.583      3.146
       82.4     17.597      2.458
       82.4     17.620      2.045
       82.4     17.665      3.289
       82.4     17.679      2.945
       82.4     17.697      1.981
       82.4     17.729      1.569
       82.4     17.775      1.985
       82.4     17.811      1.849
       82.4     17.843      2.610
       84.9     12.811     10.659
       84.9     12.847     11.349
       84.9     12.861      9.907
       84.9     12.883     12.040
       84.9     12.904     14.791
       84.9     12.932     13.075
       84.9     12.946     14.314
       84.9     12.963     16.034
       84.9     12.990     17.754
       84.9     13.030     20.713
       84.9     13.031     18.033
       84.9     13.045     16.660
       84.9     13.098     20.101
       84.9     13.108     19.071
       84.9     13.139     19.899
       84.9     13.145     16.050
       84.9     13.169     14.609
       84.9     13.195     17.979
       84.9     13.204     16.674
       84.9     13.228     14.408
       84.9     13.243     10.286
       84.9     13.285      8.984
       84.9     13.325     10.362
       84.9     13.347     12.632
       84.9     13.391     15.248
       84.9     13.411     12.020
       84.9     13.425     10.784
       84.9     13.452     11.199
       84.9     13.471     10.307
       84.9     13.489      9.690
       84.9     13.508      7.218
       84.9     13.527      6.601
       84.9     13.540      7.152
       84.9     13.589      9.562
       84.9     13.604      7.776
       84.9     13.627      5.373
       84.9     13.660      4.826
       84.9     13.691      4.898
       84.9     13.713      7.855
       84.9     13.749      9.645
       84.9     13.762     11.090
       84.9     13.789     12.054
       84.9     13.831      9.790
       84.9     13.857     12.335
       84.9     13.900     17.288
       84.9     13.948     12.481
       84.9     13.958      9.527
       84.9     13.973      7.466
       84.9     14.018      8.776
       84.9     14.044      9.947
       84.9     14.058      9.124
       84.9     14.086      7.408
       84.9     14.096      6.309
       84.9     14.119      5.624
       84.9     14.159      7.415
       84.9     14.225     13.469
       84.9     14.249     11.959
       84.9     14.267     10.586
       84.9     14.305      8.253
       84.9     14.347      5.989
       84.9     14.365      4.753
       84.9     14.397      4.000
       84.9     14.420      4.964
       84.9     14.442      5.929
       84.9     14.455      6.755
       84.9     14.487      7.720
       84.9     14.527     10.335
       84.9     14.555      8.963
       84.9     14.569      6.971
       84.9     14.593      4.774
       84.9     14.602      3.881
       84.9     14.630      3.334
       84.9     14.666      3.269
       84.9     14.680      3.751
       84.9     14.702      4.647
       84.9     14.747      5.201
       84.9     14.793      5.755
       84.9     14.819      7.544
       84.9     14.848      4.179
       84.9     14.867      2.669
       84.9     14.903      2.053
       84.9     14.953      3.639
       84.9     14.976      3.228
       84.9     15.012      3.988
       84.9     15.040      3.234
       84.9     15.054      2.411
       84.9     15.072      2.000
       84.9     15.104      1.591
       84.9     15.135      2.556
       84.9     15.149      3.519
       84.9     15.166      5.170
       84.9     15.193      5.860
       84.9     15.230      4.420
       84.9     15.280      6.212
       84.9     15.302      6.901
       84.9     15.325      6.216
       84.9     15.353      5.462
       84.9     15.384      6.840
       84.9     15.407      7.735
       84.9     15.433      8.769
       84.9     15.447      9.182
       84.9     15.462      6.847
       84.9     15.485      5.199
       84.9     15.517      4.927
       84.9     15.562      5.550
       84.9     15.585      4.728
       84.9     15.626      5.762
       84.9     15.653      6.521
       84.9     15.671      6.454
       84.9     15.694      6.593
       84.9     15.726      5.703
       84.9     15.767      5.706
       84.9     15.784      7.564
       84.9     15.802      8.459
       84.9     15.853      5.989
       84.9     15.893      8.055
       84.9     15.903      7.781
       84.9     15.917      6.957
       84.9     15.949      6.823
       84.9     15.967      5.931
       84.9     16.031      4.975
       84.9     16.055      3.808
       84.9     16.118      4.639
       84.9     16.150      5.123
       84.9     16.172      6.843
       84.9     16.199      7.327
       84.9     16.218      6.023
       84.9     16.232      4.649
       84.9     16.264      3.415
       84.9     16.309      4.313
       84.9     16.332      5.552
       84.9     16.363      6.242
       84.9     16.400      4.390
       84.9     16.442      3.363
       84.9     16.496      3.436
       84.9     16.532      5.021
       84.9     16.564      4.130
       84.9     16.610      4.409
       84.9     16.646      3.725
       84.9     16.692      4.279
       84.9     16.733      4.145
       84.9     16.787      5.113
       84.9     16.819      5.116
       84.9     16.851      5.256
       84.9     16.882      5.740
       84.9     16.905      4.917
       84.9     16.928      4.507
       84.9     16.960      4.510
       84.9     16.974      3.686
       84.9     17.006      3.277
       84.9     17.029      3.691
       84.9     17.042      4.380
       84.9     17.060      5.619
       84.9     17.091      6.996
       84.9     17.123      6.999
       84.9     17.142      5.008
       84.9     17.160      4.460
       84.9     17.179      3.637
       84.9     17.225      3.297
       84.9     17.243      3.986
       84.9     17.270      4.401
       84.9     17.296      6.121
       84.9     17.324      6.605
       84.9     17.342      5.851
       84.9     17.352      3.927
       84.9     17.389      2.831
       84.9     17.425      3.659
       84.9     17.447      4.211
       84.9     17.465      5.106
       84.9     17.479      6.001
       84.9     17.501      6.415
       84.9     17.520      5.386
       84.9     17.534      4.081
       84.9     17.580      3.055
       84.9     17.607      4.363
       84.9     17.629      4.915
       84.9     17.652      4.436
       84.9     17.666      2.994
       84.9     17.689      2.515
       84.9     17.726      2.243
       84.9     17.753      2.383
       84.9     17.785      2.386
       84.9     17.808      3.007
       90.0     12.821      9.197
       90.0     12.853      8.856
       90.0     12.889      9.688
       90.0     12.905     11.964
       90.0     12.928     12.380
       90.0     12.952      9.558
       90.0     12.983     11.698
       90.0     13.014     13.218
       90.0     13.051     11.362
       90.0     13.090     14.674
       90.0     13.145     13.303
       90.0     13.174      9.930
       90.0     13.209     12.347
       90.0     13.223     11.728
       90.0     13.238      9.456
       90.0     13.257      7.805
       90.0     13.280      7.256
       90.0     13.297      8.292
       90.0     13.319      9.053
       90.0     13.360      8.576
       90.0     13.400     10.028
       90.0     13.415      7.825
       90.0     13.430      5.966
       90.0     13.453      5.073
       90.0     13.489      5.629
       90.0     13.517      4.530
       90.0     13.552      7.153
       90.0     13.587      9.362
       90.0     13.619      7.299
       90.0     13.643      6.200
       90.0     13.661      5.788
       90.0     13.684      4.620
       90.0     13.720      5.451
       90.0     13.755      7.385
       90.0     13.786      8.561
       90.0     13.818      8.013
       90.0     13.848     11.394
       90.0     13.868     16.151
       90.0     13.914     14.916
       90.0     13.925     12.644
       90.0     13.958      8.996
       90.0     13.969      6.930
       90.0     13.997      5.417
       90.0     14.028      7.006
       90.0     14.050      8.043
       90.0     14.064      6.528
       90.0     14.092      4.671
       90.0     14.120      4.124
       90.0     14.146      5.919
       90.0     14.159      7.712
       90.0     14.190      8.198
       90.0     14.221      9.787
       90.0     14.239      9.031
       90.0     14.254      7.448
       90.0     14.277      5.866
       90.0     14.296      4.766
       90.0     14.324      4.218
       90.0     14.355      4.291
       90.0     14.370      2.777
       90.0     14.402      2.368
       90.0     14.410      3.058
       90.0     14.437      4.302
       90.0     14.487      3.550
       90.0     14.518      5.483
       90.0     14.535      6.726
       90.0     14.558      6.315
       90.0     14.577      5.008
       90.0     14.596      3.357
       90.0     14.623      2.878
       90.0     14.646      3.363
       90.0     14.683      2.403
       90.0     14.706      1.579
       90.0     14.742      1.170
       90.0     14.774      1.657
       90.0     14.796      3.038
       90.0     14.827      3.731
       90.0     14.841      3.181
       90.0     14.869      1.462
       90.0     14.901      0.984
       90.0     14.919      1.813
       90.0     14.954      3.195
       90.0     15.027      2.929
       90.0     15.045      1.898
       90.0     15.104      2.043
       90.0     15.117      2.803
       90.0     15.149      3.633
       90.0     15.162      4.600
       90.0     15.187      8.186
       90.0     15.209      9.154
       90.0     15.233      7.779
       90.0     15.247      5.920
       90.0     15.297      6.684
       90.0     15.324      5.792
       90.0     15.351      6.415
       90.0     15.369      7.589
       90.0     15.400      8.213
       90.0     15.435      9.596
       90.0     15.454      8.565
       90.0     15.478      6.087
       90.0     15.506      4.643
       90.0     15.537      5.336
       90.0     15.574      3.963
       90.0     15.610      5.070
       90.0     15.637      5.280
       90.0     15.673      5.285
       90.0     15.704      8.320
       90.0     15.736      7.084
       90.0     15.773      5.642
       90.0     15.800      6.541
       90.0     15.832      5.443
       90.0     15.859      5.722
       90.0     15.881      6.345
       90.0     15.904      5.934
       90.0     15.932      5.180
       90.0     15.950      5.802
       90.0     15.972      6.287
       90.0     15.981      6.495
       90.0     15.995      5.601
       90.0     16.018      5.121
       90.0     16.037      3.194
       90.0     16.060      2.853
       90.0     16.078      3.337
       90.0     16.100      4.167
       90.0     16.140      5.206
       90.0     16.162      6.380
       90.0     16.185      6.934
       90.0     16.231      5.148
       90.0     16.240      4.254
       90.0     16.268      3.637
       90.0     16.294      5.156
       90.0     16.321      5.367
       90.0     16.362      5.923
       90.0     16.385      5.650
       90.0     16.404      4.068
       90.0     16.427      3.519
       90.0     16.468      2.904
       90.0     16.481      3.526
       90.0     16.494      4.010
       90.0     16.517      4.427
       90.0     16.558      4.501
       90.0     16.602      5.747
       90.0     16.644      4.787
       90.0     16.675      5.342
       90.0     16.702      5.966
       90.0     16.729      5.556
       90.0     16.742      6.453
       90.0     16.783      7.285
       90.0     16.806      6.324
       90.0     16.838      5.501
       90.0     16.870      5.780
       90.0     16.905      6.612
       90.0     16.920      5.511
       90.0     16.943      4.963
       90.0     16.961      4.276
       90.0     16.984      4.003
       90.0     17.011      4.558
       90.0     17.028      6.076
       90.0     17.050      6.975
       90.0     17.077      8.218
       90.0     17.104      7.533
       90.0     17.131      7.812
       90.0     17.154      6.988
       90.0     17.168      6.094
       90.0     17.187      5.407
       90.0     17.197      4.581
       90.0     17.224      4.102
       90.0     17.246      4.588
       90.0     17.264      5.348
       90.0     17.286      6.109
       90.0     17.304      7.282
       90.0     17.332      5.563
       90.0     17.355      4.946
       90.0     17.369      4.327
       90.0     17.374      3.019
       90.0     17.406      2.678
       90.0     17.433      3.164
       90.0     17.455      3.856
       90.0     17.473      4.547
       90.0     17.495      5.446
       90.0     17.509      5.792
       90.0     17.541      5.038
       90.0     17.546      4.212
       90.0     17.578      3.458
       90.0     17.596      3.805
       90.0     17.622      5.255
       90.0     17.654      4.570
       90.0     17.673      3.263
       90.0     17.714      3.268
       90.0     17.750      3.066
       90.0     17.782      3.001
       90.0     17.809      2.523
       92.5     12.828      7.349
       92.5     12.856      7.002
       92.5     12.882      8.962
       92.5     12.899     10.852
       92.5     12.919      8.616
       92.5     12.938      6.450
       92.5     12.955      7.501
       92.5     12.978      8.132
       92.5     13.014      9.114
       92.5     13.032      7.298
       92.5     13.059      9.189
       92.5     13.094     11.290
       92.5     13.117     10.872
       92.5     13.140      9.896
       92.5     13.168      7.940
       92.5     13.204      9.831
       92.5     13.218      7.805
       92.5     13.237      7.177
       92.5     13.269      6.131
       92.5     13.300      6.834
       92.5     13.318      7.884
       92.5     13.341      6.628
       92.5     13.364      6.490
       92.5     13.395      6.772
       92.5     13.410      5.515
       92.5     13.419      3.488
       92.5     13.447      3.001
       92.5     13.482      4.613
       92.5     13.514      4.266
       92.5     13.541      5.947
       92.5     13.554      7.626
       92.5     13.581      8.678
       92.5     13.594      8.190
       92.5     13.627      6.374
       92.5     13.659      5.189
       92.5     13.668      4.490
       92.5     13.691      3.583
       92.5     13.727      4.216
       92.5     13.750      5.547
       92.5     13.776      6.598
       92.5     13.799      6.321
       92.5     13.817      7.091
       92.5     13.842     13.807
       92.5     13.872     17.796
       92.5     13.887     14.790
       92.5     15.048      1.682
       92.5     15.061      2.522
       92.5     15.093      3.085
       92.5     15.107      2.177
       92.5     15.143      3.509
       92.5     15.165      4.770
       92.5     15.191      8.408
       92.5     15.217      9.809
       92.5     15.236      8.762
       92.5     15.246      6.036
       92.5     15.273      5.479
       92.5     15.305      5.762
       92.5     15.323      5.204
       92.5     15.351      5.556
       92.5     15.368      7.236
       92.5     15.400      7.589
       92.5     15.431      7.662
       92.5     15.459      6.965
       92.5     15.478      4.659
       92.5     15.514      3.893
       92.5     15.541      4.945
       92.5     15.569      3.688
       92.5     15.596      3.691
       92.5     15.623      4.253
       92.5     15.646      4.535
       92.5     15.677      5.796
       92.5     15.712      7.758
       92.5     15.731      6.431
       92.5     15.768      4.826
       92.5     15.786      4.758
       92.5     15.809      4.060
       92.5     15.836      4.343
       92.5     15.863      4.835
       92.5     15.895      5.047
       92.5     15.922      4.561
       92.5     15.958      5.263
       92.5     15.971      6.663
       92.5     15.994      6.246
       92.5     16.027      4.430
       92.5     16.032      2.962
       92.5     16.050      2.475
       92.5     16.073      2.547
       92.5     16.095      3.318
       92.5     16.113      4.299
       92.5     16.145      4.441
       92.5     16.158      5.352
       92.5     16.176      6.123
       92.5     16.203      5.496
       92.5     16.231      4.100
       92.5     16.277      2.985
       92.5     16.299      4.106
       92.5     16.326      4.738
       92.5     16.353      4.880
       92.5     16.390      3.975
       92.5     16.412      3.837
       92.5     16.417      2.719
       92.5     16.449      2.442
       92.5     16.485      3.284
       92.5     16.544      3.779
       92.5     16.557      4.830
       92.5     16.602      5.393
       92.5     16.639      4.487
       92.5     16.689      5.052
       92.5     16.702      5.612
       92.5     16.729      5.195
       92.5     16.793      6.040
       92.5     16.829      4.855
       92.5     16.848      4.297
       92.5     16.879      4.300
       92.5     16.906      5.701
       92.5     16.938      4.935
       92.5     16.980      3.330
       92.5     17.011      4.173
       92.5     17.024      5.013
       92.5     17.046      6.623
       92.5     17.064      7.884
       92.5     17.096      7.048
       92.5     17.106      4.951
       92.5     17.134      3.834
       92.5     17.151      4.465
       92.5     17.170      4.117
       92.5     17.201      4.470
       92.5     17.206      3.422
       92.5     17.238      2.935
       92.5     17.256      3.496
       92.5     17.274      4.057
       92.5     17.302      3.221
       92.5     17.319      3.991
       92.5     17.329      3.223
       92.5     17.352      2.106
       92.5     17.365      2.317
       92.5     17.411      1.413
       92.5     17.447      2.115
       92.5     17.460      2.886
       92.5     17.506      3.170
       92.5     17.524      2.822
       92.5     17.574      1.778
       92.5     17.597      1.919
       92.5     17.597      2.479
       92.5     17.628      2.622
       92.5     17.660      1.646
       92.5     17.697      1.649
       92.5     17.728      2.072
       92.5     17.756      1.655
       92.5     17.783      1.587
       95.0     12.794      6.167
       95.0     12.826      6.030
       95.0     12.866      7.783
       95.0     12.890      5.478
       95.0     12.899      3.730
       95.0     12.926      4.992
       95.0     12.944      6.322
       95.0     12.967      5.765
       95.0     12.993      6.887
       95.0     13.007      5.979
       95.0     13.056      8.082
       95.0     13.093      6.618
       95.0     13.121      5.712
       95.0     13.143      6.483
       95.0     13.165      7.394
       95.0     13.179      6.067
       95.0     13.211      6.350
       95.0     13.220      5.512
       95.0     13.239      5.025
       95.0     13.265      5.657
       95.0     13.288      6.009
       95.0     13.311      4.613
       95.0     13.329      4.195
       95.0     13.357      4.198
       95.0     13.375      3.221
       95.0     13.398      2.384
       95.0     13.443      3.718
       95.0     13.457      3.649
       95.0     13.501      6.031
       95.0     13.536      7.783
       95.0     13.559      7.925
       95.0     13.587      6.110
       95.0     13.614      5.903
       95.0     13.623      5.135
       95.0     13.633      4.087
       95.0     13.661      3.111
       95.0     13.697      2.695
       95.0     13.714      4.585
       95.0     13.746      5.497
       95.0     13.768      5.220
       95.0     13.785      7.250
       95.0     13.801     13.964
       95.0     13.840     17.534
       95.0     13.855     13.480
       95.0     15.001      2.063
       95.0     15.037      3.745
       95.0     15.074      2.420
       95.0     15.092      2.072
       95.0     15.114      2.424
       95.0     15.123      4.173
       95.0     15.153      7.323
       95.0     15.179      8.934
       95.0     15.202      8.447
       95.0     15.209      4.602
       95.0     15.222      3.764
       95.0     15.254      4.047
       95.0     15.276      4.749
       95.0     15.308      4.123
       95.0     15.335      5.664
       95.0     15.380      5.879
       95.0     15.394      5.321
       95.0     15.417      4.484
       95.0     15.435      3.717
       95.0     15.458      2.810
       95.0     15.490      3.722
       95.0     15.508      3.165
       95.0     15.545      2.400
       95.0     15.581      3.103
       95.0     15.612      3.036
       95.0     15.630      3.947
       95.0     15.683      6.190
       95.0     15.697      5.283
       95.0     15.734      3.678
       95.0     15.758      1.793
       95.0     15.798      2.566
       95.0     15.825      3.268
       95.0     15.879      3.134
       95.0     15.906      4.046
       95.0     15.942      5.868
       95.0     15.955      5.449
       95.0     15.983      3.564
       95.0     16.011      1.819
       95.0     16.065      2.384
       95.0     16.101      3.647
       95.0     16.137      3.860
       95.0     16.155      3.792
       95.0     16.178      2.956
       95.0     16.205      3.448
       95.0     16.242      2.263
       95.0     16.259      3.803
       95.0     16.287      3.946
       95.0     16.300      3.388
       95.0     16.319      2.761
       95.0     16.346      2.693
       95.0     16.369      2.206
       95.0     16.392      1.719
       95.0     16.424      1.443
       95.0     16.464      2.216
       95.0     16.504      2.920
       95.0     16.522      3.901
       95.0     16.544      4.392
       95.0     16.586      3.488
       95.0     16.708      3.850
       95.0     16.744      4.413
       95.0     16.771      3.437
       95.0     16.790      2.670
       95.0     16.826      2.324
       95.0     16.849      2.886
       95.0     16.880      3.868
       95.0     16.889      2.960
       95.0     16.908      2.123
       95.0     16.962      2.338
       95.0     16.993      3.880
       95.0     17.033      5.283
       95.0     17.052      4.585
       95.0     17.084      2.771
       95.0     17.111      3.193
       95.0     17.125      2.635
       95.0     17.152      3.198
       95.0     17.161      2.359
       95.0     17.184      1.663
       95.0     17.207      2.224
       95.0     17.233      3.346
       95.0     17.274      3.490
       95.0     17.284      1.953
       95.0     17.311      1.326
       95.0     17.338      1.819
       95.0     17.366      1.052
       95.0     17.402      0.637
       95.0     17.461      1.342
       95.0     17.529      1.069
       95.0     17.574      1.703
       95.0     17.610      1.218
       95.0     17.628      0.870
       95.0     17.660      1.293
       95.0     17.700      1.507
       95.0     17.728      1.090
      154.4     12.890      4.957
      154.4     12.933      5.683
      154.4     12.957      6.046
      154.4     12.991      5.106
      154.4     13.010      4.671
      154.4     13.053      3.659
      154.4     13.086      6.486
      154.4     13.119     10.762
      154.4     13.148      6.271
      154.4     13.163      5.329
      154.4     13.201      5.331
      154.4     13.244      2.144
      154.4     13.273      2.000
      154.4     13.301      5.262
      154.4     13.329      8.523
      154.4     13.373      3.960
      154.4     13.392      2.512
      154.4     13.430      3.600
      154.4     13.450      2.441
      154.4     13.474      2.514
      154.4     13.493      3.022
      154.4     13.512      3.240
      154.4     13.550      2.300
      154.4     13.574      2.011
      154.4     13.603      2.302
      154.4     13.631      3.317
      154.4     13.645      3.825
      154.4     13.669      2.739
      154.4     13.722      1.437
      154.4     13.751      1.800
      154.4     13.770      2.525
      154.4     13.794      3.396
      154.4     13.827      5.571
      154.4     13.870      4.413
      154.4     13.903      5.066
      154.4     13.927      5.357
      154.4     13.994      3.548
      154.4     14.022      8.259
      154.4     14.050     15.506
      154.4     14.064     16.738
      154.4     14.088     13.406
      154.4     14.099      6.740
      154.4     14.123      2.828
      154.4     14.157      2.539
      154.4     14.166      4.786
      154.4     14.180      7.902
      154.4     14.218      9.498
      154.4     14.232      8.194
      154.4     14.252      6.383
      154.4     14.271      4.210
      154.4     14.300      3.414
      154.4     14.324      3.632
      154.4     14.348      3.923
      154.4     14.371      4.214
      154.4     14.395      3.780
      154.4     14.434      3.419
      154.4     14.462      5.739
      154.4     14.496      4.725
      154.4     14.520      4.074
      154.4     14.548      3.350
      154.4     14.577      4.294
      154.4     14.596      4.512
      154.4     14.620      3.498
      154.4     14.649      2.630
      154.4     14.682      2.848
      154.4     14.706      3.863
      154.4     14.739      4.082
      154.4     14.763      3.503
      154.4     14.782      2.852
      154.4     14.802      2.128
      154.4     14.835      2.202
      154.4     14.869      1.840
      154.4     14.897      1.189
      154.4     14.926      2.784
      154.4     14.945      5.176
      154.4     15.006      8.367
      154.4     15.035      6.629
      154.4     15.045      4.745
      154.4     15.069      2.717
      154.4     15.093      3.950
      154.4     15.121      6.197
      154.4     15.131      5.111
      154.4     15.150      2.648
      154.4     15.184      3.374
      154.4     15.201     11.707
      154.4     15.216     12.287
      154.4     15.240      9.172
      154.4     15.259     10.622
      154.4     15.282     13.377
      154.4     15.297      8.667
      154.4     15.312      6.132
      154.4     15.341      3.669
      154.4     15.417      5.338
      154.4     15.436      7.585
      154.4     15.480      4.544
      154.4     15.537      2.589
      154.4     15.556      3.677
      154.4     15.575      5.779
      154.4     15.598      8.678
      154.4     15.632      8.317
      154.4     15.651      8.752
      154.4     15.733      2.814
      154.4     15.766      6.076
      154.4     15.785      9.409
      154.4     15.799      7.236
      154.4     15.823      5.353
      154.4     15.862      5.427
      154.4     15.900      4.269
      154.4     15.919      3.690
      154.4     15.938      4.198
      154.4     15.981      7.678
      154.4     15.995      6.809
      154.4     16.025      2.679
      154.4     16.068      1.594
      154.4     16.087      1.088
      154.4     16.116      1.161
      154.4     16.158      2.974
      154.4     16.187      2.830
      154.4     16.249      1.311
      154.4     16.283      1.602
      154.4     16.335      1.459
      154.4     16.383      2.765
      154.4     16.407      2.258
      154.4     16.440      2.260
      154.4     16.459      3.854
      154.4     16.507      2.190
      154.4     16.550      1.684
      154.4     16.598      0.889
      154.4     16.627      1.904
      154.4     16.655      2.992
      154.4     16.674      3.645
      154.4     16.746      3.140
      154.4     16.789      2.562
      154.4     16.827      3.216
      154.4     16.899      2.204
      154.4     16.956      2.641
      154.4     16.999      1.845
      154.4     17.061      2.862
      154.4     17.095      2.283
      154.4     17.128      1.488
      154.4     17.167      0.764
      154.4     17.214      1.708
      154.4     17.228      1.998
      154.4     17.281      1.493
      154.4     17.329      2.582
      154.4     17.391      2.801
      154.4     17.410      3.382
      154.4     17.438      3.673
      154.4     17.477      2.732
      154.4     17.496      3.023
      154.4     17.510      5.849
      154.4     17.538      7.009
      154.4     17.562      6.575
      154.4     17.596      3.461
      154.4     17.635      1.796
      154.4     17.673      2.232
      154.4     17.697      1.581
      154.4     17.740      0.858
      154.4     17.768      1.293
      154.4     17.797      1.439
      154.4     17.835      1.078
      154.4     17.883      1.008
      156.7     12.884      4.071
      156.7     12.918      4.214
      156.7     12.942      5.071
      156.7     12.971      5.428
      156.7     12.990      4.643
      156.7     13.009      4.500
      156.7     13.028      3.714
      156.7     13.061      2.714
      156.7     13.090      4.500
      156.7     13.104      7.143
      156.7     13.133      7.643
      156.7     13.152      5.500
      156.7     13.171      4.571
      156.7     13.210      4.143
      156.7     13.257      1.643
      156.7     13.281      1.786
      156.7     13.310      4.428
      156.7     13.339      7.286
      156.7     13.348      6.714
      156.7     13.367      3.357
      156.7     13.396      2.286
      156.7     13.434      2.857
      156.7     13.453      2.429
      156.7     13.477      2.571
      156.7     13.506      2.429
      156.7     13.530      2.571
      156.7     13.563      1.643
      156.7     13.616      2.214
      156.7     13.654      2.429
      156.7     13.673      1.929
      156.7     13.697      1.357
      156.7     13.750      1.643
      156.7     13.774      2.786
      156.7     13.802      4.357
      156.7     13.817      4.857
      156.7     13.831      4.357
      156.7     13.874      3.428
      156.7     13.908      3.786
      156.7     13.927      4.286
      156.7     13.965      4.571
      156.7     14.008      3.428
      156.7     14.032      7.214
      156.7     14.065     11.857
      156.7     14.089      8.714
      156.7     14.108      3.928
      156.7     14.142      2.000
      156.7     14.175      3.857
      156.7     14.204      7.357
      156.7     14.233      6.714
      156.7     14.247      5.214
      156.7     14.271      3.500
      156.7     14.314      2.714
      156.7     14.352      3.000
      156.7     14.395      3.714
      156.7     14.443      3.000
      156.7     14.467      3.500
      156.7     14.505      3.143
      156.7     14.534      2.928
      156.7     14.558      2.500
      156.7     14.577      2.857
      156.7     14.606      3.571
      156.7     14.625      2.857
      156.7     14.639      2.000
      156.7     14.668      1.786
      156.7     14.682      2.286
      156.7     14.735      3.500
      156.7     14.763      2.857
      156.7     14.787      2.071
      156.7     14.806      1.857
      156.7     14.859      1.714
      156.7     14.897      1.500
      156.7     14.935      2.357
      156.7     14.950      4.357
      156.7     14.974      5.714
      156.7     15.017      6.571
      156.7     15.055      4.214
      156.7     15.093      2.928
      156.7     15.117      5.071
      156.7     15.141      4.000
      156.7     15.155      2.000
      156.7     15.179      2.786
      156.7     15.218      9.785
      156.7     15.241      8.571
      156.7     15.256     10.000
      156.7     15.284     12.500
      156.7     15.294      8.143
      156.7     15.318      5.286
      156.7     15.347      3.428
      156.7     15.390      3.786
      156.7     15.452      6.928
      156.7     15.500      3.857
      156.7     15.514      3.214
      156.7     15.547      2.500
      156.7     15.571      4.428
      156.7     15.614      6.643
      156.7     15.643      7.286
      156.7     15.667      8.143
      156.7     15.724      2.500
      156.7     15.753      5.357
      156.7     15.786      7.857
      156.7     15.825      4.857
      156.7     15.863      4.714
      156.7     15.892      4.000
      156.7     15.925      3.071
      156.7     15.935      3.643
      156.7     15.982      6.357
      156.7     16.006      5.643
      156.7     16.021      2.571
      156.7     16.059      1.857
      156.7     16.083      1.357
      156.7     16.121      0.929
      156.7     16.159      2.143
      156.7     16.193      1.786
      156.7     16.226      1.143
      156.7     16.265      1.000
      156.7     16.303      1.214
      156.7     16.336      1.143
      156.7     16.360      1.714
      156.7     16.389      2.143
      156.7     16.422      1.786
      156.7     16.461      3.428
      156.7     16.484      2.357
      156.7     16.499      1.786
      156.7     16.527      1.357
      156.7     16.561      1.143
      156.7     16.594      0.500
      156.7     16.633      1.857
      156.7     16.642      2.857
      156.7     16.676      3.857
      156.7     16.728      3.428
      156.7     16.776      3.428
      156.7     16.805      2.857
      156.7     16.838      3.357
      156.7     16.886      2.143
      156.7     16.920      2.000
      156.7     16.948      2.571
      156.7     16.967      2.786
      156.7     17.006      1.929
      156.7     17.049      2.286
      156.7     17.082      3.071
      156.7     17.106      1.857
      156.7     17.135      1.071
      156.7     17.163      0.643
      156.7     17.221      1.286
      156.7     17.245      1.643
      156.7     17.278      1.286
      156.7     17.321      2.429
      156.7     17.345      2.571
      156.7     17.398      2.571
      156.7     17.426      3.500
      156.7     17.450      3.143
      156.7     17.474      2.571
      156.7     17.551      6.143
      156.7     17.579      4.428
      156.7     17.618      1.500
      156.7     17.670      2.071
      156.7     17.694      1.714
      156.7     17.723      0.929
      156.7     17.737      0.571
      156.7     17.780      1.071
      156.7     17.804      1.357
      156.7     17.837      1.000
      156.7     17.873      0.989
      156.7     17.876      0.714
      158.9     12.864      3.494
      158.9     12.893      2.928
      158.9     12.922      4.134
      158.9     12.955      4.276
      158.9     12.984      3.922
      158.9     12.994      3.001
      158.9     13.032      1.938
      158.9     13.061      2.151
      158.9     13.080      4.208
      158.9     13.108      5.556
      158.9     13.128      4.706
      158.9     13.152      3.856
      158.9     13.185      3.502
      158.9     13.209      2.013
      158.9     13.257      1.589
      158.9     13.286      3.220
      158.9     13.309      6.129
      158.9     13.329      5.562
      158.9     13.348      3.080
      158.9     13.367      2.230
      158.9     13.396      2.372
      158.9     13.420      2.727
      158.9     13.453      2.728
      158.9     13.468      2.019
      158.9     13.516      1.666
      158.9     13.549      2.163
      158.9     13.588      2.377
      158.9     13.631      2.236
      158.9     13.650      1.811
      158.9     13.683      1.315
      158.9     13.707      1.741
      158.9     13.736      2.238
      158.9     13.755      3.870
      158.9     13.788      4.580
      158.9     13.841      2.170
      158.9     13.870      2.454
      158.9     13.903      3.306
      158.9     13.932      3.874
      158.9     13.970      3.733
      158.9     14.009      5.720
      158.9     14.047      7.139
      158.9     14.071      4.941
      158.9     14.119      1.751
      158.9     14.143      2.957
      158.9     14.171      4.589
      158.9     14.195      5.157
      158.9     14.219      4.235
      158.9     14.239      3.527
      158.9     14.263      3.031
      158.9     14.291      2.606
      158.9     14.306      2.181
      158.9     14.330      2.465
      158.9     14.368      3.530
      158.9     14.401      3.318
      158.9     14.416      2.467
      158.9     14.445      1.830
      158.9     14.483      2.043
      158.9     14.502      2.398
      158.9     14.531      1.903
      158.9     14.560      2.541
      158.9     14.588      2.826
      158.9     14.612      2.046
      158.9     14.641      1.196
      158.9     14.679      2.048
      158.9     14.708      2.545
      158.9     14.732      2.546
      158.9     14.756      2.192
      158.9     14.770      1.554
      158.9     14.809      1.271
      158.9     14.842      1.768
      158.9     14.871      1.485
      158.9     14.919      2.195
      158.9     14.962      3.189
      158.9     14.976      3.899
      158.9     14.995      4.608
      158.9     15.019      4.467
      158.9     15.034      2.624
      158.9     15.062      2.270
      158.9     15.101      3.263
      158.9     15.125      2.413
      158.9     15.134      1.988
      158.9     15.158      2.768
      158.9     15.191      5.464
      158.9     15.225      5.748
      158.9     15.239      7.805
      158.9     15.272      9.792
      158.9     15.335      2.843
      158.9     15.364      3.199
      158.9     15.393      3.058
      158.9     15.431      5.186
      158.9     15.474      4.123
      158.9     15.512      3.273
      158.9     15.536      2.281
      158.9     15.584      4.409
      158.9     15.618      4.765
      158.9     15.656      5.829
      158.9     15.680      4.341
      158.9     15.718      2.072
      158.9     15.747      3.775
      158.9     15.776      5.194
      158.9     15.780      4.556
      158.9     15.814      3.635
      158.9     15.848      3.707
      158.9     15.867      3.140
      158.9     15.891      2.147
      158.9     15.924      2.786
      158.9     15.948      4.489
      158.9     15.972      5.270
      158.9     15.996      3.994
      158.9     16.011      2.150
      158.9     16.058      1.939
      158.9     16.102      1.089
      158.9     16.149      1.586
      158.9     16.197      1.020
      158.9     16.250      0.667
      158.9     16.298      0.951
      158.9     16.336      0.952
      158.9     16.360      1.520
      158.9     16.379      1.733
      158.9     16.413      1.380
      158.9     16.441      2.728
      158.9     16.475      4.218
      158.9     16.513      3.084
      158.9     16.537      2.375
      158.9     16.576      1.242
      158.9     16.619      2.661
      158.9     16.633      3.441
      158.9     16.657      4.364
      158.9     16.686      3.939
      158.9     16.724      4.011
      158.9     16.758      1.175
      158.9     16.796      1.105
      158.9     16.815      1.318
      158.9     16.858      1.461
      158.9     16.882      2.029
      158.9     16.925      3.094
      158.9     16.968      1.535
      158.9     17.016      1.819
      158.9     17.074      1.253
      158.9     17.117      0.971
      158.9     17.160      0.759
      158.9     17.198      1.186
      158.9     17.222      1.470
      158.9     17.265      1.045
      158.9     17.299      1.755
      158.9     17.327      2.323
      158.9     17.370      2.608
      158.9     17.418      3.176
      158.9     17.442      2.893
      158.9     17.466      2.610
      158.9     17.523      4.881
      158.9     17.552      3.960
      158.9     17.572      2.754
      158.9     17.605      1.550
      158.9     17.653      2.047
      158.9     17.691      1.268
      158.9     17.725      0.631
      158.9     17.768      1.270
      158.9     17.797      1.341
      158.9     17.840      0.917
      163.4     12.845      5.257
      163.4     12.864      4.678
      163.4     12.907      3.810
      163.4     12.955      3.813
      163.4     12.979      2.799
      163.4     13.015      2.705
      163.4     13.040      7.368
      163.4     13.092     10.124
      163.4     13.107      7.298
      163.4     13.127      5.053
      163.4     13.155      3.533
      163.4     13.184      3.099
      163.4     13.222      3.681
      163.4     13.251      2.378
      163.4     13.313      4.337
      163.4     13.366      2.818
      163.4     13.408      6.806
      163.4     13.427      5.937
      163.4     13.431      4.295
      163.4     13.447      2.532
      163.4     13.481      1.447
      163.4     13.504      5.506
      163.4     13.537      6.594
      163.4     13.547      4.421
      163.4     13.566      3.263
      163.4     13.618      5.324
      163.4     13.633      3.048
      163.4     13.648      1.600
      163.4     13.677      1.529
      163.4     13.691      1.964
      163.4     13.705      3.777
      163.4     13.712      2.630
      163.4     13.733      6.024
      163.4     13.757      6.605
      163.4     13.772      4.215
      163.4     13.791      2.114
      163.4     13.830      1.319
      163.4     13.853      2.407
      163.4     13.880      4.484
      163.4     13.905      5.960
      163.4     13.943      6.976
      163.4     13.976      8.790
      163.4     13.995      5.123
      163.4     14.006      4.298
      163.4     14.039      4.300
      163.4     14.062      4.224
      163.4     14.087      2.273
      163.4     14.121      1.333
      163.4     14.164      1.552
      163.4     14.204      2.281
      163.4     14.258      5.977
      163.4     14.297      3.660
      163.4     14.312      3.081
      163.4     14.364      4.968
      163.4     14.402      6.129
      163.4     14.421      7.507
      163.4     14.445      6.421
      163.4     14.469      4.393
      163.4     14.488      3.235
      163.4     14.527      1.715
      163.4     14.560      1.137
      163.4     14.589      2.008
      163.4     14.622      2.444
      163.4     14.646      2.590
      163.4     14.682      2.326
      163.4     14.704      2.231
      163.4     14.728      1.435
      163.4     14.752      0.929
      163.4     14.785      0.785
      163.4     14.818      1.077
      163.4     14.828      1.657
      163.4     14.852      2.310
      163.4     14.895      1.370
      163.4     14.909      0.936
      163.4     14.933      1.082
      163.4     14.962      1.518
      163.4     14.997      1.376
      163.4     15.033      1.884
      163.4     15.059      1.516
      163.4     15.096      0.945
      163.4     15.139      1.020
      163.4     15.172      1.021
      163.4     15.196      1.892
      163.4     15.229      2.763
      163.4     15.267      1.533
      163.4     15.291      1.100
      163.4     15.339      1.102
      163.4     15.401      0.888
      163.4     15.425      1.396
      163.4     15.463      2.195
      163.4     15.501      2.052
      163.4     15.578      0.896
      163.4     15.602      1.549
      163.4     15.640      2.493
      163.4     15.664      1.770
      163.4     15.693      1.047
      163.4     15.721      1.193
      163.4     15.774      0.833
      163.4     15.817      1.053
      163.4     15.860      0.692
      163.4     15.903      0.549
      163.4     15.951      0.624
      163.4     15.984      0.843
      163.4     16.022      1.207
      163.4     16.036      1.643
      163.4     16.094      0.993
      163.4     16.123      0.922
      163.4     16.161      0.852
      163.4     16.204      0.709
      163.4     16.258      0.625
      163.4     16.275      0.930
      163.4     16.352      0.426
      163.4     16.428      0.865
      163.4     16.452      3.402
      163.4     16.480      3.041
      163.4     16.533      1.812
      163.4     16.595      2.974
      163.4     16.628      3.338
      163.4     16.662      2.905
      163.4     16.695      2.762
      163.4     16.743      3.923
      163.4     16.753      0.446
      163.4     16.801      0.665
      163.4     16.853      1.392
      163.4     16.911      1.105
      163.4     16.954      0.745
      163.4     17.002      0.675
      163.4     17.054      0.533
      163.4     17.102      0.897
      163.4     17.169      0.611
      163.4     17.221      0.468
      163.4     17.264      0.978
      163.4     17.293      1.631
      163.4     17.321      1.850
      163.4     17.360      1.634
      163.4     17.403      1.709
      163.4     17.451      1.276
      163.4     17.508      1.352
      163.4     17.556      0.557
      163.4     17.618      0.995
      163.4     17.647      0.779
      163.4     17.661      0.417
      163.4     17.704      0.636
      163.4     17.728      0.855
      163.4     17.761      0.784
      163.4     17.804      0.859
      163.4     17.842      0.861
      165.6     12.827      8.540
      165.6     12.860      7.823
      165.6     12.879      5.530
      165.6     12.937      4.814
      165.6     12.989      3.667
      165.6     12.999      5.531
      165.6     13.027     12.843
      165.6     13.070     20.657
      165.6     13.090     11.339
      165.6     13.104      7.755
      165.6     13.128      6.465
      165.6     13.157      5.605
      165.6     13.209      6.609
      165.6     13.238      4.387
      165.6     13.267      5.176
      165.6     13.291      5.965
      165.6     13.315      6.324
      165.6     13.353      4.675
      165.6     13.372      8.761
      165.6     13.396     10.482
      165.6     13.415      8.762
      165.6     13.425      4.246
      165.6     13.439      2.741
      165.6     13.473      3.602
      165.6     13.496      8.906
      165.6     13.515     11.272
      165.6     13.530      6.470
      165.6     13.554      5.323
      165.6     13.602     10.843
      165.6     13.611      6.255
      165.6     13.635      2.026
      165.6     13.650      1.740
      165.6     13.674      2.099
      165.6     13.697      5.468
      165.6     13.726      7.762
      165.6     13.760      5.540
      165.6     13.779      3.749
      165.6     13.789      2.817
      165.6     13.812      3.391
      165.6     13.841      6.115
      165.6     13.865      9.197
      165.6     13.879     10.058
      165.6     13.908      9.341
      165.6     13.922     10.703
      165.6     13.946     13.284
      165.6     13.980     10.489
      165.6     14.022     12.999
      165.6     14.047      8.698
      165.6     14.090      2.820
      165.6     14.109      2.534
      165.6     14.147      4.111
      165.6     14.190      4.829
      165.6     14.233     10.492
      165.6     14.247      9.919
      165.6     14.281      6.478
      165.6     14.291      5.475
      165.6     14.319      6.049
      165.6     14.348      6.551
      165.6     14.377     11.426
      165.6     14.410     17.161
      165.6     14.429     15.656
      165.6     14.444      9.563
      165.6     14.453      6.337
      165.6     14.492      3.829
      165.6     14.535      2.252
      165.6     14.554      3.184
      165.6     14.587      4.690
      165.6     14.611      5.479
      165.6     14.631      3.974
      165.6     14.669      4.978
      165.6     14.674      4.118
      165.6     14.702      2.326
      165.6     14.731      1.681
      165.6     14.769      1.251
      165.6     14.832      3.761
      165.6     14.875      2.256
      165.6     14.894      3.045
      165.6     14.922      4.479
      165.6     14.946      3.691
      165.6     14.966      2.544
      165.6     14.985      3.118
      165.6     15.018      4.122
      165.6     15.047      3.405
      165.6     15.057      1.972
      165.6     15.085      0.897
      165.6     15.114      1.542
      165.6     15.147      3.406
      165.6     15.186      2.117
      165.6     15.200      1.400
      165.6     15.262      1.257
      165.6     15.315      1.115
      165.6     15.368      1.044
      165.6     15.411      1.474
      165.6     15.473      2.120
      165.6     15.511      1.619
      165.6     15.564      0.616
      165.6     15.592      1.046
      165.6     15.607      1.405
      165.6     15.636      1.549
      165.6     15.674      1.406
      165.6     15.702      1.549
      165.6     15.746      0.976
      165.6     15.779      0.690
      165.6     15.827      1.049
      165.6     15.860      0.763
      165.6     15.903      0.835
      165.6     15.947      1.050
      165.6     15.994      1.051
      165.6     16.037      1.553
      165.6     16.080      1.626
      165.6     16.109      1.913
      165.6     16.152      1.483
      165.6     16.200      1.340
      165.6     16.248      1.771
      165.6     16.286      0.839
      165.6     16.329      0.553
      165.6     16.377      0.769
      165.6     16.420      0.841
      165.6     16.430      3.493
      165.6     16.477      3.709
      165.6     16.501      2.921
      165.6     16.525      2.204
      165.6     16.549      2.635
      165.6     16.573      3.495
      165.6     16.607      3.854
      165.6     16.621      3.066
      165.6     16.669      2.349
      165.6     16.702      3.282
      165.6     16.717      3.784
      165.6     16.731      1.060
      165.6     16.779      1.634
      165.6     16.841      1.420
      165.6     16.889      0.847
      165.6     16.927      0.417
      165.6     16.975      0.776
      165.6     17.023      0.920
      165.6     17.061      0.920
      165.6     17.119      0.634
      165.6     17.167      0.635
      165.6     17.234      1.066
      165.6     17.258      1.353
      165.6     17.296      1.855
      165.6     17.334      0.924
      165.6     17.392      1.211
      165.6     17.439      0.925
      165.6     17.482      0.854
      165.6     17.521      0.568
      165.6     17.569      0.855
      165.6     17.616      0.497
      165.6     17.659      0.426
      165.6     17.717      0.426
      165.6     17.760      0.857
      165.6     17.798      0.714
      165.6     17.837      0.571
      167.8     12.861     14.786
      167.8     12.875      9.938
      167.8     12.894      7.272
      167.8     12.942      7.030
      167.8     12.985      6.544
      167.8     12.994     11.634
      167.8     13.014     23.512
      167.8     13.033     39.024
      167.8     13.057     37.084
      167.8     13.114     11.876
      167.8     13.138      9.938
      167.8     13.171     10.180
      167.8     13.200     11.876
      167.8     13.224      8.484
      167.8     13.257      8.726
      167.8     13.291      9.696
      167.8     13.324      8.484
      167.8     13.386     15.998
      167.8     13.444      4.848
      167.8     13.463      7.998
      167.8     13.501     17.694
      167.8     13.549      9.696
      167.8     13.578     16.724
      167.8     13.597     10.180
      167.8     13.621      2.666
      167.8     13.678      7.030
      167.8     13.702      9.696
      167.8     13.793      7.030
      167.8     13.836     13.332
      167.8     13.860     17.936
      167.8     13.898     15.512
      167.8     13.917     17.452
      167.8     13.946     20.846
      167.8     13.994     30.298
      167.8     14.022     29.086
      167.8     14.061      8.968
      167.8     14.094      5.818
      167.8     14.156     10.908
      167.8     14.180     10.422
      167.8     14.194     13.088
      167.8     14.228     16.240
      167.8     14.271     11.634
      167.8     14.271      9.452
      167.8     14.328      9.696
      167.8     14.362     21.330
      167.8     14.390     34.904
      167.8     14.405     32.480
      167.8     14.429     20.360
      167.8     14.457     11.150
      167.8     14.491      7.514
      167.8     14.529      5.332
      167.8     14.572      8.242
      167.8     14.586     10.664
      167.8     14.625     12.120
      167.8     14.663      7.272
      167.8     14.706      3.878
      167.8     14.763      1.940
      167.8     14.802      4.362
      167.8     14.830      5.574
      167.8     14.859      4.606
      167.8     14.864      7.272
      167.8     14.897     11.392
      167.8     14.921     13.332
      167.8     14.940      9.938
      167.8     14.964      6.786
      167.8     15.002      7.272
      167.8     15.055      4.362
      167.8     15.074      1.940
      167.8     15.131      9.452
      167.8     15.170      4.606
      167.8     15.198      2.908
      167.8     15.227      6.544
      167.8     15.275      7.030
      167.8     15.337      3.878
      167.8     15.375      3.150
      167.8     15.447      2.182
      167.8     15.490      3.878
      167.8     15.519      3.150
      167.8     15.571      1.940
      167.8     15.648      2.424
      167.8     15.710      4.606
      167.8     15.743      2.666
      167.8     15.786      1.696
      167.8     15.815      2.424
      167.8     15.858      1.940
      167.8     15.901      4.120
      167.8     15.930      3.878
      167.8     16.011      1.696
      167.8     16.049      2.908
      167.8     16.102      4.606
      167.8     16.150      2.666
      167.8     16.193      2.666
      167.8     16.217      3.394
      167.8     16.241      2.424
      167.8     16.298      1.696
      167.8     16.365      1.454
      167.8     16.422      2.182
      167.8     16.456      2.666
      167.8     16.508      1.696
      167.8     16.566      2.908
      167.8     16.618      1.940
      167.8     16.666      0.970
      167.8     16.728      2.666
      167.8     16.752      4.606
      167.8     16.829      1.940
      167.8     16.896      0.970
      167.8     16.953      1.454
      167.8     16.996      2.666
      167.8     17.034      2.424
      167.8     17.082      1.212
      167.8     17.130      1.212
      167.8     17.182      1.696
      167.8     17.245      3.150
      167.8     17.302      2.666
      167.8     17.364      0.728
      167.8     17.417      1.454
      167.8     17.469      2.182
      167.8     17.546      1.696
      167.8     17.613      1.696
      167.8     17.684      0.728
      167.8     17.737      1.696
      167.8     17.794      1.940
ENDDATA           1927
ENDSUBENT         1936
SUBENT        C2792003   20220805   20240315   20240315       C229
BIB                  2          4
REACTION   (18-AR-36(A,EL)18-AR-36,,DA)
STATUS     (CURVE,,W.J.Wallace+,J,PR/C,2,1738,1970) Fig.3
           digitized by GSYS-2.4.9.
           (COREL,C2792002) Excitation function
ENDBIB               4
NOCOMMON             0          0
DATA                 3        425
EN         ANG-CM     DATA-CM
MEV        ADEG       MB/SR
      13.00     31.243   2143.183
      13.00     33.250   1358.339
      13.00     36.863    600.620
      13.00     40.089    408.994
      13.00     43.319    299.285
      13.00     46.125    145.679
      13.00     49.360    120.184
      13.00     54.622    101.526
      13.00     58.670     87.863
      13.00     61.092     69.100
      13.00     64.314     42.749
      13.00     69.533     13.508
      13.00     74.389     10.877
      13.00     80.082     16.338
      13.00     83.736     18.410
      13.00     89.401     14.471
      13.00     92.227     11.110
      13.00     93.437      9.619
      13.00     95.849      5.952
      13.00     97.050      4.253
      13.00     98.255      3.266
      13.00    100.277      2.967
      13.00    103.116      3.037
      13.00    105.967      4.049
      13.00    109.215      4.562
      13.00    113.268      4.451
      13.00    116.901      3.105
      13.00    119.728      2.441
      13.00    122.953      1.623
      13.00    126.187      1.307
      13.00    129.027      1.371
      13.00    131.463      1.473
      13.00    136.328      1.507
      13.00    140.383      1.543
      13.00    146.094      3.402
      13.00    147.319      4.121
      13.00    150.570      4.990
      13.00    154.208      3.923
      13.00    156.623      2.609
      13.00    160.249      1.576
      13.00    163.104      2.312
      13.00    165.983      5.888
      13.00    168.038     11.248
      13.51     32.841   1848.512
      13.51     35.237   1143.460
      13.51     40.454    569.570
      13.51     42.453    397.258
      13.51     44.857    270.480
      13.51     48.449    128.474
      13.51     51.272    105.965
      13.51     54.898     79.386
      13.51     60.141     55.322
      13.51     62.143     39.522
      13.51     63.740     28.923
      13.51     70.168     13.402
      13.51     72.601     13.394
      13.51     75.039     14.384
      13.51     81.123     15.066
      13.51     84.759     12.725
      13.51     86.370     11.015
      13.51     91.189      6.040
      13.51     94.006      4.636
      13.51     95.612      3.734
      13.51     98.460      4.309
      13.51    100.904      4.972
      13.51    103.754      5.877
      13.51    107.412      6.619
      13.51    111.057      6.303
      13.51    115.094      5.074
      13.51    117.476      2.591
      13.51    120.690      1.763
      13.51    124.300      1.065
      13.51    127.196      2.292
      13.51    129.250      3.282
      13.51    131.692      3.698
      13.51    137.789      4.582
      13.51    139.807      4.062
      13.51    141.012      3.516
      13.51    145.861      2.830
      13.51    148.282      2.449
      13.51    150.291      1.926
      13.51    153.929      1.666
      13.51    157.584      1.832
      13.51    160.442      2.383
      13.51    164.580      7.175
      13.51    165.424     11.047
      13.51    166.282     20.605
      14.00     31.634   1717.921
      14.00     34.442   1041.153
      14.00     37.241    534.089
      14.00     41.262    301.289
      14.00     43.665    182.613
      14.00     46.156     94.445
      14.00     50.220     96.635
      14.00     54.282     96.556
      14.00     59.808     52.745
      14.00     61.808     33.531
      14.00     64.610     18.040
      14.00     69.830      7.645
      14.00     74.289      7.638
      14.00     75.929     10.407
      14.00     81.196      9.912
      14.00     83.623      9.007
      14.00     86.043      7.265
      14.00     89.470      6.107
      14.00     94.126      4.724
      14.00     97.158      3.532
      14.00     99.996      3.210
      14.00    103.650      3.059
      14.00    106.900      2.986
      14.00    110.144      2.713
      14.00    113.388      2.408
      14.00    116.816      3.795
      14.00    119.948      6.518
      14.00    122.408      9.524
      14.00    126.618     13.071
      14.00    129.342     14.932
      14.00    131.366     12.944
      14.00    136.190      5.373
      14.00    139.901      2.580
      14.00    141.091      1.641
      14.00    145.962      7.656
      14.00    147.214     13.531
      14.00    149.344     19.506
      14.00    153.330     19.294
      14.00    157.025     13.304
      14.00    160.644      8.061
      14.00    163.402      4.526
      14.00    166.359     15.688
      14.00    166.809     33.617
      14.51     32.381   1455.167
      14.51     34.304   1014.438
      14.51     39.591    515.833
      14.51     40.718    328.036
      14.51     44.334    193.351
      14.51     47.952     84.618
      14.51     51.576     75.731
      14.51     54.418     72.130
      14.51     60.900     56.650
      14.51     62.096     41.462
      14.51     64.898     23.865
      14.51     70.922      9.577
      14.51     75.327      8.529
      14.51     81.828     10.075
      14.51     85.538      8.261
      14.51     90.772      4.422
      14.51     95.232      3.825
      14.51     99.102      1.534
      14.51    101.224      1.021
      14.51    104.480      1.096
      14.51    108.984      1.686
      14.51    111.440      2.142
      14.51    114.959      2.655
      14.51    117.805      2.921
      14.51    121.455      2.989
      14.51    125.116      3.449
      14.51    129.176      3.703
      14.51    132.413      3.442
      14.51    137.448      2.231
      14.51    140.672      1.594
      14.51    141.060      1.254
      14.51    147.578      1.553
      14.51    148.430      2.632
      14.51    150.080      3.593
      14.51    154.560      4.144
      14.51    158.202      3.417
      14.51    160.608      2.271
      14.51    163.396      1.079
      14.51    167.332      6.524
      14.51    167.936      2.681
      15.00     33.228   1575.160
      15.00     37.260   1039.073
      15.00     40.843    391.035
      15.00     43.649    234.035
      15.00     47.464    165.274
      15.00     50.100    120.869
      15.00     52.933    104.323
      15.00     55.772     96.882
      15.00     62.623     45.376
      15.00     63.803     27.170
      15.00     66.605     15.486
      15.00     72.282     13.356
      15.00     77.156     13.017
      15.00     81.999      8.378
      15.00     86.829      4.545
      15.00     88.024      3.308
      15.00     96.159      3.730
      15.00     99.015      4.314
      15.00    103.477      3.908
      15.00    106.711      3.135
      15.00    109.939      2.337
      15.00    113.155      1.468
      15.00    116.400      1.364
      15.00    118.834      1.298
      15.00    123.313      1.464
      15.00    129.459      2.896
      15.00    131.507      3.605
      15.00    133.937      3.267
      15.00    139.973      1.494
      15.00    141.582      1.199
      15.00    143.156      0.605
      15.00    148.480      1.059
      15.00    149.730      1.603
      15.00    150.988      2.675
      15.00    155.863      2.672
      15.00    158.702      2.481
      15.00    162.319      1.449
      15.00    165.198      2.302
      15.00    167.694      5.024
      15.00    168.961      9.473
      15.51     39.218    678.323
      15.51     42.816    405.062
      15.51     46.307    131.755
      15.51     48.641     65.030
      15.51     51.756     25.637
      15.51     55.365     16.320
      15.51     57.421     16.813
      15.51     61.509     15.702
      15.51     66.656      5.612
      15.51     67.800      3.469
      15.51     70.949      1.657
      15.51     77.787      0.788
      15.51     81.898      0.837
      15.51     82.689      0.712
      15.51     87.979      0.566
      15.51     90.410      0.481
      15.51     93.240      0.384
      15.51     97.732      0.347
      15.51    101.831      0.345
      15.51    105.447      0.227
      15.51    107.018      0.154
      15.51    108.596      0.108
      15.51    110.987      0.074
      15.51    114.016      0.018
      15.51    118.582      0.025
      15.51    121.469      0.027
      15.51    124.458      0.053
      15.51    127.419      0.088
      15.51    131.188      0.137
      15.51    134.906      0.160
      15.51    138.151      0.131
      15.51    139.290      0.079
      15.51    145.696      0.033
      15.51    147.734      0.031
      15.51    158.905      0.541
      15.51    162.555      0.431
      15.51    165.373      0.322
      15.51    167.730      0.181
      15.51    171.528      0.033
      15.51    174.967      0.081
      15.51    175.183      0.272
      16.00     37.143   1068.939
      16.00     41.913    688.925
      16.00     45.332    274.237
      16.00     47.678    190.461
      16.00     50.367    103.858
      16.00     53.166     85.383
      16.00     57.638     82.996
      16.00     61.224     61.902
      16.00     65.936     32.102
      16.00     67.061     22.321
      16.00     69.750     12.171
      16.00     75.372      9.061
      16.00     78.668     10.441
      16.00     81.486      9.229
      16.00     87.108      6.870
      16.00     88.297      6.082
      16.00     90.708      5.378
      16.00     95.206      5.757
      16.00     97.655      5.885
      16.00    100.951      6.781
      16.00    103.323      5.187
      16.00    104.098      4.484
      16.00    106.877      3.429
      16.00    108.797      2.216
      16.00    112.319      1.298
      16.00    116.029      1.532
      16.00    118.963      2.091
      16.00    123.047      2.186
      16.00    126.227      1.631
      16.00    128.553      1.054
      16.00    131.985      0.440
      16.00    134.880      0.520
      16.00    136.205      0.764
      16.00    141.614      1.175
      16.00    144.070      1.230
      16.00    147.275      1.011
      16.00    151.509      0.402
      16.00    152.704      0.365
      16.00    155.664      0.548
      16.00    158.352      1.369
      16.00    161.273      1.781
      16.00    166.158      1.773
      16.00    169.719      1.201
      16.00    171.678      0.897
      16.49     34.596    933.495
      16.49     36.980    664.683
      16.49     40.889    264.824
      16.49     43.225    144.573
      16.49     46.384     82.790
      16.49     49.179     60.375
      16.49     52.835     57.397
      16.49     56.499     57.266
      16.49     62.449     23.344
      16.49     63.182     14.746
      16.49     65.985     11.286
      16.49     71.656      9.497
      16.49     75.290      8.002
      16.49     77.695      6.429
      16.49     81.664      3.592
      16.49     85.311      3.254
      16.49     91.033      3.658
      16.49     95.096      3.477
      16.49     98.709      2.596
      16.49    102.572      0.793
      16.49    104.119      0.501
      16.49    107.852      0.735
      16.49    109.926      0.913
      16.49    113.629      1.131
      16.49    118.108      1.128
      16.49    120.500      0.843
      16.49    124.923      0.614
      16.49    128.146      0.505
      16.49    130.152      0.426
      16.49    132.154      0.351
      16.49    136.929      0.187
      16.49    140.585      0.177
      16.49    142.269      0.243
      16.49    146.893      0.550
      16.49    148.663      1.219
      16.49    152.349      1.373
      16.49    155.979      1.129
      16.49    158.375      0.864
      16.49    161.730      1.503
      16.49    164.988      1.500
      16.49    167.770      1.018
      16.49    169.942      2.201
      17.00     35.775    854.439
      17.00     38.127    621.203
      17.00     41.837    183.336
      17.00     44.078     92.551
      17.00     48.025     59.478
      17.00     50.852     53.799
      17.00     54.517     52.298
      17.00     58.545     43.918
      17.00     64.148      7.952
      17.00     64.288     12.622
      17.00     66.848      4.757
      17.00     73.800      4.957
      17.00     77.027      4.374
      17.00     78.199      3.684
      17.00     82.539      2.254
      17.00     86.620      2.244
      17.00     86.731      3.232
      17.00     93.289      3.538
      17.00     96.523      3.198
      17.00    100.945      2.557
      17.00    102.519      0.551
      17.00    104.812      0.330
      17.00    108.891      1.252
      17.00    112.222      1.553
      17.00    116.747      1.745
      17.00    120.323      1.267
      17.00    122.987      0.671
      17.00    126.007      0.300
      17.00    128.588      0.463
      17.00    131.125      0.619
      17.00    135.643      0.678
      17.00    138.841      0.543
      17.00    141.593      0.385
      17.00    143.307      0.503
      17.00    148.106      1.389
      17.00    149.835      1.902
      17.00    152.765      2.418
      17.00    155.673      2.858
      17.00    160.176      2.986
      17.00    163.144      1.125
      17.00    165.853      0.181
      17.00    169.131      0.721
      17.00    169.872      2.154
      17.50     34.564    772.386
      17.50     36.859    499.405
      17.50     40.147    168.387
      17.50     42.322     77.741
      17.50     46.725     60.780
      17.50     52.437     60.354
      17.50     56.329     35.372
      17.50     60.884     13.431
      17.50     63.144      7.887
      17.50     66.434      8.443
      17.50     72.078      6.916
      17.50     75.018      2.761
      17.50     75.163      4.156
      17.50     80.764      3.019
      17.50     84.165      4.418
      17.50     86.316      6.025
      17.50     92.810      5.429
      17.50     95.130      3.773
      17.50     97.093      3.031
      17.50     98.222      0.731
      17.50     98.512      1.657
      17.50     99.615      0.372
      17.50    101.808      0.572
      17.50    104.087      1.120
      17.50    107.786      3.805
      17.50    110.303      4.599
      17.50    115.615      4.680
      17.50    118.640      2.376
      17.50    120.816      1.097
      17.50    123.458      0.599
      17.50    127.846      1.417
      17.50    129.631      2.181
      17.50    132.938      2.450
      17.50    137.255      1.506
      17.50    139.872      0.765
      17.50    141.436      0.630
      17.50    146.291      1.763
      17.50    147.703      2.988
      17.50    150.704      4.482
      17.50    154.827      5.029
      17.50    158.847      4.228
      17.50    161.116      2.544
      17.50    163.001      0.518
      17.50    165.558      0.222
      17.50    167.294      0.941
ENDDATA            427
ENDSUBENT          436
ENDENTRY             3
