ENTRY            O2378   20191217   20200302   20200301       O073
SUBENT        O2378001   20191217   20200302   20200301       O073
BIB                  9         16
TITLE      Spectroscopic factors of isobaric analogue states from
           proton excitation of some medium weight even nuclei
AUTHOR     (C.Gaarde,P.Wilhjelm,P.Bruun Jorgensen)
INSTITUTE  (2DENNBI)
REFERENCE  (J,PL,22,466,1966)
FACILITY   (VDG,2DENNBI) 4 MV Van de Graaff accelerator
SAMPLE     The thickness of the 99% enriched targets were
           generally about 20 mu-g/cm2, with a similar amount of
           carbon backing. 64,66,68Zn with target thickness
           around 150 mu-g/cm2 was used to investigate the
           inelastic scattering leading to the lowest excited
           states.
DETECTOR   (SOLST) Two solid state detectors and
           a 2 x 256-channel analyzer.
ERR-ANALYS (ERR-S) Statistical uncertainty
HISTORY    (20191217C) SD
ENDBIB              16
COMMON               1          3
EN-RSL-FW
KEV
  2.
ENDCOMMON            3
ENDSUBENT           23
SUBENT        O2378002   20191217   20200302   20200301       O073
BIB                  2          2
REACTION   (30-ZN-66(P,EL)30-ZN-66,,DA,,RSD)
STATUS     (CURVE) Fig.1 from Phys.Lett.,22(1966)466
ENDBIB               2
COMMON               4          3
ANG        ERR-S      EN-ERR-DIG ERR-DIG
ADEG       NO-DIM     MEV        NO-DIM
  159.         0.0037   0.0012      0.0065
ENDCOMMON            3
DATA                 2        143
EN         DATA
MEV        NO-DIM
     2.7721     1.0991
     2.7786     1.0912
     2.7852     1.0775
     2.7924     1.0833
     2.7995     1.0735
     2.8067     1.0773
     2.8138     1.0519
     2.8204     1.0480
     2.8281     1.0596
     2.8347     1.0478
     2.8423     1.0400
     2.8495     1.0399
     2.8556     1.0827
     2.8622     1.1040
     2.8704     1.1136
     2.8775     1.0766
     2.8836     1.0979
     2.8913     1.0862
     2.8984     1.1017
     2.9061     1.0841
     2.9127     1.0762
     2.9188     1.0937
     2.9270     1.0994
     2.9336     1.0838
     3.0850     1.0968
     3.0925     1.0991
     3.1005     1.0901
     3.1021     1.1046
     3.1059     1.1031
     3.1099     1.1047
     3.1121     1.0772
     3.1149     1.0857
     3.1184     1.0804
     3.1210     1.0705
     3.1243     1.0560
     3.1273     1.1110
     3.1300     1.0759
     3.1335     1.0767
     3.1363     1.0752
     3.1401     1.0676
     3.1427     1.0722
     3.1455     1.0570
     3.1486     1.0624
     3.1521     1.0960
     3.1549     1.0991
     3.1577     1.0900
     3.1606     1.0640
     3.1639     1.0618
     3.1676     1.0832
     3.1694     1.1443
     3.1720     1.1558
     3.1756     1.1299
     3.1774     1.1826
     3.1812     1.1887
     3.1840     1.1620
     3.1871     1.1903
     3.1904     1.1537
     3.1932     1.1736
     3.1968     1.1469
     3.1994     1.1317
     3.2029     1.1378
     3.2048     1.1272
     3.2118     1.1257
     3.2182     1.1311
     3.2234     1.1083
     3.2291     1.0946
     3.2357     1.0970
     3.6119     1.2784
     3.6184     1.2484
     3.6253     1.2479
     3.6311     1.2730
     3.6378     1.2544
     3.6433     1.2871
     3.6499     1.2948
     3.6558     1.2966
     3.6625     1.2651
     3.6689     1.2781
     3.6753     1.3260
     3.6820     1.3285
     3.6874     1.3128
     3.6940     1.2511
     3.6998     1.2853
     3.7059     1.3066
     3.7128     1.3076
     3.7188     1.3350
     3.7251     1.4153
     3.7315     1.4110
     3.7386     1.2345
     3.7387     1.1945
     3.7443     1.1622
     3.7446     1.1448
     3.7503     1.1360
     3.7518     1.1224
     3.7572     1.1256
     3.7574     1.1173
     3.7638     1.1984
     3.7641     1.1795
     3.7702     1.1865
     3.7705     1.1661
     3.7759     1.1898
     3.7766     1.1800
     3.7826     1.2142
     3.7826     1.2232
     3.7879     1.3095
     3.7887     1.2967
     3.7937     1.2712
     3.7945     1.2614
     3.8003     1.2843
     3.8016     1.2753
     3.8076     1.2483
     3.8139     1.2598
     3.8200     1.2691
     3.8269     1.2172
     3.8331     1.1993
     3.8397     1.2124
     3.8465     1.2164
     3.8528     1.1826
     3.8581     1.2040
     3.8642     1.2186
     3.8704     1.2006
     3.8832     1.1867
     3.8903     1.1976
     3.8963     1.1796
     3.9025     1.1625
     3.9091     1.1831
     3.9146     1.1493
     3.9223     1.1269
     3.9286     1.1566
     3.9346     1.1304
     3.9414     1.1314
     3.9469     1.2539
     3.9534     1.3410
     3.9585     1.2952
     3.9651     1.2976
     3.9720     1.2926
     3.9784     1.2989
     3.9855     1.3195
     3.9914     1.2510
     3.9974     1.2059
     4.0043     1.3262
     4.0103     1.3801
     4.0157     1.3100
     4.0223     1.3087
ENDDATA            145
ENDSUBENT          156
SUBENT        O2378003   20191217   20200302   20200301       O073
BIB                  3          3
REACTION   (30-ZN-66(P,INL)30-ZN-66,PAR,DA)
LEVEL-PROP (30-ZN-66,IAS-NUMB=1.,SPIN=2.,PARITY=1.)
STATUS     (CURVE) Fig.1 from Phys.Lett.,22(1966)466
ENDBIB               3
COMMON               3          3
IAS-NUMB   EN-ERR-DIG ERR-DIG
NO-DIM     MEV        MB/SR
    1.       0.0003       0.0004
ENDCOMMON            3
DATA                 4         96
ANG        EN         DATA       ERR-S
ADEG       MEV        MB/SR      MB/SR
       145.     3.8643     0.8481
       145.     3.8710     0.7969
       145.     3.8775     0.7441
       145.     3.8805     0.7079
       145.     3.8837     0.8884
       145.     3.8906     0.8281
       145.     3.8964     0.7162
       145.     3.8970     0.6632
       145.     3.9029     0.6422
       145.     3.9096     0.4243
       145.     3.9119     0.5138
       145.     3.9154     0.6989     0.0818
       145.     3.9215     0.8811
       145.     3.9277     0.8268
       145.     3.9283     0.8041
       145.     3.9343     0.7210
       145.     3.9347     0.7589
       145.     3.9406     0.8047
       145.     3.9442     0.7988
       145.     3.9471     0.6822
       145.     3.9507     0.7506
       145.     3.9539     0.7553
       145.     3.9604     0.8329
       145.     3.9608     0.8875
       145.     3.9657     0.9438
       145.     3.9660     0.8968
       145.     3.9716     0.9244
       145.     3.9721     0.9426
       145.     3.9781     1.0065
       145.     3.9809     0.9551
       145.     3.9855     0.8174
       145.     3.9907     0.9920
       145.     3.9921     0.8723
       145.     3.9973     0.9741
       145.     3.9979     0.9620
       145.     4.0038     0.9547
       145.     4.0072     0.9942
       145.     4.0105     1.0459
       145.     4.0160     0.9780
       145.     4.0230     0.8571
       145.     4.0232     0.7176
       159.     2.8281     0.0458
       159.     2.8393     0.0648
       159.     2.8447     0.0925
       159.     2.8511     0.0634
       159.     2.8561     0.0711
       159.     2.8616     0.0829
       159.     2.8732     0.0436
       159.     3.0868     0.1843
       159.     3.1167     0.1887
       159.     3.1326     0.1499
       159.     3.1478     0.2140
       159.     3.1539     0.2074
       159.     3.1598     0.2146
       159.     3.1649     0.2674
       159.     3.1681     0.4354
       159.     3.1707     0.5553
       159.     3.1742     0.4314
       159.     3.1769     0.3904
       159.     3.1799     0.3956
       159.     3.1848     0.1785
       159.     3.1892     0.1985
       159.     3.1936     0.1550
       159.     3.2016     0.1305
       159.     3.2170     0.1092
       159.     3.6125     0.4270
       159.     3.6191     0.4546
       159.     3.6247     0.4913
       159.     3.6315     0.5507
       159.     3.6386     0.5571
       159.     3.6444     0.4346
       159.     3.6504     0.3697
       159.     3.6569     0.4913
       159.     3.6628     0.5218     0.0894
       159.     3.6689     0.4979
       159.     3.6758     0.5467
       159.     3.6819     0.5697
       159.     3.6883     0.5139
       159.     3.6947     0.5552
       159.     3.7003     0.7313
       159.     3.7071     0.8059
       159.     3.7129     0.6803
       159.     3.7194     0.6564
       159.     3.7249     1.1644
       159.     3.7311     1.5028
       159.     3.7373     1.6213
       159.     3.7437     1.4185
       159.     3.7504     1.2141
       159.     3.7569     1.0659
       159.     3.7633     0.8919
       159.     3.7695     0.8528
       159.     3.7758     0.7136
       159.     3.7823     0.6154
       159.     3.7890     0.5384
       159.     3.7949     0.5887
       159.     3.8015     0.7481
ENDDATA             98
ENDSUBENT          110
ENDENTRY             3
