ENTRY            O2383   20191214   20200302   20200301       O073
SUBENT        O2383001   20191214   20200302   20200301       O073
BIB                 10         16
TITLE       15N(p,gamma)16O and 13C(3He,gamma)16O to excited
           states of 16O
AUTHOR     (S.H.Chew, J.Lowe, J.M.Nelson, A.R.Barnett)
INSTITUTE  (2UK BIR,2UK MAN)
REFERENCE  (J,NP/A,229,241,1974)
FACILITY   (VDGT,2UK OXF) Oxford Nuclear Physics Laboratory
            tandem and three stage electrostatic accelerators
DETECTOR   (NAICR) 25 cm in diam. x 30 cm NaI (TI) crystal,
           positioned at 90.degr.(lab.syst.), about 25 cm from
           the target. Additionally, a 12.5 cm in diam. x 15 cm
           NaI(Tl) detector was used in in the coincidence
           measurements.
MONITOR    (7-N-15(P,G)8-O-16,PAR,DA)
MONIT-REF  (,J.L.Black+,J,PL/B,25,405,1967)
ERR-ANALYS (DATA-ERR) No information about source of uncertainties
HISTORY    (20191214C) SD
ENDBIB              16
COMMON               2          3
E-LVL-NRM  ANG
MEV        ADEG
  0.          90.
ENDCOMMON            3
ENDSUBENT           23
SUBENT        O2383002   20191214   20200302   20200301       O073
BIB                  3          6
REACTION   (7-N-15(P,G)8-O-16,PAR,DA)
SAMPLE     (7-N-15,ENR=0.99) At a pressure of 200 torr gas
           target with a 0.45 mg/cm2 nickel entrance window and
           a 11 mg/cm2 gold exit window, or on a solid target
           backed with gold.
STATUS     (CURVE) Fig. 3 from Nucl.Phys.,A229(1974)241
ENDBIB               6
COMMON               2          3
EN-ERR-DIG ERR-DIG
MEV        MU-B/SR
0.008        0.0369
ENDCOMMON            3
DATA                 5        159
E-LVL      E-LVL      EN         DATA       DATA-ERR
MEV        MEV        MEV        MU-B/SR    MU-B/SR
         0.                 9.963     5.6273     0.5939
         0.                10.144     9.3063     0.8644
         0.                10.314    12.6610     1.3508
         0.                10.448    14.9340     1.8907
         0.                10.522    15.6390     1.6193
         0.                10.642    18.5590     1.9437
         0.                10.745    17.3750     1.7817
         0.                10.824    16.1370     1.6193
         0.                10.958    12.3080     1.3498
         0.                11.045     7.3980     0.8099
         0.                11.115     3.9450     0.3779
         0.                11.229     4.1115     0.4314
         0.                11.325     6.1131     0.5404
         0.                11.436     7.2515     0.7019
         0.                11.486     7.8474     0.8099
         0.                11.576     6.7170     0.4319
         0.                11.641     5.8017     0.5939
         0.                11.746     4.2939     0.4324
         0.                11.835     3.8114     0.4319
         0.                11.950     3.3300     0.3240
         0.                12.013     3.3865     0.3779
         0.                12.239     4.0434     0.4859
         0.                12.446     7.1294     0.7559
         0.                12.642    10.0530     1.2418
         0.                12.843    10.6550     1.0258
         0.                12.946     9.4170     0.9184
         0.                13.037     8.2326     0.8099
         0.                13.131     5.7525     0.6479
         0.                13.243     6.4049     0.5404
         0.                13.369     6.5179     0.6479
         0.                13.446     6.1969     0.5404
         0.                13.545     6.8488     0.7019
         0.                13.645     7.2847     0.5939
         0.                13.737     5.8304     0.5399
         0.                13.838     5.8884     0.5399
         0.                13.953     5.0290     0.4324
         0.                14.027     5.6799     0.4319
         0.                14.230     5.4180     0.4859
         0.                14.421     4.5616     0.4864
         0.                14.636     4.6240     0.4854
         0.                14.840     3.4442     0.2695
         0.                14.952     4.1506     0.3235
         0.                15.030     3.3977     0.2700
         0.                15.142     3.9961     0.3240
         0.                15.232     3.4057     0.2700
         0.                15.334     2.9237     0.3240
         0.                15.523     2.7692     0.2700
         0.                15.739     2.3998     0.2155
         0.                15.940     2.5157     0.2700
         0.                16.042     2.3578     0.2160
         0.                16.130     2.5232     0.2160
         0.                16.193     2.4177     0.1620
         0.                16.269     2.3127     0.2155
         0.                16.345     2.2078     0.2700
         0.                16.433     2.2112     0.2155
         0.                16.547     2.2157     0.2155
         0.                16.748     2.4397     0.2700
         0.                16.964     1.9082     0.2700
         0.                17.166     1.8622     0.2160
         0.                17.343     1.7612     0.2160
         0.                17.558     1.8237     0.2155
         0.                17.747     1.6692     0.2700
         0.                17.847     2.0511     0.2160
         0.                17.962     1.5697     0.2695
         0.                18.036     2.2206     0.2695
         0.                18.139     1.6307     0.2160
         0.                18.227     1.5262     0.2160
         0.                18.316     1.5297     0.2160
         0.                18.417     1.5337     0.3240
         0.                18.530     1.4302     0.2155
         0.                18.618     1.8656     0.2160
         0.                18.720     1.3836     0.1620
         0.                18.922     1.2836     0.2160
         0.                19.036     1.3421     0.1620
         0.                19.161     1.6711     0.2155
         0.                19.250     1.2966     0.2160
         0.                19.339     1.1921     0.2160
         0.                19.414     1.4111     0.2695
         0.                19.553     1.2546     0.1625
       6.05       6.13      9.963     0.5122     0.2273
       6.05       6.13     10.139     0.5697     0.2273
       6.05       6.13     10.340     0.7978     0.2273
       6.05       6.13     10.440     1.1391     0.2273
       6.05       6.13     10.541     1.3100     0.2273
       6.05       6.13     10.629     1.1399     0.2273
       6.05       6.13     10.742     1.2540     0.2272
       6.05       6.13     10.830     1.3680     0.2273
       6.05       6.13     10.968     1.8231     0.1704
       6.05       6.13     11.044     2.2211     0.3409
       6.05       6.13     11.169     1.9944     0.3409
       6.05       6.13     11.270     2.0516     0.2273
       6.05       6.13     11.370     2.3929     0.2840
       6.05       6.13     11.459     0.9160     0.1705
       6.05       6.13     11.522     1.3140     0.2841
       6.05       6.13     11.572     0.9165     0.2841
       6.05       6.13     11.622     1.4280     0.2273
       6.05       6.13     11.685     2.4510     0.2841
       6.05       6.13     11.748     2.3376     0.3409
       6.05       6.13     11.785     2.5082     0.1705
       6.05       6.13     11.861     2.5085     0.2273
       6.05       6.13     11.974     2.7931     0.3409
       6.05       6.13     12.062     2.6230     0.2841
       6.05       6.13     12.263     3.1352     0.3409
       6.05       6.13     12.477     3.6474     0.3409
       6.05       6.13     12.690     3.6483     0.3409
       6.05       6.13     12.904     3.0242     0.3977
       6.05       6.13     12.980     3.0813     0.3977
       6.05       6.13     13.080     3.1953     0.4546
       6.05       6.13     13.168     3.2525     0.3977
       6.05       6.13     13.281     4.5030     0.4546
       6.05       6.13     13.381     5.2988     0.6250
       6.05       6.13     13.494     6.2652     0.6818
       6.05       6.13     13.582     5.6974     0.7386
       6.05       6.13     13.696     2.6297     0.4545
       6.05       6.13     13.797     2.9142     0.3977
       6.05       6.13     13.885     2.8009     0.4546
       6.05       6.13     13.960     3.1421     0.4546
       6.05       6.13     14.073     3.9380     0.6250
       6.05       6.13     14.262     3.7683     0.4545
       6.05       6.13     14.488     3.3147     0.3409
       6.05       6.13     14.677     2.5200     0.3409
       6.05       6.13     14.878     3.4868     0.3409
       6.05       6.13     14.965     5.3621     0.4545
       6.05       6.13     15.066     7.3512     0.8523
       6.05       6.13     15.153     7.9197     0.6251
       6.05       6.13     15.267     8.0338     0.7386
       6.05       6.13     15.355     6.8978     0.7955
       6.05       6.13     15.569     5.2509     0.6250
       6.05       6.13     15.757     5.8199     0.6251
       6.05       6.13     15.971     7.3548     0.6819
       6.05       6.13     16.071     7.1848     0.6819
       6.05       6.13     16.159     8.1511     1.0227
       6.05       6.13     16.247     7.5264     1.0228
       6.05       6.13     16.348     6.7882     0.7955
       6.05       6.13     16.449     7.1863     0.8522
       6.05       6.13     16.562     4.5732     0.5682
       6.05       6.13     16.764     2.8694     0.3409
       6.05       6.13     16.965     1.8475     0.3409
       6.05       6.13     17.154     2.2460     0.3978
       6.05       6.13     17.355     2.8718     0.3977
       6.05       6.13     17.556     2.4181     0.2841
       6.05       6.13     17.757     1.9644     0.2273
       6.05       6.13     17.858     1.6807     0.2840
       6.05       6.13     17.958     2.1925     0.3410
       6.05       6.13     18.071     2.3066     0.3410
       6.05       6.13     18.159     2.3638     0.3410
       6.05       6.13     18.272     2.3074     0.3409
       6.05       6.13     18.348     2.5350     0.3977
       6.05       6.13     18.461     2.1377     0.3409
       6.05       6.13     18.562     2.1381     0.3977
       6.05       6.13     18.662     2.3658     0.3977
       6.05       6.13     18.763     2.0253     0.3409
       6.05       6.13     18.964     1.7420     0.2840
       6.05       6.13     19.039     1.9696     0.4545
       6.05       6.13     19.165     1.9133     0.3977
       6.05       6.13     19.253     1.9705     0.3977
       6.05       6.13     19.354     1.9141     0.3977
       6.05       6.13     19.454     2.0281     0.4545
       6.05       6.13     19.555     2.0854     0.3977
ENDDATA            161
ENDSUBENT          176
SUBENT        O2383003   20191214   20200302   20200301       O073
BIB                  4          6
REACTION   (6-C-13(HE3,G)8-O-16,PAR,DA)
SAMPLE     (6-C-13,ENR=0.90) methane, enriched to 90% in 13C, at
           50 torr in the gas target  or (140 mu-g/cm2) solid 13C
           target on a gold backing.
FLAG       (1.) solid target
STATUS     (CURVE) Fig. 5 from Nucl.Phys.,A229(1974)241
ENDBIB               6
COMMON               2          3
EN-ERR-DIG ERR-DIG
MEV        MU-B/SR
  0.016      0.0129
ENDCOMMON            3
DATA                 6         89
E-LVL      E-LVL      EN         DATA       DATA-ERR   FLAG
MEV        MEV        MEV        MU-B/SR    MU-B/SR    NO-DIM
       6.05       6.13      3.818     2.2223     0.3646
       6.05       6.13      3.929     2.9202     0.6075
       6.05       6.13      3.932     2.5792     0.4067         1.
       6.05       6.13      4.036     2.3831     0.3916         1.
       6.05       6.13      4.091     2.4933     0.4863
       6.05       6.13      4.128     3.0757     0.4670         1.
       6.05       6.13      4.235     4.0695     0.5723         1.
       6.05       6.13      4.244     2.8870     0.5774
       6.05       6.13      4.326     4.6717     0.7079         1.
       6.05       6.13      4.416     3.6299     0.6988
       6.05       6.13      4.428     3.7828     0.5874         1.
       6.05       6.13      4.536     5.2887     0.7832         1.
       6.05       6.13      4.579     5.1022     0.9875
       6.05       6.13      4.622     3.6919     0.5874         1.
       6.05       6.13      4.740     3.3753     0.4819         1.
       6.05       6.13      4.755     4.5993     0.8811
       6.05       6.13      4.829     3.1943     0.4970         1.
       6.05       6.13      4.907     4.9018     0.9722
       6.05       6.13      4.935     3.4953     0.4820         1.
       6.05       6.13      5.046     3.6091     0.6684
       6.05       6.13      5.052     2.5913     0.3766         1.
       6.05       6.13      5.139     1.9735     0.2862         1.
       6.05       6.13      5.196     3.6078     0.6531
       6.05       6.13      5.245     2.2594     0.3012         1.
       6.05       6.13      5.348     1.8826     0.2861         1.
       6.05       6.13      5.354     2.7859     0.5925
       6.05       6.13      5.518     2.7085     0.5013
       6.05       6.13      5.542     1.5959     0.1807         1.
       6.05       6.13      5.678     2.0842     0.3953
       6.05       6.13      5.854     1.5964     0.2885
       6.05       6.13      5.992     1.9143     0.3949
       6.05       6.13      6.169     1.6088     0.3189
       6.05       6.13      6.317     1.3948     0.3190
       6.05       6.13      6.451     1.1809     0.1974
       6.05       6.13      6.602     1.3011     0.3950
       6.05       6.13      6.749     0.9656     0.1671
       6.05       6.13      6.899     0.9642     0.1671
       6.05       6.13      7.063     0.8716     0.1975
       6.05       6.13      7.244     0.9612     0.1823
       6.05       6.13      7.381     1.1878     0.1974
       6.05       6.13      7.530     1.0042     0.1671
       6.05       6.13      7.695     1.0027     0.1975
       6.05       6.13      7.842     0.6824     0.1215
       6.05       6.13      7.996     1.1064     0.1823
       6.05       6.13      8.161     1.1353     0.5164
       6.05       6.13      8.291     0.5720     0.2887
       6.05       6.13      8.507     1.1930     0.1975
       6.05       6.13      8.715     0.9329     0.1823
       6.05       6.13      8.835     0.9166     0.2583
       6.05       6.13      8.970     0.9002     0.2735
       6.05       6.13      9.088     0.6713     0.1823
       6.05       6.13      9.225     0.9891     0.1974
       6.05       6.13      9.343     0.6994     0.1822
       6.05       6.13      9.447     0.5921     0.3037
       6.05       6.13      9.717     0.5897     0.3040
       6.05       6.13     10.243     0.6002     0.2887
       6.05       6.13     10.735     0.2464     0.0912
       6.05       6.13     11.730     0.7541     0.0912
        6.9        7.1      3.814     1.0239     0.2403
        6.9        7.1      3.933     0.7982     0.1954
        6.9        7.1      4.099     1.5939     0.4808
        6.9        7.1      4.234     1.5934     0.4657
        6.9        7.1      4.401     2.4943     0.7812
        6.9        7.1      4.564     2.1031     0.3755
        6.9        7.1      4.728     1.9823     0.3756
        6.9        7.1      4.894     2.5827     0.4808
        6.9        7.1      5.048     3.8893     0.7512
        6.9        7.1      5.186     5.0757     0.9916
        6.9        7.1      5.348     4.3840     0.8865
        6.9        7.1      5.500     5.1798     0.9916
        6.9        7.1      5.665     5.5849     1.0667
        6.9        7.1      5.827     4.7730     0.9765
        6.9        7.1      5.962     5.0731     0.9915
        6.9        7.1      6.126     5.0725     0.9765
        6.9        7.1      6.303     4.3808     0.8865
        6.9        7.1      6.453     4.4855     0.9766
        6.9        7.1      6.602     4.3798     0.8564
        6.9        7.1      6.767     4.6647     1.3822
        6.9        7.1      6.898     3.7778     1.0667
        6.9        7.1      7.047     3.6721     1.0817
        6.9        7.1      7.238     2.7851     0.7512
        6.9        7.1      7.387     2.4991     0.7663
        6.9        7.1      7.537     2.6939     0.7662
        6.9        7.1      7.683     1.7920     0.4958
        6.9        7.1      7.862     1.6862     0.6010
        6.9        7.1      8.007     0.5439     0.1953
        6.9        7.1      8.157     0.7387     0.1953
        6.9        7.1      8.322     0.9034     0.2705
        6.9        7.1      8.709     0.7669     0.1803
ENDDATA             91
ENDSUBENT          106
ENDENTRY             3
