ENTRY            E1819   20061121   20061122   20061121       E039
SUBENT        E1819001   20061121   20061122   20061121       E039
BIB                 14         62
TITLE      Structure and decay of the s-hole state in 11B studied
           via the 12C(p,2p)11B* reaction
AUTHOR     (M.Yosoi, H.Akimune, I.Daito, H.Ejiri, H.Fujimura,
           M.Fujiwara, T.Ishikawa, M.Itoh, T.Kawabata,
           M.Nakamura, T.Noro, E.Obayashi, H.Sakaguchi, H.Takeda,
           T.Taki, A.Tamii, H.Toyokawa, N.Tsukahara, M.Uchida,
           T.Yamada, H.P.Yoshida)
INSTITUTE  (2JPNKTO) Department of Physics
           (2JPNKON) Department of Physics
           (2JPNNAG) Center for Integrated Research in Science
                     and Engineering
           (2JPNJSR)
           (2JPNJPN) International Institute for Advanced
                     Studies, Kyoto
           (2JPNOSA) Research Center for Nuclear Physics
           (2JPNJAE) Advanced Science Research Center
           (2JPNTOK) Department of Physics
           (2JPNJPN) Laboratory of Physics, Kanto Gakuin
                     University, Yokohama
REFERENCE  (J,PL/B,551,(3-4),255,200301) Main reference
           Title and authors are coded under TITLE and AUTHOR.
           (J,NP/A,738,(1-4),451,200406)
           M.Yosoi+, Proc. of the 8th International Conference on
           Clustering Aspects of Nuclear Structure and Dynamics
            (CLUSTER'03)
PART-DET   (P)
EN-SEC     - ANG1 is polar angle between beam and proton 1 in
             laboratory system
           - ANG2 is polar angle between beam and proton 2 in
             laboratory system
           (E,P)
INC-SOURCE Beam intensity is about 70 nA.
SAMPLE     - Target is natural.
           - Chemical-form of target is element.
           - Physical-form of target is solid.
           - Target-thickness is 0.5 mg/cm**2.
           - Backing is unknown.
METHOD     (COINC) Detect proton and proton in coincidence.
FACILITY   (CYCLO,2JPNOSA) AVF and Ring cyclotron at Research
                           Center for Nuclear Physics
DETECTOR   (MAGSP) To detect higher energy proton in (p,2p).
                   Grand Raiden [M. Fujiwara et al., Nucl.
                   Instrum. Methods. A422(1999)484]. Solid angle
                   is 2.4 mrad.
           (MAGSP) To detect lower energy proton in (p,2p). Large
                   Acceptance Spectrometer [N. Matsuoka et al.,
                   RCNP Annual Report, 1991, p186]. Solid angle
                   is 12.0 mrad.
           (MWPC) To determine the positions and the incidence
                  angles of particles
           (SCIN) Plastic scintillator to obtain Delta E signals
                  for particle identification
ADD-RES    E1819.004:6-C-12(P,2P)5-B-11
                     Branching ratio
                     See NRDF D1819 DATA,3 for detail.
COMMENT    Energy and bin widths of two protons are E1=286MeV,
           dE1=12.5 MeV and dE2=0.1 MeV. The quadruple
           differential cross section is not depending on the
           choice of (dE1,dE2) area on E1+E2=const line (Private
           communication with M.Yosoi, 2004.5.1).
HISTORY    (20030924C) Ic + On
           (20061004A) On. Reference (CLUSTER'03) added
ENDBIB              62
COMMON               5          3
EN         E          E-ERR      ANG1       ANG2
MEV        MEV        MEV        ADEG       ADEG
 392.       286.       6.25       25.5       -51.6
ENDCOMMON            3
ENDSUBENT           69
SUBENT        E1819002   20050224              20050926       0000
BIB                  4          7
REACTION   (6-C-12(P,2P)5-B-11,,DA/DA/DE/DE,P/P/P/RSD)
           Compiler multiplyed by 0.001. Unit is
           micro-barn/sr**2/MeV**2 in original reference.
EN-SEC     (E-EXC,5-B-11)
ERR-ANALYS (ERR-S) Statistical error
STATUS     (TABLE) Data (Fig 1(a), p258 in reference) received by
                   e-mail from M.Yosoi (2003.12.22)
ENDBIB               7
NOCOMMON             0          0
DATA                 3        530
E-EXC      DATA       ERR-S
MEV        MB/SR2MEV2 MB/SR2MEV2
 -2.95      0.000164    2.800E-05
 -2.85      0.000155    2.700E-05
 -2.75      0.000171    2.900E-05
 -2.65      0.000196    2.800E-05
 -2.55      0.000232    3.100E-05
 -2.45      0.000236    3.100E-05
 -2.35      0.000318    3.400E-05
 -2.25      0.000294    3.400E-05
 -2.15      0.000499    4.000E-05
 -2.05      0.000474    3.900E-05
 -1.95      0.000456    4.100E-05
 -1.85      0.000568    4.300E-05
 -1.75      0.000577    4.300E-05
 -1.65      0.000673    4.700E-05
 -1.55      0.00066     4.600E-05
 -1.45      0.00076     4.800E-05
 -1.35      0.000845    5.000E-05
 -1.25      0.00108     5.400E-05
 -1.15      0.001315    6.000E-05
 -1.05      0.002172    7.400E-05
 -0.95      0.003848    9.700E-05
 -0.85      0.006223   0.000123
 -0.75      0.010688   0.00016
 -0.65      0.017539   0.000204
 -0.55      0.028549   0.00026
 -0.45      0.048119   0.000337
 -0.35      0.081927   0.000439
 -0.25      0.140655   0.000575
 -0.15      0.228395   0.000732
 -0.05      0.307381   0.000849
 0.05       0.317658   0.000863
 0.15       0.248025   0.000763
 0.25       0.151909   0.000597
 0.35       0.070948   0.000409
 0.45       0.023351   0.000235
 0.55       0.006123   0.000122
 0.65       0.002154    7.600E-05
 0.75       0.001398    6.200E-05
 0.85       0.000983    5.500E-05
 0.95       0.001015    5.500E-05
 1.05       0.001276    6.000E-05
 1.15       0.001424    6.400E-05
 1.25       0.002035    7.500E-05
 1.35       0.002665    8.700E-05
 1.45       0.004294   0.000107
 1.55       0.005947   0.000125
 1.65       0.008634   0.000147
 1.75       0.014208   0.000186
 1.85       0.023718   0.000238
 1.95       0.038265   0.000302
 2.05       0.056367   0.000366
 2.15       0.063273   0.000389
 2.25       0.052671   0.000358
 2.35       0.03456    0.000297
 2.45       0.019597   0.000237
 2.55       0.007737   0.000174
 2.65       0.002508   0.000127
 2.75       0.000935    9.400E-05
 2.85       0.000679    6.700E-05
 2.95       0.000676    5.300E-05
 3.05       0.000774    4.900E-05
 3.15       0.000671    4.600E-05
 3.25       0.000812    4.800E-05
 3.35       0.000656    4.700E-05
 3.45       0.000794    4.900E-05
 3.55       0.000719    4.600E-05
 3.65       0.000671    4.700E-05
 3.75       0.000737    4.700E-05
 3.85       0.00067     4.700E-05
 3.95       0.000692    4.800E-05
 4.05       0.000887    5.100E-05
 4.15       0.001036    5.600E-05
 4.25       0.001338    6.000E-05
 4.35       0.001796    7.100E-05
 4.45       0.00272     8.400E-05
 4.55       0.004081   0.000101
 4.65       0.006707   0.000128
 4.75       0.011854   0.000168
 4.85       0.019887   0.000217
 4.95       0.028798   0.000261
 5.05       0.033148   0.00028
 5.15       0.02749    0.000256
 5.25       0.017301   0.000204
 5.35       0.008809   0.000146
 5.45       0.003491    9.500E-05
 5.55       0.001127    5.800E-05
 5.65       0.000789    5.000E-05
 5.75       0.000696    5.000E-05
 5.85       0.000667    4.600E-05
 5.95       0.000794    5.200E-05
 6.05       0.000747    5.400E-05
 6.15       0.000663    5.400E-05
 6.25       0.000914    5.800E-05
 6.35       0.001506    6.700E-05
 6.45       0.002878    8.700E-05
 6.55       0.004927   0.000111
 6.65       0.007438   0.000135
 6.75       0.009405   0.000152
 6.85       0.00842    0.000145
 6.95       0.005572   0.000121
 7.05       0.003315    9.400E-05
 7.15       0.001769    7.200E-05
 7.25       0.001178    5.900E-05
 7.35       0.001022    5.400E-05
 7.45       0.000835    5.000E-05
 7.55       0.000801    4.900E-05
 7.65       0.000557    4.400E-05
 7.75       0.000581    4.500E-05
 7.85       0.000646    4.400E-05
 7.95       0.000728    4.700E-05
 8.05       0.000688    4.800E-05
 8.15       0.000637    4.400E-05
 8.25       0.000708    4.700E-05
 8.35       0.000862    5.200E-05
 8.45       0.000947    5.300E-05
 8.55       0.001186    5.800E-05
 8.65       0.001101    5.500E-05
 8.75       0.001026    5.400E-05
 8.85       0.001       5.300E-05
 8.95       0.000939    5.300E-05
 9.05       0.000774    4.900E-05
 9.15       0.00071     4.700E-05
 9.25       0.000923    5.400E-05
 9.35       0.001142    5.600E-05
 9.45       0.001584    6.500E-05
 9.55       0.0027      8.200E-05
 9.65       0.004117   0.0001
 9.75       0.005145   0.000113
 9.85       0.006102   0.000122
 9.95       0.005709   0.000118
 10.05      0.004617   0.000107
 10.15      0.00349     9.400E-05
 10.25      0.002785    8.400E-05
 10.35      0.0019      7.100E-05
 10.45      0.001546    6.500E-05
 10.55      0.001377    6.100E-05
 10.65      0.001223    5.900E-05
 10.75      0.001201    5.800E-05
 10.85      0.001111    5.600E-05
 10.95      0.001163    5.800E-05
 11.05      0.001143    5.800E-05
 11.15      0.001225    6.000E-05
 11.25      0.001479    6.400E-05
 11.35      0.001602    6.600E-05
 11.45      0.002051    7.200E-05
 11.55      0.002487    8.000E-05
 11.65      0.002844    8.500E-05
 11.75      0.003144    8.900E-05
 11.85      0.002912    8.600E-05
 11.95      0.00249     7.900E-05
 12.05      0.002121    7.400E-05
 12.15      0.0022      7.500E-05
 12.25      0.001885    7.000E-05
 12.35      0.001943    7.100E-05
 12.45      0.001884    7.000E-05
 12.55      0.002026    7.400E-05
 12.65      0.001904    7.000E-05
 12.75      0.002229    7.700E-05
 12.85      0.002457    8.000E-05
 12.95      0.002904    8.700E-05
 13.05      0.003266    9.100E-05
 13.15      0.003635    9.600E-05
 13.25      0.003923    9.900E-05
 13.35      0.003841    9.800E-05
 13.45      0.003522    9.400E-05
 13.55      0.003577    9.500E-05
 13.65      0.003279    9.100E-05
 13.75      0.003272    9.100E-05
 13.85      0.003204    9.200E-05
 13.95      0.003326    9.200E-05
 14.05      0.003567    9.500E-05
 14.15      0.003652    9.600E-05
 14.25      0.003918   0.0001
 14.35      0.003975    9.900E-05
 14.45      0.004621   0.000107
 14.55      0.004627   0.000107
 14.65      0.004777   0.000108
 14.75      0.00512    0.000112
 14.85      0.005225   0.000113
 14.95      0.005592   0.000117
 15.05      0.005872   0.00012
 15.15      0.006093   0.000122
 15.25      0.006285   0.000124
 15.35      0.006438   0.000126
 15.45      0.007081   0.000131
 15.55      0.007411   0.000134
 15.65      0.007708   0.000136
 15.75      0.007613   0.000136
 15.85      0.008338   0.000142
 15.95      0.007935   0.000138
 16.05      0.008261   0.000142
 16.15      0.008668   0.000145
 16.25      0.008869   0.000146
 16.35      0.008342   0.000142
 16.45      0.008722   0.000145
 16.55      0.008638   0.000144
 16.65      0.008791   0.000147
 16.75      0.009084   0.000148
 16.85      0.009394   0.00015
 16.95      0.009597   0.000152
 17.05      0.009713   0.000153
 17.15      0.009875   0.000154
 17.25      0.00989    0.000154
 17.35      0.00968    0.000153
 17.45      0.009646   0.000153
 17.55      0.010022   0.000155
 17.65      0.009968   0.000155
 17.75      0.010078   0.000156
 17.85      0.010073   0.000156
 17.95      0.009923   0.000154
 18.05      0.009874   0.000154
 18.15      0.009597   0.000152
 18.25      0.009771   0.000153
 18.35      0.00946    0.000151
 18.45      0.009045   0.000147
 18.55      0.008989   0.000148
 18.65      0.008898   0.000147
 18.75      0.008771   0.000146
 18.85      0.008697   0.000145
 18.95      0.00844    0.000143
 19.05      0.008101   0.000141
 19.15      0.00856    0.000144
 19.25      0.008567   0.000144
 19.35      0.008567   0.000144
 19.45      0.00867    0.000145
 19.55      0.008204   0.000141
 19.65      0.008258   0.000141
 19.75      0.008249   0.000141
 19.85      0.008725   0.000145
 19.95      0.008787   0.000146
 20.05      0.008923   0.000147
 20.15      0.008621   0.000145
 20.25      0.008827   0.000146
 20.35      0.008856   0.000146
 20.45      0.00913    0.000148
 20.55      0.008883   0.000146
 20.65      0.008925   0.000147
 20.75      0.009028   0.000148
 20.85      0.009152   0.000149
 20.95      0.008918   0.000147
 21.05      0.008605   0.000144
 21.15      0.009036   0.000148
 21.25      0.008603   0.000144
 21.35      0.008952   0.000147
 21.45      0.008684   0.000145
 21.55      0.008853   0.000147
 21.65      0.008608   0.000145
 21.75      0.008526   0.000144
 21.85      0.008599   0.000145
 21.95      0.008809   0.000146
 22.05      0.008617   0.000145
 22.15      0.008688   0.000146
 22.25      0.008515   0.000144
 22.35      0.009021   0.000148
 22.45      0.008333   0.000143
 22.55      0.008472   0.000144
 22.65      0.008688   0.000146
 22.75      0.008203   0.000141
 22.85      0.00819    0.000141
 22.95      0.008474   0.000144
 23.05      0.008732   0.000145
 23.15      0.008533   0.000144
 23.25      0.008558   0.000144
 23.35      0.00816    0.000141
 23.45      0.008194   0.000141
 23.55      0.008127   0.00014
 23.65      0.007863   0.000138
 23.75      0.008219   0.000141
 23.85      0.007879   0.000138
 23.95      0.00823    0.000142
 24.05      0.008112   0.00014
 24.15      0.007588   0.000136
 24.25      0.007964   0.000139
 24.35      0.007822   0.000137
 24.45      0.007508   0.000135
 24.55      0.007365   0.000135
 24.65      0.007524   0.000135
 24.75      0.007407   0.000135
 24.85      0.007502   0.000135
 24.95      0.007184   0.000133
 25.05      0.007118   0.000132
 25.15      0.007128   0.000132
 25.25      0.007356   0.000133
 25.35      0.006753   0.000129
 25.45      0.006802   0.000129
 25.55      0.007138   0.000132
 25.65      0.006482   0.000126
 25.75      0.006527   0.000126
 25.85      0.006663   0.000128
 25.95      0.006595   0.000127
 26.05      0.006461   0.000126
 26.15      0.006506   0.000126
 26.25      0.006537   0.000127
 26.35      0.006433   0.000125
 26.45      0.006431   0.000126
 26.55      0.006053   0.000122
 26.65      0.006403   0.000126
 26.75      0.006149   0.000123
 26.85      0.006231   0.000124
 26.95      0.006091   0.000123
 27.05      0.005986   0.000121
 27.15      0.006289   0.000125
 27.25      0.006113   0.000123
 27.35      0.005984   0.000122
 27.45      0.006018   0.000122
 27.55      0.005983   0.000121
 27.65      0.006043   0.000122
 27.75      0.00611    0.000123
 27.85      0.005959   0.000121
 27.95      0.005865   0.00012
 28.05      0.005874   0.00012
 28.15      0.00589    0.000121
 28.25      0.005699   0.000118
 28.35      0.00593    0.000121
 28.45      0.005669   0.000118
 28.55      0.00545    0.000116
 28.65      0.00588    0.00012
 28.75      0.005805   0.000119
 28.85      0.005551   0.000117
 28.95      0.005726   0.000118
 29.05      0.005662   0.000118
 29.15      0.005336   0.000115
 29.25      0.005442   0.000116
 29.35      0.00546    0.000116
 29.45      0.005453   0.000116
 29.55      0.005321   0.000115
 29.65      0.005115   0.000113
 29.75      0.00523    0.000114
 29.85      0.00503    0.000112
 29.95      0.00505    0.000112
 30.05      0.005011   0.000112
 30.15      0.004686   0.000108
 30.25      0.004931   0.000111
 30.35      0.005011   0.000111
 30.45      0.00498    0.000111
 30.55      0.004741   0.000108
 30.65      0.004857   0.000109
 30.75      0.004777   0.000109
 30.85      0.004884   0.00011
 30.95      0.00487    0.000109
 31.05      0.004349   0.000104
 31.15      0.00484    0.000109
 31.25      0.004553   0.000106
 31.35      0.004527   0.000105
 31.45      0.004201   0.000103
 31.55      0.00451    0.000106
 31.65      0.004079   0.000101
 31.75      0.004123   0.000102
 31.85      0.004324   0.000104
 31.95      0.004342   0.000104
 32.05      0.004144   0.000102
 32.15      0.004328   0.000103
 32.25      0.003907    9.900E-05
 32.35      0.004015   0.0001
 32.45      0.004078   0.0001
 32.55      0.00401    0.0001
 32.65      0.003844    9.800E-05
 32.75      0.003668    9.600E-05
 32.85      0.003891    9.900E-05
 32.95      0.003583    9.500E-05
 33.05      0.003714    9.600E-05
 33.15      0.003667    9.700E-05
 33.25      0.003441    9.300E-05
 33.35      0.003464    9.300E-05
 33.45      0.003612    9.500E-05
 33.55      0.003646    9.500E-05
 33.65      0.003545    9.400E-05
 33.75      0.003504    9.300E-05
 33.85      0.003605    9.500E-05
 33.95      0.003361    9.300E-05
 34.05      0.003376    9.200E-05
 34.15      0.003388    9.100E-05
 34.25      0.003484    9.300E-05
 34.35      0.003143    8.900E-05
 34.45      0.003354    9.200E-05
 34.55      0.003246    9.000E-05
 34.65      0.003343    9.100E-05
 34.75      0.0033      9.100E-05
 34.85      0.003152    8.900E-05
 34.95      0.003174    8.900E-05
 35.05      0.003256    9.000E-05
 35.15      0.003002    8.600E-05
 35.25      0.00313     8.900E-05
 35.35      0.002976    8.700E-05
 35.45      0.002931    8.700E-05
 35.55      0.003072    8.700E-05
 35.65      0.002894    8.600E-05
 35.75      0.003103    8.900E-05
 35.85      0.003049    8.800E-05
 35.95      0.002821    8.400E-05
 36.05      0.003107    8.800E-05
 36.15      0.003042    8.700E-05
 36.25      0.00273     8.300E-05
 36.35      0.002734    8.400E-05
 36.45      0.002799    8.400E-05
 36.55      0.002703    8.200E-05
 36.65      0.002761    8.400E-05
 36.75      0.002525    8.000E-05
 36.85      0.002614    8.100E-05
 36.95      0.002706    8.300E-05
 37.05      0.002684    8.200E-05
 37.15      0.002648    8.200E-05
 37.25      0.002582    8.000E-05
 37.35      0.002621    8.300E-05
 37.45      0.002459    7.900E-05
 37.55      0.002505    7.900E-05
 37.65      0.002526    8.000E-05
 37.75      0.00248     7.900E-05
 37.85      0.002525    8.000E-05
 37.95      0.002593    8.100E-05
 38.05      0.002508    8.000E-05
 38.15      0.002513    8.000E-05
 38.25      0.002159    7.500E-05
 38.35      0.002489    7.900E-05
 38.45      0.002256    7.500E-05
 38.55      0.002277    7.600E-05
 38.65      0.002492    7.800E-05
 38.75      0.00227     7.600E-05
 38.85      0.002086    7.300E-05
 38.95      0.002204    7.500E-05
 39.05      0.002032    7.300E-05
 39.15      0.002195    7.500E-05
 39.25      0.002189    7.500E-05
 39.35      0.002047    7.200E-05
 39.45      0.002066    7.300E-05
 39.55      0.002145    7.400E-05
 39.65      0.002032    7.200E-05
 39.75      0.002092    7.300E-05
 39.85      0.001952    7.100E-05
 39.95      0.001921    7.000E-05
 40.05      0.002009    7.200E-05
 40.15      0.001998    7.100E-05
 40.25      0.002042    7.200E-05
 40.35      0.001895    7.000E-05
 40.45      0.001976    7.000E-05
 40.55      0.001877    6.900E-05
 40.65      0.001687    6.600E-05
 40.75      0.001863    6.900E-05
 40.85      0.001775    6.800E-05
 40.95      0.001734    6.700E-05
 41.05      0.001795    6.900E-05
 41.15      0.001588    6.500E-05
 41.25      0.001781    6.700E-05
 41.35      0.001821    6.900E-05
 41.45      0.001803    6.700E-05
 41.55      0.001581    6.400E-05
 41.65      0.001552    6.300E-05
 41.75      0.001637    6.400E-05
 41.85      0.001525    6.200E-05
 41.95      0.001498    6.300E-05
 42.05      0.001506    6.300E-05
 42.15      0.001564    6.300E-05
 42.25      0.00149     6.300E-05
 42.35      0.001462    6.300E-05
 42.45      0.001322    6.000E-05
 42.55      0.001476    6.100E-05
 42.65      0.001424    6.100E-05
 42.75      0.001477    6.100E-05
 42.85      0.001372    6.000E-05
 42.95      0.001476    6.200E-05
 43.05      0.001288    5.700E-05
 43.15      0.001213    5.600E-05
 43.25      0.001382    5.900E-05
 43.35      0.001304    5.800E-05
 43.45      0.00128     5.600E-05
 43.55      0.001142    5.600E-05
 43.65      0.001193    5.700E-05
 43.75      0.001289    5.800E-05
 43.85      0.001155    5.500E-05
 43.95      0.00118     5.500E-05
 44.05      0.00127     5.700E-05
 44.15      0.00102     5.200E-05
 44.25      0.00115     5.500E-05
 44.35      0.00112     5.400E-05
 44.45      0.001023    5.200E-05
 44.55      0.000915    5.200E-05
 44.65      0.001089    5.300E-05
 44.75      0.000947    5.100E-05
 44.85      0.000944    4.900E-05
 44.95      0.001003    5.100E-05
 45.05      0.000969    5.000E-05
 45.15      0.001036    5.200E-05
 45.25      0.000971    4.900E-05
 45.35      0.000968    5.100E-05
 45.45      0.000859    4.800E-05
 45.55      0.000926    4.900E-05
 45.65      0.000868    4.800E-05
 45.75      0.000873    4.700E-05
 45.85      0.000872    4.700E-05
 45.95      0.000696    4.200E-05
 46.05      0.000651    4.200E-05
 46.15      0.000819    4.700E-05
 46.25      0.000629    4.200E-05
 46.35      0.000771    4.400E-05
 46.45      0.000689    4.400E-05
 46.55      0.000709    4.300E-05
 46.65      0.00077     4.500E-05
 46.75      0.000611    4.100E-05
 46.85      0.000655    4.300E-05
 46.95      0.000665    4.300E-05
 47.05      0.000545    3.900E-05
 47.15      0.00068     4.300E-05
 47.25      0.000586    3.800E-05
 47.35      0.000486    3.700E-05
 47.45      0.000556    3.900E-05
 47.55      0.000528    3.800E-05
 47.65      0.000568    3.800E-05
 47.75      0.000503    3.700E-05
 47.85      0.000516    3.700E-05
 47.95      0.000506    3.600E-05
 48.05      0.000478    3.600E-05
 48.15      0.000433    3.400E-05
 48.25      0.000584    3.900E-05
 48.35      0.000477    3.600E-05
 48.45      0.000456    3.600E-05
 48.55      0.000406    3.400E-05
 48.65      0.000508    3.700E-05
 48.75      0.000402    3.300E-05
 48.85      0.000471    3.500E-05
 48.95      0.000367    3.300E-05
 49.05      0.000378    3.200E-05
 49.15      0.000344    3.100E-05
 49.25      0.000343    3.000E-05
 49.35      0.000335    3.000E-05
 49.45      0.000365    3.200E-05
 49.55      0.000331    3.100E-05
 49.65      0.000334    3.000E-05
 49.75      0.00038     3.100E-05
 49.85      0.000358    3.200E-05
 49.95      0.000258    2.600E-05
ENDDATA            532
ENDSUBENT          544
SUBENT        E1819003   20050224              20050926       0000
BIB                  4          4
REACTION   (6-C-12(P,2P)5-B-11,PAR,DA/DA/DE,P/P/P)
EN-SEC     (E-EXC,5-B-11)
ERR-ANALYS (ERR-S) Statistical error
STATUS     (TABLE) Data taken from Table 1, p257 in reference
ENDBIB               4
NOCOMMON             0          0
DATA                 4          4
E-EXC-MIN  E-EXC-MAX  DATA       ERR-S
MEV        MEV        MUB/SR2MEV MUB/SR2MEV
 16.        35.        128.7      0.2
 16.        20.        36.3       0.1
 20.        26.        48.9       0.1
 26.        35.        43.5       0.1
ENDDATA              6
ENDSUBENT           15
NOSUBENT      E1819004   20050224              20050926       0000
ENDENTRY             4
