ENTRY            D0325   20050424   20050810                  D041
SUBENT        D0325001   20050424   20050810                  D041
BIB                  6          7
TITLE      Levels in 23Na Excited by the 19F(alpha,alpha)19F,
           19F(alpha,gamma)23Na and 19F(alpha,p)22Ne Reactions
AUTHOR     (J.Cseh, E.Koltay, Z.Mate, E.Somorjai, L.Zolnai)
INSTITUTE  (3HUNDEB)
REFERENCE  (J,NP/A,413,311,1984)
FACILITY   (VDG)
HISTORY    (20050420C) SD
ENDBIB               7
NOCOMMON             0          0
ENDSUBENT           10
SUBENT        D0325002   20050424   20050810                  D041
BIB                  6         14
REACTION   (9-F-19(A,EL)9-F-19,,DA)
MONITOR    (38-SR-0(A,EL)38-SR-0,,DA,,RTH)
SAMPLE     Thin targets were fabricated by evaporating strontium
           fluoride (SrF2) on thin self-supporting carbon foils.
           The experimental resolution was 6 keV in the
           c.m. system at Egamma = 2.35 MeV.
DETECTOR   (SIBAR) Six surface-barrier detectors. Five of them
           were situated at lab. ang. 78., 114.5, 132., 142. and
           170. with respect to the direction of the incoming
           beam. The sixth detector at 160. was used for
           dead-time and yield monitoring purposes.
ERR-ANALYS (EN-ERR-DIG) Digitizing error
           (ERR-DIG) Digitizing error
STATUS     (CURVE)Curves from fig. 1 of the article
ENDBIB              14
COMMON               2          3
EN-ERR-DIG ERR-DIG
MEV        PER-CENT
  0.004     0.3
ENDCOMMON            3
DATA                 3       1769
ANG        EN         DATA
ADEG       MEV        B/SR
  170.0      1.516     0.2392
  170.0      1.520     0.2417
  170.0      1.527     0.2458
  170.0      1.533     0.2409
  170.0      1.534     0.2442
  170.0      1.539     0.2359
  170.0      1.541     0.2409
  170.0      1.547     0.2384
  170.0      1.556     0.2351
  170.0      1.562     0.2269
  170.0      1.564     0.2343
  170.0      1.573     0.2220
  170.0      1.579     0.2228
  170.0      1.587     0.2269
  170.0      1.588     0.2146
  170.0      1.594     0.2203
  170.0      1.594     0.2154
  170.0      1.601     0.2171
  170.0      1.610     0.2129
  170.0      1.616     0.2146
  170.0      1.618     0.2105
  170.0      1.624     0.2105
  170.0      1.630     0.2121
  170.0      1.639     0.2121
  170.0      1.647     0.2105
  170.0      1.647     0.2056
  170.0      1.655     0.1965
  170.0      1.664     0.2006
  170.0      1.664     0.2072
  170.0      1.664     0.2039
  170.0      1.672     0.2023
  170.0      1.672     0.1899
  170.0      1.679     0.1940
  170.0      1.679     0.1850
  170.0      1.687     0.1924
  170.0      1.696     0.1867
  170.0      1.701     0.1850
  170.0      1.704     0.1924
  170.0      1.709     0.1949
  170.0      1.710     0.1801
  170.0      1.718     0.1900
  170.0      1.718     0.1825
  170.0      1.727     0.1850
  170.0      1.727     0.1801
  170.0      1.733     0.1826
  170.0      1.735     0.1858
  170.0      1.741     0.1850
  170.0      1.750     0.1752
  170.0      1.757     0.1826
  170.0      1.758     0.1719
  170.0      1.764     0.1719
  170.0      1.766     0.1752
  170.0      1.772     0.1661
  170.0      1.781     0.1702
  170.0      1.789     0.1702
  170.0      1.791     0.1752
  170.0      1.797     0.1776
  170.0      1.804     0.1702
  170.0      1.812     0.1702
  170.0      1.812     0.1744
  170.0      1.820     0.1777
  170.0      1.820     0.1645
  170.0      1.828     0.1719
  170.0      1.835     0.1686
  170.0      1.843     0.1703
  170.0      1.846     0.1604
  170.0      1.852     0.1620
  170.0      1.858     0.1596
  170.0      1.858     0.1620
  170.0      1.866     0.1629
  170.0      1.875     0.1571
  170.0      1.883     0.1637
  170.0      1.891     0.1579
  170.0      1.897     0.1579
  170.0      1.899     0.1620
  170.0      1.905     0.1604
  170.0      1.914     0.1579
  170.0      1.916     0.1505
  170.0      1.922     0.1571
  170.0      1.922     0.1505
  170.0      1.929     0.1456
  170.0      1.931     0.1481
  170.0      1.937     0.1505
  170.0      1.939     0.1530
  170.0      1.943     0.1505
  170.0      1.946     0.1530
  170.0      1.953     0.1530
  170.0      1.960     0.1506
  170.0      1.962     0.1456
  170.0      1.968     0.1448
  170.0      1.977     0.1374
  170.0      1.985     0.1522
  170.0      1.985     0.1399
  170.0      1.993     0.1423
  170.0      1.994     0.1506
  170.0      1.999     0.1424
  170.0      2.000     0.1399
  170.0      2.008     0.1127
  170.0      2.010     0.1325
  170.0      2.017     0.1251
  170.0      2.017     0.1374
  170.0      2.033     0.1350
  170.0      2.033     0.1226
  170.0      2.039     0.1193
  170.0      2.048     0.1276
  170.0      2.048     0.1243
  170.0      2.056     0.1226
  170.0      2.056     0.1177
  170.0      2.064     0.1202
  170.0      2.071     0.1325
  170.0      2.071     0.1292
  170.0      2.079     0.1202
  170.0      2.081     0.1070
  170.0      2.088     0.1103
  170.0      2.096     0.1054
  170.0      2.098     0.1144
  170.0      2.104     0.1029
  170.0      2.104     0.8893E-01
  170.0      2.112     0.1004
  170.0      2.119     0.1128
  170.0      2.119     0.1070
  170.0      2.127     0.1070
  170.0      2.135     0.9881E-01
  170.0      2.135     0.1079
  170.0      2.142     0.1070
  170.0      2.153     0.9963E-01
  170.0      2.158     0.1021
  170.0      2.159     0.9717E-01
  170.0      2.169     0.1054
  170.0      2.175     0.1095
  170.0      2.181     0.1070
  170.0      2.182     0.1046
  170.0      2.190     0.1021
  170.0      2.196     0.1103
  170.0      2.200     0.1079
  170.0      2.207     0.1079
  170.0      2.215     0.9965E-01
  170.0      2.217     0.1071
  170.0      2.221     0.9472E-01
  170.0      2.223     0.1021
  170.0      2.229     0.1079
  170.0      2.232     0.1029
  170.0      2.238     0.1054
  170.0      2.246     0.9391E-01
  170.0      2.247     0.9802E-01
  170.0      2.252     0.9555E-01
  170.0      2.253     0.9967E-01
  170.0      2.263     0.9967E-01
  170.0      2.264     0.1046
  170.0      2.270     0.1046
  170.0      2.278     0.1054
  170.0      2.278     0.9967E-01
  170.0      2.287     0.9721E-01
  170.0      2.294     0.9721E-01
  170.0      2.295     0.9713E-01
  170.0      2.303     0.1025
  170.0      2.303     0.9014E-01
  170.0      2.310     0.9589E-01
  170.0      2.312     0.9384E-01
  170.0      2.317     0.9261E-01
  170.0      2.324     0.8644E-01
  170.0      2.328     0.8973E-01
  170.0      2.335     0.8356E-01
  170.0      2.340     0.9878E-01
  170.0      2.341     0.8274E-01
  170.0      2.351     0.9220E-01
  170.0      2.352     0.9755E-01
  170.0      2.358     0.9014E-01
  170.0      2.368     0.8233E-01
  170.0      2.369     0.9673E-01
  170.0      2.374     0.9262E-01
  170.0      2.383     0.9138E-01
  170.0      2.389     0.9591E-01
  170.0      2.389     0.8522E-01
  170.0      2.398     0.8522E-01
  170.0      2.406     0.9468E-01
  170.0      2.406     0.9015E-01
  170.0      2.414     0.8974E-01
  170.0      2.414     0.8522E-01
  170.0      2.422     0.9386E-01
  170.0      2.431     0.9468E-01
  170.0      2.431     0.8892E-01
  170.0      2.435     0.8029E-01
  170.0      2.440     0.8522E-01
  170.0      2.448     0.8975E-01
  170.0      2.453     0.8523E-01
  170.0      2.454     0.8975E-01
  170.0      2.463     0.9263E-01
  170.0      2.471     0.8852E-01
  170.0      2.479     0.8400E-01
  170.0      2.479     0.7660E-01
  170.0      2.488     0.7906E-01
  170.0      2.502     0.5768E-01
  170.0      2.510     0.7496E-01
  170.0      2.517     0.7989E-01
  170.0      2.525     0.8606E-01
  170.0      2.527     0.8277E-01
  170.0      2.533     0.8606E-01
  170.0      2.542     0.8319E-01
  170.0      2.542     0.8154E-01
  170.0      2.550     0.7907E-01
  170.0      2.567     0.8196E-01
  170.0      2.567     0.7784E-01
  170.0      2.573     0.8113E-01
  170.0      2.582     0.7990E-01
  170.0      2.596     0.7620E-01
  170.0      2.599     0.7333E-01
  170.0      2.615     0.7497E-01
  170.0      2.621     0.7292E-01
  170.0      2.622     0.8114E-01
  170.0      2.632     0.8525E-01
  170.0      2.638     0.8484E-01
  170.0      2.644     0.8320E-01
  170.0      2.653     0.8649E-01
  170.0      2.655     0.7745E-01
  170.0      2.662     0.8033E-01
  170.0      2.678     0.8526E-01
  170.0      2.678     0.8321E-01
  170.0      2.687     0.7663E-01
  170.0      2.695     0.7786E-01
  170.0      2.695     0.7581E-01
  170.0      2.695     0.7375E-01
  170.0      2.701     0.8033E-01
  170.0      2.703     0.7828E-01
  170.0      2.703     0.7622E-01
  170.0      2.709     0.7787E-01
  170.0      2.710     0.7499E-01
  170.0      2.718     0.7252E-01
  170.0      2.720     0.6224E-01
  170.0      2.727     0.6142E-01
  170.0      2.729     0.5361E-01
  170.0      2.737     0.6266E-01
  170.0      2.741     0.5526E-01
  170.0      2.743     0.6677E-01
  170.0      2.743     0.6883E-01
  170.0      2.743     0.7170E-01
  170.0      2.750     0.7253E-01
  170.0      2.757     0.7130E-01
  170.0      2.760     0.7294E-01
  170.0      2.766     0.7335E-01
  170.0      2.773     0.7253E-01
  170.0      2.777     0.7089E-01
  170.0      2.789     0.7089E-01
  170.0      2.797     0.6143E-01
  170.0      2.806     0.6061E-01
  170.0      2.807     0.6472E-01
  170.0      2.814     0.6431E-01
  170.0      2.829     0.6308E-01
  170.0      2.846     0.6925E-01
  170.0      2.854     0.5774E-01
  170.0      2.868     0.5816E-01
  170.0      2.880     0.6515E-01
  170.0      2.888     0.6967E-01
  170.0      2.897     0.6967E-01
  170.0      2.903     0.6474E-01
  170.0      2.911     0.6762E-01
  170.0      2.918     0.6639E-01
  170.0      2.935     0.6269E-01
  170.0      2.942     0.6146E-01
  170.0      2.953     0.6393E-01
  170.0      2.960     0.6269E-01
  170.0      2.968     0.6146E-01
  170.0      2.976     0.5776E-01
  170.0      2.977     0.5530E-01
  170.0      2.985     0.5982E-01
  170.0      2.993     0.5530E-01
  170.0      3.002     0.5653E-01
  170.0      3.010     0.5777E-01
  170.0      3.017     0.5777E-01
  170.0      3.025     0.6024E-01
  170.0      3.033     0.5695E-01
  170.0      3.040     0.5818E-01
  170.0      3.042     0.6065E-01
  170.0      3.048     0.6065E-01
  170.0      3.050     0.5531E-01
  170.0      3.057     0.5777E-01
  170.0      3.059     0.5695E-01
  170.0      3.064     0.5860E-01
  170.0      3.073     0.5778E-01
  170.0      3.088     0.5613E-01
  170.0      3.096     0.5531E-01
  170.0      3.105     0.5778E-01
  170.0      3.113     0.5162E-01
  170.0      3.122     0.3640E-01
  170.0      3.130     0.3558E-01
  170.0      3.138     0.3682E-01
  170.0      3.147     0.3641E-01
  170.0      3.147     0.3805E-01
  170.0      3.153     0.3682E-01
  170.0      3.156     0.4792E-01
  170.0      3.162     0.5039E-01
  170.0      3.169     0.5204E-01
  170.0      3.176     0.5656E-01
  170.0      3.193     0.5451E-01
  170.0      3.203     0.5698E-01
  170.0      3.209     0.5533E-01
  170.0      3.216     0.5328E-01
  170.0      3.226     0.5163E-01
  170.0      3.233     0.4711E-01
  170.0      3.235     0.4547E-01
  170.0      3.243     0.3354E-01
  170.0      3.250     0.3807E-01
  170.0      3.260     0.4177E-01
  170.0      3.269     0.4218E-01
  170.0      3.277     0.3931E-01
  170.0      3.283     0.3849E-01
  170.0      3.290     0.3808E-01
  170.0      3.306     0.7303E-01
  170.0      3.317     0.6769E-01
  170.0      3.323     0.6440E-01
  170.0      3.332     0.6070E-01
  170.0      3.340     0.6111E-01
  170.0      3.346     0.6111E-01
  170.0      3.355     0.5042E-01
  170.0      3.363     0.3521E-01
  170.0      3.372     0.3727E-01
  170.0      3.388     0.3275E-01
  170.0      3.395     0.3686E-01
  170.0      3.411     0.4138E-01
  170.0      3.420     0.3974E-01
  170.0      3.428     0.3892E-01
  170.0      3.445     0.3481E-01
  170.0      3.453     0.3317E-01
  170.0      3.460     0.2042E-01
  170.0      3.468     0.2042E-01
  170.0      3.477     0.3153E-01
  170.0      3.485     0.3276E-01
  170.0      3.493     0.2947E-01
  170.0      3.500     0.2660E-01
  170.0      3.516     0.2783E-01
  170.0      3.525     0.2537E-01
  170.0      3.531     0.2537E-01
  170.0      3.544     0.2989E-01
  170.0      3.548     0.3072E-01
  170.0      3.550     0.3195E-01
  170.0      3.556     0.3195E-01
  170.0      3.565     0.3442E-01
  170.0      3.573     0.3195E-01
  170.0      3.590     0.5641E-02
  170.0      3.601     0.5232E-02
  170.0      3.612     0.6467E-02
  170.0      3.621     0.2415E-01
  170.0      3.630     0.4718E-01
  170.0      3.638     0.5088E-01
  170.0      3.661     0.4225E-01
  170.0      3.668     0.3855E-01
  170.0      3.676     0.4102E-01
  170.0      3.685     0.4102E-01
  170.0      3.701     0.5089E-01
  170.0      3.709     0.6364E-01
  170.0      3.716     0.7515E-01
  142.0      1.511     0.2990
  142.0      1.516     0.2960
  142.0      1.519     0.2990
  142.0      1.524     0.2891
  142.0      1.528     0.3020
  142.0      1.528     0.2811
  142.0      1.533     0.2871
  142.0      1.539     0.2920
  142.0      1.541     0.2960
  142.0      1.545     0.2871
  142.0      1.553     0.2841
  142.0      1.561     0.2702
  142.0      1.561     0.2811
  142.0      1.565     0.2791
  142.0      1.569     0.2821
  142.0      1.576     0.2652
  142.0      1.576     0.2692
  142.0      1.581     0.2722
  142.0      1.584     0.2752
  142.0      1.593     0.2672
  142.0      1.593     0.2633
  142.0      1.601     0.2583
  142.0      1.601     0.2543
  142.0      1.609     0.2643
  142.0      1.615     0.2484
  142.0      1.616     0.2672
  142.0      1.622     0.2682
  142.0      1.622     0.2494
  142.0      1.630     0.2464
  142.0      1.632     0.2513
  142.0      1.640     0.2613
  142.0      1.647     0.2484
  142.0      1.647     0.2424
  142.0      1.653     0.2394
  142.0      1.655     0.2335
  142.0      1.660     0.2335
  142.0      1.661     0.2464
  142.0      1.669     0.2404
  142.0      1.669     0.2335
  142.0      1.676     0.2335
  142.0      1.678     0.2275
  142.0      1.684     0.2365
  142.0      1.684     0.2305
  142.0      1.692     0.2305
  142.0      1.698     0.2335
  142.0      1.701     0.2404
  142.0      1.701     0.2355
  142.0      1.709     0.2335
  142.0      1.718     0.2285
  142.0      1.724     0.2265
  142.0      1.724     0.2216
  142.0      1.726     0.2335
  142.0      1.730     0.2196
  142.0      1.732     0.2156
  142.0      1.738     0.2246
  142.0      1.747     0.2196
  142.0      1.755     0.2206
  142.0      1.755     0.2156
  142.0      1.761     0.2156
  142.0      1.763     0.2186
  142.0      1.771     0.2127
  142.0      1.778     0.2186
  142.0      1.778     0.2097
  142.0      1.786     0.2097
  142.0      1.786     0.2067
  142.0      1.794     0.2037
  142.0      1.801     0.2097
  142.0      1.809     0.2127
  142.0      1.811     0.2097
  142.0      1.815     0.2117
  142.0      1.819     0.1978
  142.0      1.826     0.1998
  142.0      1.834     0.2008
  142.0      1.842     0.2008
  142.0      1.848     0.1948
  142.0      1.849     0.1978
  142.0      1.857     0.1948
  142.0      1.859     0.1998
  142.0      1.863     0.1968
  142.0      1.871     0.1978
  142.0      1.880     0.1918
  142.0      1.888     0.1879
  142.0      1.896     0.1819
  142.0      1.896     0.1938
  142.0      1.905     0.1889
  142.0      1.911     0.1819
  142.0      1.911     0.1869
  142.0      1.916     0.1889
  142.0      1.920     0.1909
  142.0      1.923     0.1889
  142.0      1.930     0.1889
  142.0      1.934     0.1889
  142.0      1.936     0.1819
  142.0      1.942     0.1770
  142.0      1.942     0.1819
  142.0      1.948     0.1849
  142.0      1.956     0.1819
  142.0      1.959     0.1779
  142.0      1.965     0.1789
  142.0      1.967     0.1650
  142.0      1.974     0.1799
  142.0      1.982     0.1680
  142.0      1.984     0.1730
  142.0      1.987     0.1710
  142.0      1.991     0.1730
  142.0      1.997     0.1710
  142.0      1.999     0.1760
  142.0      2.007     0.1700
  142.0      2.007     0.1551
  142.0      2.013     0.1532
  142.0      2.014     0.1581
  142.0      2.028     0.1492
  142.0      2.030     0.1551
  142.0      2.038     0.1581
  142.0      2.044     0.1601
  142.0      2.045     0.1522
  142.0      2.053     0.1551
  142.0      2.055     0.1432
  142.0      2.062     0.1472
  142.0      2.069     0.1492
  142.0      2.069     0.1522
  142.0      2.078     0.1432
  142.0      2.085     0.1522
  142.0      2.093     0.1393
  142.0      2.095     0.1432
  142.0      2.099     0.1363
  142.0      2.101     0.1432
  142.0      2.107     0.1432
  142.0      2.116     0.1432
  142.0      2.124     0.1343
  142.0      2.132     0.1482
  142.0      2.132     0.1452
  142.0      2.138     0.1373
  142.0      2.139     0.1333
  142.0      2.147     0.1403
  142.0      2.155     0.1313
  142.0      2.156     0.1373
  142.0      2.163     0.1373
  142.0      2.170     0.1303
  142.0      2.178     0.1284
  142.0      2.178     0.1373
  142.0      2.186     0.1343
  142.0      2.190     0.1284
  142.0      2.195     0.1303
  142.0      2.201     0.1284
  142.0      2.209     0.1313
  142.0      2.215     0.1294
  142.0      2.220     0.1254
  142.0      2.224     0.1284
  142.0      2.226     0.1244
  142.0      2.234     0.1303
  142.0      2.240     0.1224
  142.0      2.241     0.1274
  142.0      2.250     0.1204
  142.0      2.252     0.1254
  142.0      2.257     0.1274
  142.0      2.260     0.1204
  142.0      2.264     0.1174
  142.0      2.274     0.1224
  142.0      2.275     0.1164
  142.0      2.280     0.1224
  142.0      2.281     0.1184
  142.0      2.289     0.1183
  142.0      2.297     0.1113
  142.0      2.298     0.1173
  142.0      2.305     0.1183
  142.0      2.312     0.1123
  142.0      2.322     0.1163
  142.0      2.322     0.1093
  142.0      2.329     0.1068
  142.0      2.337     0.1113
  142.0      2.343     0.1133
  142.0      2.352     0.1108
  142.0      2.359     0.1108
  142.0      2.360     0.1093
  142.0      2.368     0.1083
  142.0      2.368     0.1168
  142.0      2.377     0.1138
  142.0      2.383     0.1143
  142.0      2.383     0.1079
  142.0      2.392     0.1143
  142.0      2.400     0.1158
  142.0      2.408     0.1143
  142.0      2.409     0.1128
  142.0      2.416     0.1128
  142.0      2.423     0.1123
  142.0      2.423     0.1158
  142.0      2.433     0.9793E-01
  142.0      2.442     0.1098
  142.0      2.448     0.1084
  142.0      2.456     0.1133
  142.0      2.456     0.1113
  142.0      2.464     0.1098
  142.0      2.471     0.1084
  142.0      2.473     0.1024
  142.0      2.487     0.1034
  142.0      2.493     0.9446E-01
  142.0      2.497     0.8106E-01
  142.0      2.500     0.9446E-01
  142.0      2.508     0.9049E-01
  142.0      2.521     0.9843E-01
  142.0      2.528     0.9793E-01
  142.0      2.544     0.9793E-01
  142.0      2.561     0.9545E-01
  142.0      2.568     0.9496E-01
  142.0      2.576     0.9645E-01
  142.0      2.592     0.9000E-01
  142.0      2.593     0.8503E-01
  142.0      2.607     0.8355E-01
  142.0      2.609     0.8702E-01
  142.0      2.616     0.7809E-01
  142.0      2.616     0.8702E-01
  142.0      2.633     0.9645E-01
  142.0      2.647     0.9496E-01
  142.0      2.650     0.9248E-01
  142.0      2.656     0.9099E-01
  142.0      2.658     0.9298E-01
  142.0      2.673     0.9149E-01
  142.0      2.673     0.9496E-01
  142.0      2.680     0.9546E-01
  142.0      2.687     0.9149E-01
  142.0      2.689     0.8950E-01
  142.0      2.689     0.8752E-01
  142.0      2.697     0.8653E-01
  142.0      2.697     0.8901E-01
  142.0      2.697     0.9099E-01
  142.0      2.706     0.9347E-01
  142.0      2.710     0.8603E-01
  142.0      2.712     0.8405E-01
  142.0      2.714     0.7710E-01
  142.0      2.720     0.7412E-01
  142.0      2.721     0.7710E-01
  142.0      2.724     0.7264E-01
  142.0      2.729     0.7065E-01
  142.0      2.730     0.7363E-01
  142.0      2.730     0.7561E-01
  142.0      2.734     0.7115E-01
  142.0      2.737     0.8256E-01
  142.0      2.744     0.8455E-01
  142.0      2.758     0.8058E-01
  142.0      2.760     0.8405E-01
  142.0      2.766     0.8405E-01
  142.0      2.767     0.8107E-01
  142.0      2.770     0.8256E-01
  142.0      2.781     0.8157E-01
  142.0      2.789     0.7413E-01
  142.0      2.800     0.7363E-01
  142.0      2.800     0.7760E-01
  142.0      2.808     0.7562E-01
  142.0      2.823     0.6818E-01
  142.0      2.825     0.7016E-01
  142.0      2.831     0.6966E-01
  142.0      2.838     0.8157E-01
  142.0      2.848     0.6966E-01
  142.0      2.855     0.6966E-01
  142.0      2.865     0.6470E-01
  142.0      2.871     0.7016E-01
  142.0      2.882     0.7661E-01
  142.0      2.897     0.7115E-01
  142.0      2.905     0.7562E-01
  142.0      2.912     0.7413E-01
  142.0      2.928     0.6818E-01
  142.0      2.937     0.7413E-01
  142.0      2.943     0.7116E-01
  142.0      2.954     0.7265E-01
  142.0      2.962     0.6818E-01
  142.0      2.968     0.6620E-01
  142.0      2.970     0.6818E-01
  142.0      2.977     0.6967E-01
  142.0      2.985     0.6570E-01
  142.0      2.993     0.6868E-01
  142.0      3.002     0.6719E-01
  142.0      3.010     0.6570E-01
  142.0      3.017     0.6868E-01
  142.0      3.025     0.6719E-01
  142.0      3.033     0.6421E-01
  142.0      3.033     0.6868E-01
  142.0      3.041     0.6868E-01
  142.0      3.048     0.6719E-01
  142.0      3.051     0.6570E-01
  142.0      3.056     0.6471E-01
  142.0      3.064     0.6422E-01
  142.0      3.067     0.6273E-01
  142.0      3.073     0.6571E-01
  142.0      3.081     0.6273E-01
  142.0      3.088     0.6124E-01
  142.0      3.104     0.5777E-01
  142.0      3.115     0.5231E-01
  142.0      3.122     0.4834E-01
  142.0      3.130     0.4487E-01
  142.0      3.138     0.4338E-01
  142.0      3.145     0.4487E-01
  142.0      3.147     0.5380E-01
  142.0      3.156     0.5976E-01
  142.0      3.162     0.6025E-01
  142.0      3.169     0.6273E-01
  142.0      3.186     0.6273E-01
  142.0      3.195     0.6025E-01
  142.0      3.203     0.6273E-01
  142.0      3.209     0.6125E-01
  142.0      3.220     0.5827E-01
  142.0      3.227     0.5827E-01
  142.0      3.235     0.4190E-01
  142.0      3.235     0.4388E-01
  142.0      3.240     0.4884E-01
  142.0      3.244     0.4636E-01
  142.0      3.249     0.5083E-01
  142.0      3.249     0.4785E-01
  142.0      3.258     0.4735E-01
  142.0      3.275     0.3842E-01
  142.0      3.291     0.6472E-01
  142.0      3.297     0.7465E-01
  142.0      3.306     0.7663E-01
  142.0      3.314     0.6869E-01
  142.0      3.320     0.6820E-01
  142.0      3.321     0.6621E-01
  142.0      3.349     0.6026E-01
  142.0      3.357     0.5431E-01
  142.0      3.388     0.4835E-01
  142.0      3.394     0.4786E-01
  142.0      3.403     0.5133E-01
  142.0      3.420     0.4736E-01
  142.0      3.428     0.5084E-01
  142.0      3.437     0.4488E-01
  142.0      3.446     0.4538E-01
  142.0      3.454     0.3595E-01
  142.0      3.468     0.4191E-01
  142.0      3.477     0.4191E-01
  142.0      3.482     0.3992E-01
  142.0      3.494     0.3595E-01
  142.0      3.510     0.3744E-01
  142.0      3.517     0.3347E-01
  142.0      3.525     0.3149E-01
  142.0      3.534     0.3695E-01
  142.0      3.551     0.3496E-01
  142.0      3.556     0.3546E-01
  142.0      3.565     0.3645E-01
  142.0      3.584     0.1661E-01
  142.0      3.607     0.8172E-02
  142.0      3.616     0.2157E-01
  142.0      3.630     0.4985E-01
  142.0      3.653     0.4440E-01
  142.0      3.664     0.4142E-01
  142.0      3.686     0.3695E-01
  142.0      3.695     0.4589E-01
  142.0      3.703     0.6474E-01
  142.0      3.710     0.7665E-01
  132.0      1.505     0.3344
  132.0      1.511     0.3318
  132.0      1.513     0.3357
  132.0      1.521     0.3187
  132.0      1.528     0.3226
  132.0      1.533     0.3305
  132.0      1.535     0.3252
  132.0      1.541     0.3305
  132.0      1.545     0.3147
  132.0      1.553     0.3082
  132.0      1.561     0.3043
  132.0      1.561     0.2964
  132.0      1.567     0.2938
  132.0      1.569     0.2977
  132.0      1.575     0.2964
  132.0      1.576     0.3082
  132.0      1.584     0.3003
  132.0      1.584     0.2964
  132.0      1.592     0.2846
  132.0      1.593     0.2925
  132.0      1.598     0.2912
  132.0      1.599     0.2885
  132.0      1.607     0.2728
  132.0      1.607     0.2807
  132.0      1.613     0.2780
  132.0      1.616     0.2807
  132.0      1.621     0.2807
  132.0      1.624     0.2688
  132.0      1.629     0.2807
  132.0      1.630     0.2767
  132.0      1.636     0.2780
  132.0      1.646     0.2715
  132.0      1.647     0.2688
  132.0      1.653     0.2675
  132.0      1.653     0.2767
  132.0      1.661     0.2807
  132.0      1.661     0.2741
  132.0      1.661     0.2649
  132.0      1.669     0.2439
  132.0      1.670     0.2649
  132.0      1.678     0.2610
  132.0      1.684     0.2571
  132.0      1.684     0.2492
  132.0      1.694     0.2531
  132.0      1.701     0.2492
  132.0      1.701     0.2571
  132.0      1.707     0.2479
  132.0      1.707     0.2571
  132.0      1.717     0.2571
  132.0      1.717     0.2413
  132.0      1.723     0.2439
  132.0      1.724     0.2492
  132.0      1.727     0.2413
  132.0      1.731     0.2492
  132.0      1.732     0.2361
  132.0      1.737     0.2387
  132.0      1.740     0.2413
  132.0      1.749     0.2452
  132.0      1.755     0.2439
  132.0      1.761     0.2426
  132.0      1.766     0.2387
  132.0      1.772     0.2295
  132.0      1.774     0.2334
  132.0      1.780     0.2203
  132.0      1.781     0.2321
  132.0      1.788     0.2295
  132.0      1.789     0.2256
  132.0      1.797     0.2374
  132.0      1.805     0.2295
  132.0      1.805     0.2177
  132.0      1.811     0.2295
  132.0      1.812     0.2203
  132.0      1.817     0.2295
  132.0      1.817     0.2203
  132.0      1.820     0.2308
  132.0      1.828     0.2177
  132.0      1.829     0.2256
  132.0      1.836     0.2138
  132.0      1.845     0.2216
  132.0      1.846     0.2177
  132.0      1.851     0.2216
  132.0      1.854     0.2177
  132.0      1.859     0.2177
  132.0      1.862     0.2151
  132.0      1.866     0.2138
  132.0      1.876     0.2125
  132.0      1.885     0.2256
  132.0      1.891     0.2098
  132.0      1.897     0.2059
  132.0      1.906     0.2177
  132.0      1.916     0.1980
  132.0      1.917     0.2138
  132.0      1.923     0.2138
  132.0      1.925     0.2112
  132.0      1.931     0.2151
  132.0      1.933     0.2072
  132.0      1.937     0.2059
  132.0      1.940     0.2020
  132.0      1.947     0.2059
  132.0      1.948     0.1980
  132.0      1.956     0.2098
  132.0      1.956     0.2020
  132.0      1.964     0.1980
  132.0      1.970     0.2072
  132.0      1.971     0.1862
  132.0      1.980     0.1941
  132.0      1.987     0.1941
  132.0      1.988     0.1993
  132.0      1.996     0.1862
  132.0      1.996     0.1902
  132.0      2.002     0.1902
  132.0      2.004     0.1941
  132.0      2.010     0.1941
  132.0      2.011     0.1784
  132.0      2.018     0.1731
  132.0      2.034     0.1705
  132.0      2.034     0.1744
  132.0      2.042     0.1784
  132.0      2.052     0.1692
  132.0      2.052     0.1626
  132.0      2.058     0.1626
  132.0      2.059     0.1744
  132.0      2.067     0.1705
  132.0      2.075     0.1652
  132.0      2.082     0.1679
  132.0      2.084     0.1626
  132.0      2.092     0.1626
  132.0      2.099     0.1666
  132.0      2.107     0.1613
  132.0      2.107     0.1495
  132.0      2.115     0.1587
  132.0      2.121     0.1587
  132.0      2.138     0.1665
  132.0      2.138     0.1574
  132.0      2.146     0.1548
  132.0      2.155     0.1548
  132.0      2.161     0.1508
  132.0      2.170     0.1456
  132.0      2.178     0.1508
  132.0      2.184     0.1469
  132.0      2.186     0.1429
  132.0      2.203     0.1416
  132.0      2.203     0.1508
  132.0      2.209     0.1521
  132.0      2.218     0.1521
  132.0      2.220     0.1469
  132.0      2.224     0.1390
  132.0      2.227     0.1311
  132.0      2.234     0.1429
  132.0      2.237     0.1351
  132.0      2.243     0.1469
  132.0      2.247     0.1364
  132.0      2.251     0.1416
  132.0      2.258     0.1325
  132.0      2.260     0.1443
  132.0      2.266     0.1443
  132.0      2.266     0.1390
  132.0      2.274     0.1416
  132.0      2.281     0.1443
  132.0      2.281     0.1390
  132.0      2.289     0.1325
  132.0      2.291     0.1390
  132.0      2.297     0.1272
  132.0      2.298     0.1246
  132.0      2.306     0.1246
  132.0      2.306     0.1371
  132.0      2.314     0.1331
  132.0      2.322     0.1272
  132.0      2.331     0.1351
  132.0      2.331     0.1161
  132.0      2.339     0.1220
  132.0      2.345     0.1220
  132.0      2.352     0.1246
  132.0      2.363     0.1200
  132.0      2.369     0.1193
  132.0      2.369     0.1233
  132.0      2.379     0.1272
  132.0      2.386     0.1233
  132.0      2.392     0.1200
  132.0      2.394     0.1292
  132.0      2.402     0.1292
  132.0      2.411     0.1292
  132.0      2.411     0.1233
  132.0      2.417     0.1259
  132.0      2.427     0.1233
  132.0      2.434     0.1298
  132.0      2.434     0.1252
  132.0      2.442     0.1220
  132.0      2.443     0.1174
  132.0      2.451     0.1279
  132.0      2.456     0.1226
  132.0      2.457     0.1259
  132.0      2.464     0.1233
  132.0      2.467     0.1200
  132.0      2.471     0.1233
  132.0      2.473     0.1213
  132.0      2.480     0.1252
  132.0      2.490     0.1102
  132.0      2.497     0.1180
  132.0      2.508     0.1049
  132.0      2.517     0.1049
  132.0      2.536     0.1108
  132.0      2.545     0.1062
  132.0      2.555     0.1095
  132.0      2.561     0.1069
  132.0      2.570     0.1069
  132.0      2.570     0.1043
  132.0      2.578     0.1023
  132.0      2.587     0.1056
  132.0      2.593     0.1082
  132.0      2.601     0.1043
  132.0      2.605     0.9967E-01
  132.0      2.615     0.9967E-01
  132.0      2.618     0.9442E-01
  132.0      2.625     0.8983E-01
  132.0      2.632     0.1036
  132.0      2.641     0.1069
  132.0      2.656     0.1023
  132.0      2.658     0.1056
  132.0      2.667     0.1036
  132.0      2.680     0.1036
  132.0      2.681     0.1010
  132.0      2.687     0.1003
  132.0      2.695     0.1016
  132.0      2.697     0.9901E-01
  132.0      2.697     0.9639E-01
  132.0      2.703     0.9639E-01
  132.0      2.703     0.9967E-01
  132.0      2.720     0.9639E-01
  132.0      2.720     0.9246E-01
  132.0      2.721     0.8983E-01
  132.0      2.727     0.8721E-01
  132.0      2.729     0.8262E-01
  132.0      2.735     0.8262E-01
  132.0      2.738     0.8590E-01
  132.0      2.744     0.9049E-01
  132.0      2.744     0.9442E-01
  132.0      2.750     0.9442E-01
  132.0      2.754     0.9246E-01
  132.0      2.760     0.9246E-01
  132.0      2.767     0.9311E-01
  132.0      2.774     0.9180E-01
  132.0      2.784     0.9377E-01
  132.0      2.791     0.9442E-01
  132.0      2.798     0.8918E-01
  132.0      2.809     0.8262E-01
  132.0      2.823     0.8655E-01
  132.0      2.832     0.7869E-01
  132.0      2.839     0.7934E-01
  132.0      2.848     0.8590E-01
  132.0      2.849     0.9246E-01
  132.0      2.854     0.8196E-01
  132.0      2.863     0.7869E-01
  132.0      2.872     0.7672E-01
  132.0      2.886     0.8393E-01
  132.0      2.896     0.8655E-01
  132.0      2.903     0.8065E-01
  132.0      2.911     0.8262E-01
  132.0      2.920     0.8065E-01
  132.0      2.936     0.7869E-01
  132.0      2.943     0.8065E-01
  132.0      2.950     0.7934E-01
  132.0      2.957     0.7869E-01
  132.0      2.967     0.7737E-01
  132.0      2.974     0.7672E-01
  132.0      2.976     0.7475E-01
  132.0      2.982     0.7737E-01
  132.0      2.990     0.7147E-01
  132.0      2.999     0.7541E-01
  132.0      3.005     0.7278E-01
  132.0      3.011     0.7278E-01
  132.0      3.016     0.7278E-01
  132.0      3.022     0.7541E-01
  132.0      3.033     0.7541E-01
  132.0      3.039     0.7541E-01
  132.0      3.039     0.7278E-01
  132.0      3.047     0.7541E-01
  132.0      3.047     0.7082E-01
  132.0      3.047     0.7278E-01
  132.0      3.055     0.7344E-01
  132.0      3.058     0.7147E-01
  132.0      3.064     0.7082E-01
  132.0      3.070     0.7213E-01
  132.0      3.087     0.7213E-01
  132.0      3.109     0.6557E-01
  132.0      3.127     0.6426E-01
  132.0      3.135     0.5049E-01
  132.0      3.139     0.5114E-01
  132.0      3.144     0.5246E-01
  132.0      3.150     0.5246E-01
  132.0      3.150     0.5967E-01
  132.0      3.158     0.6229E-01
  132.0      3.167     0.7016E-01
  132.0      3.173     0.7016E-01
  132.0      3.190     0.7213E-01
  132.0      3.192     0.6950E-01
  132.0      3.198     0.6819E-01
  132.0      3.207     0.7278E-01
  132.0      3.212     0.6885E-01
  132.0      3.229     0.6754E-01
  132.0      3.230     0.6557E-01
  132.0      3.240     0.5508E-01
  132.0      3.247     0.5508E-01
  132.0      3.247     0.5770E-01
  132.0      3.255     0.5508E-01
  132.0      3.255     0.5770E-01
  132.0      3.269     0.5114E-01
  132.0      3.275     0.4721E-01
  132.0      3.284     0.4655E-01
  132.0      3.295     0.6819E-01
  132.0      3.300     0.8196E-01
  132.0      3.307     0.8065E-01
  132.0      3.317     0.7344E-01
  132.0      3.323     0.7672E-01
  132.0      3.331     0.7147E-01
  132.0      3.342     0.6754E-01
  132.0      3.355     0.6491E-01
  132.0      3.391     0.6164E-01
  132.0      3.405     0.5901E-01
  132.0      3.428     0.5836E-01
  132.0      3.443     0.5836E-01
  132.0      3.443     0.5508E-01
  132.0      3.459     0.4524E-01
  132.0      3.468     0.5114E-01
  132.0      3.476     0.5049E-01
  132.0      3.482     0.4852E-01
  132.0      3.488     0.4852E-01
  132.0      3.507     0.4524E-01
  132.0      3.514     0.4327E-01
  132.0      3.522     0.4131E-01
  132.0      3.528     0.4131E-01
  132.0      3.544     0.4131E-01
  132.0      3.550     0.4327E-01
  132.0      3.559     0.4327E-01
  132.0      3.570     0.3541E-01
  132.0      3.578     0.2819E-01
  132.0      3.608     0.2229E-01
  132.0      3.624     0.5114E-01
  132.0      3.647     0.4393E-01
  132.0      3.655     0.4393E-01
  132.0      3.661     0.4393E-01
  132.0      3.670     0.4000E-01
  132.0      3.676     0.4065E-01
  132.0      3.686     0.4983E-01
  132.0      3.693     0.6229E-01
  132.0      3.701     0.7803E-01
  114.5      1.508     0.4114
  114.5      1.510     0.4065
  114.5      1.519     0.4146
  114.5      1.525     0.3919
  114.5      1.527     0.3968
  114.5      1.528     0.4146
  114.5      1.533     0.3951
  114.5      1.536     0.4016
  114.5      1.544     0.3919
  114.5      1.552     0.3691
  114.5      1.558     0.3886
  114.5      1.559     0.3740
  114.5      1.564     0.3854
  114.5      1.573     0.3837
  114.5      1.573     0.3626
  114.5      1.581     0.3740
  114.5      1.581     0.3837
  114.5      1.589     0.3496
  114.5      1.589     0.3691
  114.5      1.589     0.3642
  114.5      1.596     0.3642
  114.5      1.598     0.3593
  114.5      1.606     0.3496
  114.5      1.606     0.3447
  114.5      1.612     0.3545
  114.5      1.613     0.3154
  114.5      1.620     0.3350
  114.5      1.624     0.3333
  114.5      1.629     0.3350
  114.5      1.629     0.3301
  114.5      1.636     0.3138
  114.5      1.646     0.3301
  114.5      1.646     0.3350
  114.5      1.652     0.3089
  114.5      1.653     0.3333
  114.5      1.660     0.3236
  114.5      1.666     0.3252
  114.5      1.670     0.3382
  114.5      1.672     0.3252
  114.5      1.677     0.3252
  114.5      1.677     0.3040
  114.5      1.683     0.3252
  114.5      1.683     0.3040
  114.5      1.694     0.3089
  114.5      1.700     0.3057
  114.5      1.701     0.2992
  114.5      1.707     0.3008
  114.5      1.709     0.3138
  114.5      1.714     0.2992
  114.5      1.715     0.3106
  114.5      1.718     0.3089
  114.5      1.720     0.3008
  114.5      1.724     0.3040
  114.5      1.726     0.3187
  114.5      1.726     0.2959
  114.5      1.731     0.3057
  114.5      1.735     0.3040
  114.5      1.740     0.3057
  114.5      1.751     0.2845
  114.5      1.755     0.2943
  114.5      1.755     0.2862
  114.5      1.765     0.3040
  114.5      1.765     0.2910
  114.5      1.771     0.2894
  114.5      1.774     0.2862
  114.5      1.777     0.2910
  114.5      1.780     0.2992
  114.5      1.781     0.2910
  114.5      1.789     0.2894
  114.5      1.797     0.2943
  114.5      1.805     0.2910
  114.5      1.806     0.2862
  114.5      1.812     0.2683
  114.5      1.820     0.2780
  114.5      1.828     0.2829
  114.5      1.836     0.2699
  114.5      1.843     0.2764
  114.5      1.845     0.2813
  114.5      1.851     0.2797
  114.5      1.859     0.2764
  114.5      1.860     0.2569
  114.5      1.869     0.2797
  114.5      1.872     0.2764
  114.5      1.883     0.2666
  114.5      1.891     0.2650
  114.5      1.897     0.2666
  114.5      1.900     0.2797
  114.5      1.908     0.2455
  114.5      1.914     0.2601
  114.5      1.916     0.2748
  114.5      1.923     0.2569
  114.5      1.923     0.2520
  114.5      1.930     0.2520
  114.5      1.931     0.2650
  114.5      1.937     0.2520
  114.5      1.940     0.2553
  114.5      1.947     0.2569
  114.5      1.947     0.2618
  114.5      1.954     0.2618
  114.5      1.962     0.2666
  114.5      1.964     0.2357
  114.5      1.970     0.2618
  114.5      1.971     0.2309
  114.5      1.979     0.2520
  114.5      1.980     0.2488
  114.5      1.987     0.2471
  114.5      1.987     0.2422
  114.5      1.991     0.2422
  114.5      1.993     0.2374
  114.5      1.996     0.2406
  114.5      1.996     0.2341
  114.5      1.999     0.2374
  114.5      2.004     0.2357
  114.5      2.004     0.2260
  114.5      2.010     0.2422
  114.5      2.018     0.2130
  114.5      2.019     0.2178
  114.5      2.034     0.2130
  114.5      2.042     0.2162
  114.5      2.050     0.2211
  114.5      2.050     0.2065
  114.5      2.059     0.2244
  114.5      2.059     0.2016
  114.5      2.067     0.2113
  114.5      2.075     0.2113
  114.5      2.076     0.1967
  114.5      2.082     0.2016
  114.5      2.090     0.1870
  114.5      2.095     0.1853
  114.5      2.099     0.1853
  114.5      2.099     0.2065
  114.5      2.107     0.2048
  114.5      2.107     0.1918
  114.5      2.116     0.2178
  114.5      2.121     0.1918
  114.5      2.122     0.1756
  114.5      2.132     0.1869
  114.5      2.136     0.1869
  114.5      2.136     0.1821
  114.5      2.149     0.1918
  114.5      2.153     0.1918
  114.5      2.163     0.1918
  114.5      2.170     0.1739
  114.5      2.177     0.1869
  114.5      2.178     0.1772
  114.5      2.184     0.1869
  114.5      2.186     0.1821
  114.5      2.192     0.1772
  114.5      2.198     0.1853
  114.5      2.209     0.1967
  114.5      2.215     0.1772
  114.5      2.218     0.1869
  114.5      2.223     0.1788
  114.5      2.224     0.1723
  114.5      2.229     0.1772
  114.5      2.234     0.1837
  114.5      2.234     0.1788
  114.5      2.240     0.1788
  114.5      2.244     0.1804
  114.5      2.252     0.1707
  114.5      2.255     0.1642
  114.5      2.258     0.1723
  114.5      2.261     0.1658
  114.5      2.266     0.1756
  114.5      2.274     0.1821
  114.5      2.278     0.1772
  114.5      2.280     0.1821
  114.5      2.288     0.1674
  114.5      2.295     0.1593
  114.5      2.297     0.1569
  114.5      2.305     0.1658
  114.5      2.305     0.1479
  114.5      2.312     0.1536
  114.5      2.312     0.1504
  114.5      2.322     0.1431
  114.5      2.328     0.1626
  114.5      2.329     0.1504
  114.5      2.335     0.1544
  114.5      2.345     0.1479
  114.5      2.352     0.1553
  114.5      2.354     0.1528
  114.5      2.359     0.1569
  114.5      2.369     0.1488
  114.5      2.376     0.1479
  114.5      2.377     0.1626
  114.5      2.385     0.1601
  114.5      2.392     0.1447
  114.5      2.392     0.1569
  114.5      2.399     0.1634
  114.5      2.408     0.1650
  114.5      2.408     0.1634
  114.5      2.417     0.1569
  114.5      2.417     0.1455
  114.5      2.423     0.1577
  114.5      2.433     0.1553
  114.5      2.433     0.1471
  114.5      2.440     0.1577
  114.5      2.442     0.1447
  114.5      2.456     0.1577
  114.5      2.464     0.1577
  114.5      2.467     0.1528
  114.5      2.471     0.1528
  114.5      2.482     0.1577
  114.5      2.490     0.1431
  114.5      2.494     0.1528
  114.5      2.504     0.1301
  114.5      2.504     0.1333
  114.5      2.513     0.1439
  114.5      2.521     0.1463
  114.5      2.536     0.1463
  114.5      2.544     0.1414
  114.5      2.545     0.1341
  114.5      2.552     0.1292
  114.5      2.559     0.1349
  114.5      2.561     0.1382
  114.5      2.561     0.1309
  114.5      2.568     0.1414
  114.5      2.576     0.1301
  114.5      2.599     0.1317
  114.5      2.599     0.1211
  114.5      2.605     0.1284
  114.5      2.615     0.1317
  114.5      2.615     0.1292
  114.5      2.622     0.1284
  114.5      2.624     0.1138
  114.5      2.632     0.1260
  114.5      2.639     0.1309
  114.5      2.646     0.1244
  114.5      2.655     0.1301
  114.5      2.664     0.1317
  114.5      2.672     0.1243
  114.5      2.680     0.1309
  114.5      2.680     0.1162
  114.5      2.687     0.1211
  114.5      2.695     0.1146
  114.5      2.695     0.1195
  114.5      2.703     0.1227
  114.5      2.712     0.1260
  114.5      2.718     0.1219
  114.5      2.720     0.1178
  114.5      2.724     0.1211
  114.5      2.724     0.1162
  114.5      2.743     0.1170
  114.5      2.744     0.1122
  114.5      2.749     0.1203
  114.5      2.757     0.1187
  114.5      2.758     0.1122
  114.5      2.767     0.1146
  114.5      2.777     0.1154
  114.5      2.786     0.1162
  114.5      2.797     0.1097
  114.5      2.806     0.1138
  114.5      2.815     0.1065
  114.5      2.822     0.1121
  114.5      2.828     0.1073
  114.5      2.839     0.9671E-01
  114.5      2.845     0.1097
  114.5      2.846     0.1073
  114.5      2.852     0.1040
  114.5      2.852     0.1016
  114.5      2.854     0.9915E-01
  114.5      2.862     0.9752E-01
  114.5      2.869     0.9996E-01
  114.5      2.879     0.1081
  114.5      2.885     0.9670E-01
  114.5      2.891     0.9752E-01
  114.5      2.899     0.1073
  114.5      2.909     0.1040
  114.5      2.917     0.1073
  114.5      2.933     0.9996E-01
  114.5      2.940     0.1048
  114.5      2.948     0.1097
  114.5      2.957     0.9995E-01
  114.5      2.964     0.9995E-01
  114.5      2.973     0.1024
  114.5      2.973     0.9508E-01
  114.5      2.980     0.1032
  114.5      2.988     0.9508E-01
  114.5      2.999     0.9182E-01
  114.5      3.005     0.9508E-01
  114.5      3.011     0.9508E-01
  114.5      3.020     0.9264E-01
  114.5      3.028     0.9507E-01
  114.5      3.036     0.9101E-01
  114.5      3.045     0.9833E-01
  114.5      3.051     0.9507E-01
  114.5      3.053     0.8857E-01
  114.5      3.068     0.9020E-01
  114.5      3.093     0.8207E-01
  114.5      3.099     0.8369E-01
  114.5      3.110     0.7637E-01
  114.5      3.113     0.7963E-01
  114.5      3.119     0.8044E-01
  114.5      3.125     0.8206E-01
  114.5      3.133     0.7068E-01
  114.5      3.139     0.6905E-01
  114.5      3.147     0.5361E-01
  114.5      3.149     0.7556E-01
  114.5      3.164     0.8044E-01
  114.5      3.170     0.8613E-01
  114.5      3.187     0.7881E-01
  114.5      3.193     0.8531E-01
  114.5      3.201     0.8531E-01
  114.5      3.218     0.7474E-01
  114.5      3.220     0.8531E-01
  114.5      3.221     0.8287E-01
  114.5      3.232     0.8369E-01
  114.5      3.235     0.8043E-01
  114.5      3.244     0.7312E-01
  114.5      3.246     0.7068E-01
  114.5      3.252     0.5930E-01
  114.5      3.266     0.6011E-01
  114.5      3.275     0.4873E-01
  114.5      3.283     0.4873E-01
  114.5      3.291     0.6499E-01
  114.5      3.306     0.8612E-01
  114.5      3.306     0.8368E-01
  114.5      3.314     0.8937E-01
  114.5      3.320     0.8206E-01
  114.5      3.331     0.8694E-01
  114.5      3.335     0.7555E-01
  114.5      3.342     0.7555E-01
  114.5      3.352     0.8124E-01
  114.5      3.375     0.8693E-01
  114.5      3.385     0.8124E-01
  114.5      3.391     0.7799E-01
  114.5      3.400     0.7962E-01
  114.5      3.409     0.7474E-01
  114.5      3.417     0.6742E-01
  114.5      3.432     0.7636E-01
  114.5      3.442     0.7230E-01
  114.5      3.446     0.6986E-01
  114.5      3.456     0.6742E-01
  114.5      3.462     0.6742E-01
  114.5      3.473     0.6498E-01
  114.5      3.479     0.6498E-01
  114.5      3.487     0.6742E-01
  114.5      3.503     0.6498E-01
  114.5      3.511     0.6254E-01
  114.5      3.517     0.6254E-01
  114.5      3.524     0.6254E-01
  114.5      3.534     0.5766E-01
  114.5      3.540     0.5441E-01
  114.5      3.550     0.5197E-01
  114.5      3.557     0.5278E-01
  114.5      3.565     0.5278E-01
  114.5      3.576     0.4790E-01
  114.5      3.596     0.3083E-01
  114.5      3.602     0.3002E-01
  114.5      3.613     0.3815E-01
  114.5      3.627     0.4790E-01
  114.5      3.644     0.4790E-01
  114.5      3.650     0.4790E-01
  114.5      3.661     0.4302E-01
  114.5      3.669     0.4058E-01
  114.5      3.675     0.3571E-01
  114.5      3.684     0.3571E-01
  114.5      3.692     0.5034E-01
  114.5      3.701     0.6253E-01
  78.00      1.518     0.9540
  78.00      1.521     0.9278
  78.00      1.530     0.9442
  78.00      1.538     0.9573
  78.00      1.539     0.9213
  78.00      1.547     0.9245
  78.00      1.548     0.9442
  78.00      1.551     0.9082
  78.00      1.558     0.8853
  78.00      1.564     0.9246
  78.00      1.571     0.9049
  78.00      1.573     0.8755
  78.00      1.581     0.8689
  78.00      1.589     0.8951
  78.00      1.589     0.8656
  78.00      1.595     0.8755
  78.00      1.596     0.9540
  78.00      1.596     0.8853
  78.00      1.602     0.8951
  78.00      1.604     0.9082
  78.00      1.612     0.8689
  78.00      1.619     0.8755
  78.00      1.621     0.8591
  78.00      1.626     0.8984
  78.00      1.627     0.8656
  78.00      1.635     0.8558
  78.00      1.636     0.8755
  78.00      1.643     0.8591
  78.00      1.650     0.8656
  78.00      1.650     0.8329
  78.00      1.658     0.8296
  78.00      1.660     0.8034
  78.00      1.666     0.7871
  78.00      1.667     0.8362
  78.00      1.673     0.8002
  78.00      1.675     0.8166
  78.00      1.681     0.8067
  78.00      1.689     0.7969
  78.00      1.690     0.7740
  78.00      1.698     0.7969
  78.00      1.706     0.8166
  78.00      1.707     0.7674
  78.00      1.714     0.7773
  78.00      1.714     0.7871
  78.00      1.723     0.7936
  78.00      1.723     0.7675
  78.00      1.729     0.8166
  78.00      1.729     0.7773
  78.00      1.738     0.7740
  78.00      1.738     0.7413
  78.00      1.746     0.7871
  78.00      1.754     0.7937
  78.00      1.761     0.7413
  78.00      1.761     0.7282
  78.00      1.771     0.7315
  78.00      1.771     0.7151
  78.00      1.775     0.7249
  78.00      1.778     0.7053
  78.00      1.785     0.7577
  78.00      1.785     0.7282
  78.00      1.791     0.7217
  78.00      1.795     0.7184
  78.00      1.801     0.6987
  78.00      1.806     0.7053
  78.00      1.812     0.7020
  78.00      1.814     0.7118
  78.00      1.817     0.6955
  78.00      1.820     0.6824
  78.00      1.823     0.6922
  78.00      1.828     0.6889
  78.00      1.832     0.6889
  78.00      1.832     0.6726
  78.00      1.837     0.6856
  78.00      1.842     0.6758
  78.00      1.845     0.6529
  78.00      1.849     0.6758
  78.00      1.857     0.6627
  78.00      1.863     0.6529
  78.00      1.869     0.6693
  78.00      1.874     0.6824
  78.00      1.882     0.6628
  78.00      1.889     0.6398
  78.00      1.896     0.6333
  78.00      1.902     0.6267
  78.00      1.906     0.6005
  78.00      1.914     0.6104
  78.00      1.920     0.6235
  78.00      1.923     0.5744
  78.00      1.926     0.6071
  78.00      1.933     0.5875
  78.00      1.936     0.6137
  78.00      1.936     0.5744
  78.00      1.943     0.5875
  78.00      1.946     0.6071
  78.00      1.954     0.5744
  78.00      1.956     0.5973
  78.00      1.959     0.6300
  78.00      1.962     0.5973
  78.00      1.964     0.6071
  78.00      1.967     0.6137
  78.00      1.971     0.5875
  78.00      1.977     0.5678
  78.00      1.984     0.5777
  78.00      1.990     0.5613
  78.00      1.993     0.5777
  78.00      1.997     0.5515
  78.00      2.000     0.5678
  78.00      2.007     0.5842
  78.00      2.007     0.5548
  78.00      2.016     0.5384
  78.00      2.024     0.5449
  78.00      2.031     0.5515
  78.00      2.038     0.5351
  78.00      2.041     0.5679
  78.00      2.048     0.5155
  78.00      2.055     0.5908
  78.00      2.058     0.5253
  78.00      2.064     0.5744
  78.00      2.070     0.5220
  78.00      2.076     0.5188
  78.00      2.079     0.5351
  78.00      2.087     0.5220
  78.00      2.096     0.5286
  78.00      2.102     0.5057
  78.00      2.104     0.4795
  78.00      2.110     0.5679
  78.00      2.113     0.4762
  78.00      2.119     0.5155
  78.00      2.125     0.4860
  78.00      2.127     0.4566
  78.00      2.133     0.4467
  78.00      2.142     0.4631
  78.00      2.144     0.4762
  78.00      2.149     0.4631
  78.00      2.158     0.4861
  78.00      2.166     0.4468
  78.00      2.167     0.4730
  78.00      2.175     0.4402
  78.00      2.181     0.4697
  78.00      2.186     0.4468
  78.00      2.189     0.4271
  78.00      2.192     0.4402
  78.00      2.200     0.4108
  78.00      2.204     0.4500
  78.00      2.209     0.4337
  78.00      2.215     0.3977
  78.00      2.220     0.4271
  78.00      2.224     0.4010
  78.00      2.229     0.4206
  78.00      2.230     0.3977
  78.00      2.238     0.4402
  78.00      2.238     0.3846
  78.00      2.246     0.3944
  78.00      2.250     0.4206
  78.00      2.254     0.3944
  78.00      2.260     0.4239
  78.00      2.263     0.4141
  78.00      2.271     0.3944
  78.00      2.272     0.4304
  78.00      2.277     0.4173
  78.00      2.283     0.3977
  78.00      2.289     0.4075
  78.00      2.294     0.4337
  78.00      2.295     0.3879
  78.00      2.300     0.4141
  78.00      2.301     0.4149
  78.00      2.309     0.4166
  78.00      2.311     0.3953
  78.00      2.318     0.4248
  78.00      2.318     0.3953
  78.00      2.325     0.3969
  78.00      2.331     0.3904
  78.00      2.332     0.4149
  78.00      2.342     0.3806
  78.00      2.348     0.3773
  78.00      2.349     0.3658
  78.00      2.355     0.4051
  78.00      2.357     0.3855
  78.00      2.363     0.4051
  78.00      2.372     0.4281
  78.00      2.374     0.4002
  78.00      2.382     0.4133
  78.00      2.383     0.3855
  78.00      2.389     0.3740
  78.00      2.395     0.3609
  78.00      2.395     0.4100
  78.00      2.405     0.3839
  78.00      2.412     0.4002
  78.00      2.412     0.4297
  78.00      2.420     0.3904
  78.00      2.422     0.3757
  78.00      2.428     0.3609
  78.00      2.436     0.3953
  78.00      2.436     0.3659
  78.00      2.440     0.3659
  78.00      2.445     0.3904
  78.00      2.445     0.3675
  78.00      2.451     0.3920
  78.00      2.456     0.3773
  78.00      2.460     0.3757
  78.00      2.462     0.3659
  78.00      2.467     0.3789
  78.00      2.468     0.3904
  78.00      2.476     0.3757
  78.00      2.484     0.3708
  78.00      2.485     0.3609
  78.00      2.493     0.3315
  78.00      2.500     0.3659
  78.00      2.507     0.3167
  78.00      2.517     0.3610
  78.00      2.524     0.3561
  78.00      2.525     0.3659
  78.00      2.530     0.3659
  78.00      2.533     0.3429
  78.00      2.541     0.3413
  78.00      2.548     0.3299
  78.00      2.548     0.3446
  78.00      2.564     0.3511
  78.00      2.564     0.3381
  78.00      2.573     0.3315
  78.00      2.573     0.3151
  78.00      2.578     0.3381
  78.00      2.585     0.3331
  78.00      2.596     0.3397
  78.00      2.602     0.3364
  78.00      2.604     0.3282
  78.00      2.613     0.3299
  78.00      2.619     0.3168
  78.00      2.624     0.3266
  78.00      2.627     0.3168
  78.00      2.629     0.3315
  78.00      2.636     0.3070
  78.00      2.642     0.3135
  78.00      2.645     0.3168
  78.00      2.649     0.3201
  78.00      2.650     0.3266
  78.00      2.658     0.3479
  78.00      2.666     0.3217
  78.00      2.666     0.3151
  78.00      2.667     0.3086
  78.00      2.675     0.3020
  78.00      2.683     0.3266
  78.00      2.684     0.3184
  78.00      2.690     0.3184
  78.00      2.698     0.3070
  78.00      2.700     0.3021
  78.00      2.700     0.2873
  78.00      2.706     0.2939
  78.00      2.706     0.3004
  78.00      2.707     0.2890
  78.00      2.713     0.2955
  78.00      2.718     0.2906
  78.00      2.723     0.2824
  78.00      2.724     0.2775
  78.00      2.726     0.2906
  78.00      2.730     0.2922
  78.00      2.730     0.2726
  78.00      2.732     0.2791
  78.00      2.737     0.2726
  78.00      2.737     0.2792
  78.00      2.738     0.2857
  78.00      2.747     0.2955
  78.00      2.753     0.2759
  78.00      2.761     0.3217
  78.00      2.769     0.2955
  78.00      2.770     0.2873
  78.00      2.777     0.2873
  78.00      2.780     0.2775
  78.00      2.786     0.2808
  78.00      2.794     0.2644
  78.00      2.795     0.2710
  78.00      2.817     0.2644
  78.00      2.825     0.2644
  78.00      2.832     0.2710
  78.00      2.842     0.2628
  78.00      2.849     0.2546
  78.00      2.857     0.2513
  78.00      2.859     0.2464
  78.00      2.865     0.2481
  78.00      2.871     0.2562
  78.00      2.875     0.2530
  78.00      2.882     0.2399
  78.00      2.883     0.2448
  78.00      2.886     0.2383
  78.00      2.889     0.2546
  78.00      2.897     0.2726
  78.00      2.903     0.2579
  78.00      2.912     0.2432
  78.00      2.920     0.2612
  78.00      2.936     0.2464
  78.00      2.945     0.2612
  78.00      2.953     0.2383
  78.00      2.960     0.2432
  78.00      2.967     0.2432
  78.00      2.973     0.2415
  78.00      2.976     0.2432
  78.00      2.977     0.2563
  78.00      2.987     0.2628
  78.00      2.993     0.2317
  78.00      3.000     0.2432
  78.00      3.010     0.2432
  78.00      3.017     0.2334
  78.00      3.025     0.2366
  78.00      3.033     0.2317
  78.00      3.041     0.2465
  78.00      3.048     0.2530
  78.00      3.048     0.2415
  78.00      3.054     0.2432
  78.00      3.057     0.2285
  78.00      3.064     0.2236
  78.00      3.081     0.2186
  78.00      3.088     0.2268
  78.00      3.104     0.2285
  78.00      3.128     0.2105
  78.00      3.144     0.2203
  78.00      3.152     0.2301
  78.00      3.152     0.2383
  78.00      3.156     0.2105
  78.00      3.176     0.2203
  78.00      3.190     0.2105
  78.00      3.207     0.2056
  78.00      3.215     0.2056
  78.00      3.223     0.2138
  78.00      3.230     0.1957
  78.00      3.237     0.1957
  78.00      3.253     0.2138
  78.00      3.261     0.2138
  78.00      3.269     0.2023
  78.00      3.277     0.2088
  78.00      3.284     0.1663
  78.00      3.307     0.1565
  78.00      3.317     0.1778
  78.00      3.325     0.1810
  78.00      3.363     0.1778
  78.00      3.380     0.1794
  78.00      3.388     0.1843
  78.00      3.395     0.1876
  78.00      3.411     0.1712
  78.00      3.434     0.1794
  78.00      3.445     0.1565
  78.00      3.451     0.1565
  78.00      3.460     0.1630
  78.00      3.468     0.1811
  78.00      3.483     0.1778
  78.00      3.491     0.1843
  78.00      3.505     0.1843
  78.00      3.520     0.1778
  78.00      3.528     0.1811
  78.00      3.534     0.1811
  78.00      3.551     0.1729
  78.00      3.561     0.1794
  78.00      3.568     0.1762
  78.00      3.571     0.1713
  78.00      3.576     0.1811
  78.00      3.591     0.1811
  78.00      3.605     0.1860
  78.00      3.615     0.1713
  78.00      3.622     0.1860
  78.00      3.628     0.1811
  78.00      3.655     0.1647
  78.00      3.662     0.1582
  78.00      3.669     0.1582
  78.00      3.678     0.1336
  78.00      3.684     0.1238
  78.00      3.692     0.9925E-01
  78.00      3.701     0.9270E-01
ENDDATA           1771
ENDSUBENT         1794
SUBENT        D0325003   20050424   20050810                  D041
BIB                  6         13
REACTION   (9-F-19(A,P)10-NE-22,PAR,DA)
           The (alpha,po) curve was obtained from the
           charged-particle spectra of the detector at 170 degr.
           For the other angles the yield of the (alpha,po)
           reaction was too small to extract additional
           information.
SAMPLE     Thin targets were fabricated by evaporating strontium
           fluoride (SrF2) on thin self-supporting carbon foils.
DETECTOR   (SIBAR) Surface-barrier detector.
EN-SEC     (E-LVL,10-NE-22)
ERR-ANALYS (EN-ERR-DIG) Digitizing error
           (ERR-DIG) Digitizing error
STATUS     (CURVE)Curves from fig. 2 of the article
ENDBIB              13
COMMON               4          3
E-LVL      ANG        EN-ERR-DIG ERR-DIG
MEV        ADEG       MEV        PER-CENT
  0.0        170.         0.004     0.3
ENDCOMMON            3
DATA                 2        426
EN         DATA
MEV        B/SR
  1.497     0.1118
  1.502     0.5383E-01
  1.506     0.5037E-01
  1.511     0.2103
  1.514     0.9861E-01
  1.518     0.9585E-01
  1.527     0.3446E-01
  1.530     0.1406
  1.534     0.5616E-01
  1.546     0.1016
  1.550     0.2071
  1.556     0.1750
  1.559     0.6402E-01
  1.565     0.2233
  1.569     0.5252E-01
  1.572     0.2641E-01
  1.577     0.4280E-02
  1.581     0.2108
  1.584     0.1264
  1.588     0.9636E-01
  1.592     0.6635E-01
  1.596     0.6290E-01
  1.600     0.5944E-01
  1.605     0.5598E-01
  1.609     0.5252E-01
  1.616     0.1022
  1.619     0.1266
  1.623     0.1783
  1.626     0.2580
  1.628     0.3103
  1.631     0.3900
  1.634     0.8831E-01
  1.638     0.1938
  1.642     0.2761E-01
  1.647     0.3770E-02
  1.652     0.1017
  1.657     0.3427
  1.659     0.1447E-01
  1.663     0.2296
  1.667     0.4168
  1.672     0.4095E-02
  1.679     0.3533
  1.683     0.3226
  1.687     0.3198
  1.692     0.7058E-01
  1.699     0.6574E-01
  1.703     0.1168
  1.707     0.8605E-01
  1.711     0.2882E-01
  1.714     0.2773E-01
  1.717     0.2467E-01
  1.719     0.1315
  1.720     0.2125
  1.725     0.1001
  1.728     0.1791
  1.733     0.2029
  1.737     0.2818
  1.747     0.2609E-01
  1.751     0.2886E-01
  1.755     0.2215E-01
  1.760     0.9231E-02
  1.765     0.1455E-01
  1.769     0.9348E-01
  1.772     0.6348E-01
  1.776     0.1152
  1.781     0.2514E-01
  1.786     0.5653E-01
  1.793     0.4757E-01
  1.798     0.1105E-01
  1.807     0.6374E-01
  1.811     0.6499E-02
  1.822     0.1616
  1.824     0.2405E-01
  1.826     0.5261E-02
  1.835     0.1218E-01
  1.839     0.1212
  1.842     0.3676E-01
  1.846     0.6122E-01
  1.850     0.2394E-01
  1.857     0.1547E-02
  1.861     0.4946E-01
  1.866     0.1005
  1.869     0.1123E-01
  1.873     0.1323E-01
  1.878     0.2821
  1.884     0.2773
  1.889     0.7832E-03
  1.894     0.2991E-01
  1.896     0.4751E-02
  1.904     0.1626E-01
  1.917     0.4790E-01
  1.921     0.3104E-01
  1.924     0.2620E-01
  1.930     0.8551E-01
  1.934     0.8828E-01
  1.938     0.1541
  1.942     0.1444E-01
  1.946     0.6614E-01
  1.955     0.4972E-01
  1.961     0.1090E-01
  1.966     0.8595E-01
  1.973     0.3632E-01
  1.975     0.1116E-01
  1.978     0.1229
  1.983     0.2284
  1.987     0.1433
  1.990     0.3224E-01
  1.993     0.2430E-01
  1.997     0.5394E-01
  2.000     0.2984E-01
  2.007     0.8984E-01
  2.013     0.1426E-01
  2.016     0.4229E-01
  2.023     0.7506E-01
  2.029     0.7921E-01
  2.034     0.5612E-01
  2.042     0.8958E-01
  2.050     0.1230E-01
  2.055     0.7204E-01
  2.061     0.4826E-02
  2.068     0.8241E-01
  2.075     0.4823E-01
  2.081     0.9210E-01
  2.086     0.9625E-01
  2.091     0.4524E-01
  2.096     0.2215E-01
  2.100     0.1657
  2.104     0.1895
  2.109     0.1043
  2.111     0.6679E-02
  2.115     0.4502E-01
  2.117     0.3806E-01
  2.121     0.6876E-01
  2.127     0.1008E-01
  2.131     0.1036
  2.136     0.2911E-01
  2.140     0.2882E-01
  2.144     0.8605E-01
  2.148     0.1439E-01
  2.152     0.1195E-01
  2.158     0.9352E-01
  2.165     0.3066
  2.173     0.7906
  2.176     0.4610
  2.180     0.4854
  2.192     0.9617E-01
  2.200     0.1162
  2.207     0.5347E-01
  2.211     0.2900E-01
  2.215     0.2270E-01
  2.223     0.1469E-01
  2.226     0.9523E-01
  2.231     0.1698E-01
  2.234     0.3541E-01
  2.238     0.1137
  2.242     0.2919E-01
  2.246     0.1508E-02
  2.250     0.2296E-01
  2.253     0.2019E-01
  2.258     0.3774E-01
  2.261     0.1222E-01
  2.266     0.1256E-01
  2.271     0.1298E-01
  2.275     0.1325E-01
  2.276     0.3013E-01
  2.276     0.1391
  2.279     0.3276
  2.282     0.5252E-01
  2.282     0.1615
  2.284     0.1395E-01
  2.288     0.1429E-01
  2.294     0.1198E-01
  2.298     0.1233E-01
  2.303     0.7232E-01
  2.307     0.1155
  2.318      1.551
  2.321     0.6492
  2.326     0.3584E-01
  2.330     0.9308E-01
  2.333     0.1230E-01
  2.337     0.1258E-01
  2.342     0.1020E-01
  2.345     0.1048E-01
  2.349     0.8037E-01
  2.352     0.8314E-01
  2.356     0.1131E-01
  2.360     0.1166E-01
  2.365     0.3835E-01
  2.368     0.9559E-01
  2.373     0.7181E-01
  2.377     0.1297E-01
  2.383     0.1338E-01
  2.388     0.1108E-01
  2.394     0.1149E-01
  2.397     0.9049E-01
  2.402     0.6946E-01
  2.406     0.9323E-01
  2.412     0.1560E-01
  2.417     0.1057E-01
  2.421     0.1091E-01
  2.427     0.1133E-01
  2.432     0.1175E-01
  2.438     0.1216E-01
  2.444     0.3694E-01
  2.448     0.1299E-01
  2.454     0.1613E-01
  2.457     0.8237E-01
  2.463     0.1410E-01
  2.468     0.1451E-01
  2.472     0.1479E-01
  2.476     0.1241E-01
  2.484     0.1304E-01
  2.489     0.1338E-01
  2.493     0.1094E-01
  2.497     0.1128E-01
  2.502     0.1163E-01
  2.505     0.9180E-01
  2.508     0.1217E-01
  2.512     0.6387
  2.519      2.350
  2.526      1.173
  2.530     0.3525
  2.531     0.2156
  2.535     0.3756
  2.539     0.1822
  2.540     0.9155E-01
  2.543     0.1753E-01
  2.547     0.2333E-01
  2.552     0.1822E-01
  2.556     0.1857E-01
  2.561     0.1619E-01
  2.564     0.8230E-01
  2.566     0.2991E-01
  2.572     0.1158E-01
  2.582     0.2034
  2.586     0.1455
  2.592     0.9312
  2.600     0.3530
  2.610      1.381
  2.615      1.540
  2.622      2.571
  2.625      3.441
  2.629      3.383
  2.633      3.162
  2.638      2.231
  2.643      1.410
  2.645      1.136
  2.647     0.8345
  2.651     0.5866
  2.654     0.3660
  2.659     0.3891
  2.664     0.1405
  2.668     0.4366
  2.675     0.4980E-01
  2.682     0.3744E-01
  2.688     0.1436E-01
  2.696     0.4782E-01
  2.702     0.8351E-01
  2.705     0.2750E-01
  2.710     0.2959
  2.713     0.4565
  2.719     0.6975
  2.729      2.543
  2.733      5.483
  2.740      8.775
  2.744      9.045
  2.752      7.812
  2.753      2.088
  2.757     0.7773
  2.766     0.4708
  2.769     0.7662E-01
  2.777     0.2837E-01
  2.778     0.1924E-01
  2.784     0.2245E-01
  2.793     0.2314E-01
  2.797     0.2349E-01
  2.801     0.2377E-01
  2.807     0.3267E-02
  2.812     0.7079
  2.818     0.8937
  2.823     0.4810
  2.829     0.5314
  2.830     0.1214
  2.835     0.1725
  2.840     0.5937E-01
  2.843     0.1068E-01
  2.848     0.2591E-01
  2.852     0.4317
  2.861      1.651
  2.874     0.9598
  2.881      1.445
  2.886      2.586
  2.888      2.775
  2.892      3.017
  2.898      1.322
  2.904     0.8545
  2.905     0.5543
  2.911     0.4975E-01
  2.919     0.1347
  2.925     0.1697E-01
  2.935     0.4225
  2.945      1.614
  2.955      1.061
  2.961     0.2383E-01
  2.968     0.2574E-01
  2.977     0.1009E-01
  2.984     0.2419E-01
  2.992     0.8477E-01
  2.999     0.1003
  3.002     0.3434
  3.007     0.5033
  3.010     0.7191
  3.011     0.8539
  3.017      1.095
  3.021     0.9008
  3.025     0.6801
  3.033     0.4016
  3.047     0.4527E-01
  3.052     0.5952E-01
  3.056     0.5675E-01
  3.063     0.7846E-01
  3.067     0.3753
  3.071     0.2901
  3.077     0.4494
  3.084     0.2260
  3.090     0.5770E-01
  3.092     0.1894E-01
  3.097     0.3018E-01
  3.103     0.3339E-01
  3.109     0.3108E-01
  3.113     0.2871E-01
  3.116     0.2347E-01
  3.124     0.2681E-01
  3.130     0.2996
  3.140     0.5916
  3.150      2.300
  3.153      2.680
  3.161      1.120
  3.165     0.4360
  3.170     0.6777
  3.177      1.299
  3.185     0.3112
  3.192     0.6123E-01
  3.201     0.1529E-03
  3.207     0.2508E-01
  3.215     0.3846E-01
  3.223     0.1745E-01
  3.232     0.1877E-01
  3.237     0.1077
  3.240     0.2962
  3.245      1.982
  3.252      3.476
  3.261      2.052
  3.264     0.9863
  3.276     0.3793E-02
  3.286     0.2337
  3.293      2.272
  3.304     0.5746
  3.304     0.2524E-01
  3.308     0.1921E-01
  3.312     0.3310E-01
  3.316     0.3617E-01
  3.320     0.3100E-01
  3.326     0.2604E-01
  3.336     0.4408
  3.343     0.7076
  3.344     0.9248
  3.346      1.060
  3.348      1.249
  3.356      3.805
  3.359      4.865
  3.365      4.997
  3.374      3.273
  3.381      2.151
  3.391      1.325
  3.403     0.6068
  3.411     0.9825
  3.414     0.5440
  3.419     0.5950
  3.422     0.6467
  3.429     0.6146
  3.436     0.6091
  3.437     0.4995
  3.440     0.3605
  3.448     0.2454
  3.452     0.1064
  3.454     0.1860
  3.462     0.4256
  3.469     0.3656
  3.480     0.2153E-01
  3.483     0.3807E-01
  3.486     0.4107E-01
  3.493     0.3883E-01
  3.496     0.3366E-01
  3.501     0.6837E-01
  3.511     0.6599
  3.518     0.7368
  3.530      2.444
  3.538     0.8305
  3.542     0.3447E-01
  3.544     0.4278E-01
  3.547     0.4578E-01
  3.553     0.4075E-01
  3.560     0.2496E-01
  3.568     0.9245E-01
  3.578     0.6404E-01
  3.586     0.3058E-01
  3.589     0.1083E-01
  3.593     0.1928E-01
  3.597     0.2235E-01
  3.602     0.1997E-01
  3.605     0.1752E-01
  3.613     0.3639
  3.622     0.4659
  3.631     0.6224
  3.642     0.3690
  3.651     0.8902E-01
  3.660     0.2719E-01
  3.667     0.1685E-01
  3.674     0.3985
  3.679     0.9398
  3.688     0.6605
  3.703      1.603
  3.710      2.306
  3.718      3.035
  3.722      3.332
ENDDATA            428
ENDSUBENT          450
SUBENT        D0325004   20050424   20050810                  D041
BIB                  7         12
REACTION   (9-F-19(A,P)10-NE-22,PAR,TTY/PY/DA)
SAMPLE     Thin targets were fabricated by evaporating strontium
           fluoride (SrF2) on thin self-supporting carbon foils.
DETECTOR   (NAICR) The gamma-ray excitation functions were
           measured by 7.5 cm diam. x 7.5 cm NaI crystal
           at 90. degr.
EN-SEC     (E-LVL,10-NE-22)
ERR-ANALYS (EN-ERR-DIG) Digitizing error
           (ERR-DIG) Digitizing error
COMMENT    The data on figure are given in Counts per 500 micro-
           Coulomb. The compiler multiplied data by 500.
STATUS     (CURVE)Curves from fig. 2 of the article
ENDBIB              12
COMMON               4          3
E-LVL      ANG        EN-ERR-DIG ERR-DIG
MEV        ADEG       MEV        PER-CENT
  1.27        90.         0.004     0.5
ENDCOMMON            3
DATA                 2        396
EN         DATA
MEV        PRD/MUC/SR
  1.504      255.1
  1.511      210.8
  1.521      150.0
  1.528      111.3
  1.537      273.5
  1.546      4.799
  1.552      179.5
  1.560      129.7
  1.568      79.96
  1.576      247.6
  1.585      409.8
  1.594      137.1
  1.603      299.2
  1.608      1576.
  1.610      472.5
  1.626      161.0
  1.635      323.2
  1.643      55.95
  1.651      441.1
  1.658      396.9
  1.665      135.2
  1.673      302.9
  1.682      247.6
  1.692      404.2
  1.700      571.9
  1.706      538.7
  1.714      489.0
  1.722      439.2
  1.732      160.9
  1.739      334.1
  1.749      490.8
  1.757      658.5
  1.764      179.3
  1.772      347.0
  1.780      297.3
  1.788      465.0
  1.797      192.2
  1.805      582.9
  1.813      315.7
  1.821      265.9
  1.829      433.6
  1.837      1036.
  1.843      127.7
  1.850      300.9
  1.859      251.1
  1.862      2186.
  1.869      3670.
  1.872      5828.
  1.877      9062.
  1.880      5995.
  1.886      3130.
  1.895      682.3
  1.901      2601.
  1.906      4965.
  1.912      7101.
  1.927      1353.
  1.930      684.2
  1.934      2179.
  1.937      1075.
  1.941      1053.
  1.947      579.1
  1.957      1171.
  1.959      2241.
  1.966      1550.
  1.968      228.9
  1.975      842.6
  1.983      140.5
  1.990      531.2
  1.995      1803.
  1.998      2656.
  2.002      6113.
  2.009      9989.
  2.014      2122.
  2.018      1230.
  2.022      549.6
  2.031      276.8
  2.038      1325.
  2.045      628.8
  2.054      356.0
  2.057      1862.
  2.062      1176.
  2.071      468.5
  2.077      6524.
  2.080      6720.
  2.085      1685.
  2.090      7752.
  2.090      9926.
  2.097     0.2381E+05
  2.104      6141.
  2.105      3955.
  2.108      2199.
  2.112      4134.
  2.118      6052.
  2.122      2333.
  2.128      332.0
  2.136      3985.
  2.143      243.6
  2.148      3695.
  2.153      182.8
  2.157      1677.
  2.163      4254.
  2.168      4438.
  2.169      1170.
  2.175     0.2181E+05
  2.176     0.1092E+05
  2.182     0.5353E+05
  2.191      5822.
  2.194     0.1234E+05
  2.199      988.0
  2.205      1384.
  2.211      4830.
  2.217      6096.
  2.223      3448.
  2.231      4051.
  2.233      1865.
  2.238      2267.
  2.241      728.2
  2.249      461.0
  2.255      204.8
  2.263      1683.
  2.271      328.2
  2.273      2921.
  2.282     0.1288E+05
  2.286      5018.
  2.293      190.0
  2.302      352.2
  2.309     0.8564E+05
  2.312     0.4115E+06
  2.315     0.7374E+06
  2.319     0.1565E+05
  2.320     0.5642E+06
  2.323     0.6382E+05
  2.335     -8902.
  2.343     0.3382E+05
  2.348     0.5206E+06
  2.352     0.1781E+07
  2.359     0.3752E+07
  2.365     0.1266E+07
  2.368     0.6006E+06
  2.376     0.3683E+06
  2.377     0.3698E+05
  2.384     0.8107E+05
  2.392     0.1380E+05
  2.398     0.2242E+06
  2.402     0.7137E+06
  2.407     0.2656E+06
  2.414     0.8060E+06
  2.416     0.4719E+06
  2.419     0.8287E+05
  2.423     0.2106E+05
  2.430     0.1015E+05
  2.437     0.5423E+05
  2.438     0.3278E+06
  2.445     0.2227E+08
  2.452     0.5260E+07
  2.456     0.1237E+07
  2.462     0.5124E+06
  2.463     0.7846E+06
  2.470     0.4451E+06
  2.472     0.8259E+06
  2.479     0.9814E+06
  2.485     0.9168E+06
  2.487     0.1299E+07
  2.492     0.1731E+07
  2.496     0.2110E+07
  2.497     0.2494E+07
  2.498     0.2932E+07
  2.504     0.7602E+07
  2.510     0.1783E+08
  2.517     0.9727E+07
  2.526     0.3000E+07
  2.532     0.5082E+07
  2.535     0.5463E+07
  2.536     0.4966E+07
  2.538     0.1991E+07
  2.539     0.1494E+07
  2.540     0.1217E+07
  2.543     0.1048E+07
  2.543     0.6068E+06
  2.551     0.6509E+06
  2.559     0.5837E+06
  2.565     0.7391E+06
  2.567     0.3514E+06
  2.575     0.4491E+06
  2.580     0.6059E+06
  2.584     0.7654E+06
  2.587     0.8700E+06
  2.592     0.9732E+06
  2.594     0.1245E+07
  2.596     0.1516E+07
  2.598     0.1788E+07
  2.601     0.2059E+07
  2.604     0.2220E+07
  2.604     0.2550E+07
  2.605     0.2989E+07
  2.609     0.3093E+07
  2.613     0.3196E+07
  2.617     0.3356E+07
  2.621     0.3626E+07
  2.622     0.4944E+07
  2.628     0.1148E+08
  2.635     0.7896E+07
  2.638     0.3158E+07
  2.641     0.2659E+07
  2.644     0.1994E+07
  2.648     0.1547E+07
  2.653     0.8240E+06
  2.660     0.1033E+07
  2.663     0.5891E+06
  2.669     0.7445E+06
  2.670     0.3032E+06
  2.675     0.4740E+06
  2.685     0.4525E+06
  2.693     0.4350E+06
  2.699     0.5310E+06
  2.706     0.9563E+06
  2.710     0.5076E+06
  2.716     0.8251E+06
  2.724     0.3441E+07
  2.727     0.1211E+08
  2.732     0.1956E+08
  2.736     0.2120E+08
  2.740     0.2163E+08
  2.745     0.1097E+08
  2.749     0.4705E+07
  2.749     0.5802E+07
  2.751     0.3821E+07
  2.753     0.2940E+07
  2.757     0.2274E+07
  2.765     0.2036E+07
  2.772     0.1582E+07
  2.781     0.1453E+07
  2.791     0.1541E+07
  2.796     0.2519E+07
  2.799     0.4047E+07
  2.803     0.5795E+07
  2.805     0.7108E+07
  2.810     0.8195E+07
  2.814     0.6540E+07
  2.820     0.5648E+07
  2.823     0.4984E+07
  2.828     0.4094E+07
  2.838     0.4624E+07
  2.839     0.8462E+07
  2.842     0.9444E+07
  2.845     0.9987E+07
  2.850     0.6683E+07
  2.853     0.3383E+07
  2.855     0.2719E+07
  2.861     0.4024E+07
  2.861     0.4902E+07
  2.864     0.6652E+07
  2.871     0.1136E+08
  2.873     0.1629E+08
  2.878     0.2001E+08
  2.885     0.1144E+08
  2.891     0.4947E+07
  2.894     0.3623E+07
  2.901     0.2512E+07
  2.909     0.1615E+07
  2.918     0.9386E+06
  2.926     0.1470E+07
  2.941     0.2534E+07
  2.946     0.3073E+07
  2.951     0.2732E+07
  2.958     0.1948E+07
  2.967     0.1821E+07
  2.976     0.2569E+07
  2.981     0.4094E+07
  2.990     0.2209E+07
  2.997     0.1864E+07
  2.999     0.2519E+07
  3.007     0.2174E+07
  3.016     0.1494E+07
  3.023     0.2734E+06
  3.031     0.2121E+07
  3.039     0.8966E+06
  3.047     0.4402E+06
  3.056     0.5304E+06
  3.064     0.5128E+06
  3.072     0.1485E+07
  3.079     0.2128E+07
  3.084     0.2226E+07
  3.089     0.1996E+07
  3.096     0.1871E+07
  3.104     0.3501E+07
  3.111     0.7107E+07
  3.116     0.1302E+08
  3.119     0.1390E+08
  3.119     0.1313E+08
  3.126     0.7953E+07
  3.134     0.4093E+07
  3.142     0.5394E+07
  3.144     0.6378E+07
  3.150     0.9219E+07
  3.157     0.1689E+08
  3.161     0.1600E+08
  3.162     0.1446E+08
  3.167     0.1094E+08
  3.174     0.8508E+07
  3.176     0.7626E+07
  3.177     0.7074E+07
  3.185     0.6400E+07
  3.188     0.6502E+07
  3.192     0.6714E+07
  3.196     0.6046E+07
  3.197     0.5495E+07
  3.200     0.4611E+07
  3.203     0.3835E+07
  3.207     0.3059E+07
  3.214     0.2605E+07
  3.217     0.3148E+07
  3.219     0.2484E+07
  3.224     0.2474E+07
  3.228     0.2574E+07
  3.233     0.2564E+07
  3.237     0.3322E+07
  3.241     0.4082E+07
  3.246     0.4182E+07
  3.250     0.4063E+07
  3.256     0.3612E+07
  3.261     0.3601E+07
  3.264     0.3046E+07
  3.268     0.3256E+07
  3.270     0.3581E+07
  3.275     0.4340E+07
  3.280     0.5645E+07
  3.287     0.1090E+08
  3.289     0.1199E+08
  3.294     0.1264E+08
  3.297     0.1329E+08
  3.303     0.1350E+08
  3.312     0.7992E+07
  3.319     0.4463E+07
  3.324     0.3576E+07
  3.328     0.3676E+07
  3.337     0.4644E+07
  3.343     0.6936E+07
  3.351     0.1548E+08
  3.357     0.2644E+08
  3.368     0.1643E+08
  3.375     0.1159E+08
  3.391     0.1342E+08
  3.396     0.1363E+08
  3.399     0.1362E+08
  3.406     0.1196E+08
  3.414     0.1216E+08
  3.421     0.1237E+08
  3.423     0.1181E+08
  3.428     0.1224E+08
  3.438     0.1014E+08
  3.442     0.1024E+08
  3.447     0.1055E+08
  3.453     0.1274E+08
  3.455     0.1767E+08
  3.461     0.3237E+08
  3.480     0.6642E+07
  3.482     0.5758E+07
  3.488     0.5088E+07
  3.494     0.1012E+08
  3.498     0.1121E+08
  3.499     0.1165E+08
  3.503     0.1219E+08
  3.509     0.1207E+08
  3.512     0.1173E+08
  3.516     0.1150E+08
  3.525     0.1247E+08
  3.533     0.1421E+08
  3.540     0.1474E+08
  3.543     0.1562E+08
  3.549     0.1999E+08
  3.558     0.1624E+08
  3.559     0.1492E+08
  3.566     0.1227E+08
  3.574     0.1280E+08
  3.582     0.1015E+08
  3.589     0.9700E+07
  3.605     0.1614E+08
  3.612     0.2611E+08
  3.619     0.3093E+08
  3.628     0.2399E+08
  3.636     0.1157E+08
  3.645     0.5078E+07
  3.658     0.3402E+07
  3.666     0.3387E+07
  3.672     0.3373E+07
  3.677     0.3364E+07
  3.683     0.3460E+07
  3.686     0.3015E+07
  3.689     0.2458E+07
  3.693     0.2121E+07
  3.696     0.1784E+07
  3.701     0.1775E+07
  3.705     0.1984E+07
  3.708     0.2088E+07
  3.712     0.1971E+07
ENDDATA            398
ENDSUBENT          419
SUBENT        D0325005   20050424   20050810                  D041
BIB                  7         19
REACTION   (9-F-19(A,P)10-NE-22,PAR,TTY/PY/DA)
SAMPLE     Thick targets of 40 keV thickness at Ealpha= 2.1 MeV
           evaporated onto 0.3 mm thick Cu backings were used
           for the capture reaction.
DETECTOR   (NAICR) The gamma-ray excitation functions were
           remeasured below Ealpha= 2.3 MeV by 12.5 cm diam. x
           12.5 cm NaI crystal on a thick target positioned at
           the center of a turntable. A 105 cm3 Ge(Li) detector
            (of 2.7 keV resolution at 1.33 MeV) measure the
           gamma-ray spectra. In the gamma-ray angular
           distribution measurement (at five angles) 10 cm diam.
           x 10 cm NaI and 25 cm3 Ge(Li) detectors were used
           moving and monitoring detectors, respectively.
EN-SEC     (E-LVL,10-NE-22)
ERR-ANALYS (EN-ERR-DIG) Digitizing error
           (ERR-DIG) Digitizing error
COMMENT    The data on figure are given in Counts per 500 micro-
           Coulomb. The compiler multiplied data by 500.
STATUS     (CURVE)Curves from fig. 2 of the article
ENDBIB              19
COMMON               4          3
E-LVL      ANG        EN-ERR-DIG ERR-DIG
MEV        ADEG       MEV        PER-CENT
  1.27        55.         0.004     0.5
ENDCOMMON            3
DATA                 2         96
EN         DATA
MEV        PRD/MUC/SR
  1.804     0.2807E+07
  1.809     0.1606E+07
  1.812     0.2696E+07
  1.820     0.2584E+07
  1.825     0.1382E+07
  1.830     0.2448E+07
  1.834     0.1828E+07
  1.839     0.2324E+07
  1.844     0.2262E+07
  1.848     0.3339E+07
  1.856     0.4367E+07
  1.861     0.4305E+07
  1.865     0.4243E+07
  1.870     0.4751E+07
  1.874     0.5828E+07
  1.883     0.8553E+07
  1.891     0.1244E+08
  1.901     0.1971E+08
  1.908     0.2816E+08
  1.918     0.3030E+08
  1.927     0.3588E+08
  1.933     0.4036E+08
  1.943     0.4194E+08
  1.950     0.4070E+08
  1.960     0.3656E+08
  1.969     0.3245E+08
  1.974     0.2496E+08
  1.980     0.1748E+08
  1.984     0.1229E+08
  1.987     0.9963E+07
  1.994     0.1045E+08
  1.997     0.1666E+08
  2.004     0.1886E+08
  2.008     0.2050E+08
  2.015     0.2040E+08
  2.022     0.1804E+08
  2.026     0.1627E+08
  2.032     0.1333E+08
  2.037     0.1042E+08
  2.041     0.8649E+07
  2.045     0.5751E+07
  2.048     0.4562E+07
  2.052     0.3372E+07
  2.057     0.3298E+07
  2.062     0.3793E+07
  2.070     0.3694E+07
  2.077     0.3595E+07
  2.081     0.4672E+07
  2.085     0.5193E+07
  2.091     0.9094E+07
  2.094     0.1305E+08
  2.096     0.1758E+08
  2.096     0.2214E+08
  2.100     0.4146E+08
  2.104     0.4369E+08
  2.109     0.4419E+08
  2.116     0.4353E+08
  2.120     0.4233E+08
  2.125     0.3999E+08
  2.130     0.3706E+08
  2.134     0.3187E+08
  2.138     0.2668E+08
  2.145     0.2090E+08
  2.149     0.1913E+08
  2.154     0.1506E+08
  2.162     0.1552E+08
  2.166     0.1661E+08
  2.170     0.1769E+08
  2.176     0.2103E+08
  2.179     0.2726E+08
  2.186     0.7790E+08
  2.190     0.1160E+09
  2.195     0.1473E+09
  2.199     0.1610E+09
  2.204     0.1649E+09
  2.210     0.1620E+09
  2.214     0.1545E+09
  2.220     0.1424E+09
  2.225     0.1235E+09
  2.230     0.1018E+09
  2.236     0.8577E+08
  2.241     0.7428E+08
  2.243     0.7027E+08
  2.247     0.6566E+08
  2.251     0.6218E+08
  2.253     0.5930E+08
  2.257     0.5583E+08
  2.261     0.5121E+08
  2.266     0.4659E+08
  2.271     0.4252E+08
  2.275     0.3904E+08
  2.282     0.3952E+08
  2.286     0.4174E+08
  2.289     0.4626E+08
  2.292     0.4851E+08
  2.295     0.5130E+08
ENDDATA             98
ENDSUBENT          126
SUBENT        D0325006   20050424   20050810                  D041
BIB                  7         12
REACTION   (9-F-19(A,G)11-NA-23,PAR,TTY/PY/DA)
SAMPLE     Thin targets were fabricated by evaporating strontium
           fluoride (SrF2) on thin self-supporting carbon foils.
DETECTOR   (NAICR) The gamma-ray excitation functions were
           measured by 7.5 cm diam. x 7.5 cm NaI crystal
           at 90. degr.
EN-SEC     (E-LVL,11-NA-23)
ERR-ANALYS (EN-ERR-DIG) Digitizing error
           (ERR-DIG) Digitizing error
COMMENT    The data on figure are given in Counts per 500 micro-
           Coulomb. The compiler multiplied data by 500.
STATUS     (CURVE)Curves from fig. 2 of the article
ENDBIB              12
COMMON               4          3
E-LVL      ANG        EN-ERR-DIG ERR-DIG
MEV        ADEG       MEV        PER-CENT
  1.27        90.         0.004     0.5
ENDCOMMON            3
DATA                 2        374
EN         DATA
MEV        PRD/MUC/SR
  1.495      871.3
  1.502      609.1
  1.511      1648.
  1.519      1163.
  1.528      453.7
  1.536      621.5
  1.543      359.3
  1.551      527.1
  1.554      1600.
  1.560      1343.
  1.561      248.3
  1.568      1946.
  1.575      2120.
  1.577      366.2
  1.585      98.40
  1.591      3550.
  1.593      701.8
  1.598      2416.
  1.599      202.7
  1.601      651.9
  1.607      3450.
  1.609      1696.
  1.618      769.8
  1.619      4902.
  1.624      2691.
  1.627      1150.
  1.628      485.3
  1.634      669.8
  1.640      3027.
  1.648      3195.
  1.651      1000.
  1.657      5323.
  1.659      732.2
  1.667      1336.
  1.673      1302.
  1.683      582.3
  1.698      1365.
  1.706      879.2
  1.709      1952.
  1.716      600.3
  1.721      3181.
  1.724      768.1
  1.732      718.2
  1.738      1550.
  1.747      1495.
  1.755      573.8
  1.757      3394.
  1.764      1390.
  1.769      1580.
  1.778      435.1
  1.780      2820.
  1.786      1474.
  1.788      368.5
  1.796      7953.
  1.803      715.2
  1.804      1799.
  1.810      1542.
  1.812      659.7
  1.821      604.2
  1.829      7312.
  1.830      1638.
  1.836      3565.
  1.842      912.1
  1.844      3515.
  1.851      1074.
  1.853      3677.
  1.859      1242.
  1.861     0.1104E+05
  1.869      1399.
  1.878      1561.
  1.884     0.1155E+05
  1.894     0.1040E+05
  1.900      5566.
  1.901      4466.
  1.909      6382.
  1.916      8516.
  1.917      1535.
  1.925      3451.
  1.932      6673.
  1.933      4272.
  1.939      6629.
  1.942      5088.
  1.950      1553.
  1.951      4379.
  1.957      1291.
  1.960      3452.
  1.965      1894.
  1.971      2509.
  1.974      1403.
  1.983      2436.
  1.991      861.8
  1.995      3018.
  1.998      6268.
  2.000      3420.
  2.004      3398.
  2.007      5559.
  2.013      7263.
  2.015      5291.
  2.022      1103.
  2.038      5365.
  2.046      3137.
  2.052     0.1051E+05
  2.053      5494.
  2.062      5438.
  2.064     0.1262E+05
  2.069      9750.
  2.077      9482.
  2.078     0.1928E+05
  2.086     0.1553E+05
  2.087      9203.
  2.094     0.1396E+05
  2.102      9327.
  2.104      3653.
  2.110     0.1059E+05
  2.112      5345.
  2.119      4212.
  2.127      3291.
  2.128      9601.
  2.136      3453.
  2.142     0.1235E+05
  2.144      6452.
  2.150      8379.
  2.153      5308.
  2.159      8541.
  2.166      7626.
  2.168      1511.
  2.176      5169.
  2.183      2075.
  2.185      7291.
  2.191      4639.
  2.192      1579.
  2.200      4148.
  2.206      5634.
  2.210      1473.
  2.216      5355.
  2.221      3797.
  2.224      2038.
  2.231      5701.
  2.233      2418.
  2.238      5439.
  2.241      1714.
  2.247      3418.
  2.255      2502.
  2.259      5312.
  2.261      7473.
  2.265      2654.
  2.269      1760.
  2.272      5010.
  2.280      3654.
  2.282      6474.
  2.286      4922.
  2.289      8608.
  2.295     0.1054E+05
  2.299      6369.
  2.306     0.1243E+05
  2.313     0.1544E+05
  2.318      8430.
  2.322     0.1451E+05
  2.329      7928.
  2.335     0.1094E+05
  2.337      8967.
  2.346     0.1131E+05
  2.351      7353.
  2.353     0.1541E+05
  2.358     0.2061E+05
  2.362     0.1818E+05
  2.369     0.1444E+05
  2.375      8516.
  2.377     0.1286E+05
  2.383     0.1740E+05
  2.387     0.2043E+05
  2.392     0.1669E+05
  2.400     0.1316E+05
  2.403     0.1466E+05
  2.409     0.2596E+05
  2.415     0.2243E+05
  2.417     0.1436E+05
  2.422      5390.
  2.425      9512.
  2.431     0.1449E+05
  2.440     0.1662E+05
  2.440     0.2250E+05
  2.448     0.4860E+05
  2.456     0.2458E+05
  2.457     0.2043E+05
  2.462     0.1124E+05
  2.464     0.1319E+05
  2.474     0.1379E+05
  2.481      8732.
  2.487     0.1044E+05
  2.490     0.1303E+05
  2.497     0.1059E+05
  2.504      9894.
  2.510     0.1444E+05
  2.516     0.2573E+05
  2.522     0.1872E+05
  2.529     0.1585E+05
  2.532     0.1191E+05
  2.537     0.1427E+05
  2.538     0.1666E+05
  2.545     0.1466E+05
  2.552     0.1592E+05
  2.554     0.1351E+05
  2.562     0.1172E+05
  2.568     0.1059E+05
  2.570      7747.
  2.577      8792.
  2.580     0.1074E+05
  2.587     0.3053E+05
  2.591     0.3006E+05
  2.593     0.2460E+05
  2.601     0.1366E+05
  2.608     0.1754E+05
  2.611     0.1577E+05
  2.618     0.2249E+05
  2.624     0.1787E+05
  2.626     0.2353E+05
  2.632     0.6032E+05
  2.640     0.4306E+05
  2.641     0.1690E+05
  2.649     0.1380E+05
  2.650     0.3188E+05
  2.658     0.1679E+05
  2.664     0.1196E+05
  2.667      9761.
  2.673     0.1212E+05
  2.675     0.1407E+05
  2.682     0.1664E+05
  2.690     0.1093E+05
  2.698     0.1568E+05
  2.706     0.1105E+05
  2.713     0.1166E+05
  2.716     0.1448E+05
  2.721     0.1205E+05
  2.722     0.1574E+05
  2.728     0.1374E+05
  2.730     0.1853E+05
  2.737     0.2763E+05
  2.745     0.2410E+05
  2.751     0.1622E+05
  2.755     0.1292E+05
  2.756     0.1030E+05
  2.764     0.1091E+05
  2.770      8039.
  2.780      8632.
  2.787      7498.
  2.796      7878.
  2.802     0.1154E+05
  2.804     0.1437E+05
  2.810     0.1651E+05
  2.819     0.1885E+05
  2.820     0.1143E+05
  2.827     0.2752E+05
  2.832     0.1550E+05
  2.835     0.1178E+05
  2.840     0.1458E+05
  2.847     0.3415E+05
  2.858     0.2384E+05
  2.865     0.2009E+05
  2.866     0.1878E+05
  2.873     0.2266E+05
  2.880     0.2894E+05
  2.883     0.3110E+05
  2.891     0.3518E+05
  2.896     0.1707E+05
  2.900     0.1268E+05
  2.907      8720.
  2.915     0.1259E+05
  2.923     0.1080E+05
  2.930     0.1228E+05
  2.946     0.1065E+05
  2.954     0.1191E+05
  2.962      9900.
  2.971      9627.
  2.980      6087.
  2.985     0.1129E+05
  2.988     0.1366E+05
  2.994     0.2060E+05
  3.003      9651.
  3.010     0.1266E+05
  3.019     0.1348E+05
  3.026      3620.
  3.035      7708.
  3.042     0.1159E+05
  3.048     0.1635E+05
  3.051     0.1328E+05
  3.056     0.1455E+05
  3.060     0.1191E+05
  3.062     0.1124E+05
  3.063     0.1058E+05
  3.066      8609.
  3.074     0.1139E+05
  3.082     0.1461E+05
  3.091     0.1369E+05
  3.097     0.1365E+05
  3.106      9666.
  3.114      7873.
  3.121     0.1067E+05
  3.129     0.1977E+05
  3.137     0.1340E+05
  3.146     0.1857E+05
  3.153     0.2790E+05
  3.162     0.3591E+05
  3.166     0.2542E+05
  3.170     0.1472E+05
  3.178     0.1293E+05
  3.185     0.2117E+05
  3.187     0.1396E+05
  3.202     0.1932E+05
  3.210     0.1556E+05
  3.218     0.1355E+05
  3.225     0.2005E+05
  3.234     0.1716E+05
  3.241     0.1712E+05
  3.242     0.1994E+05
  3.250     0.2098E+05
  3.258     0.2202E+05
  3.264     0.1762E+05
  3.265     0.2133E+05
  3.273     0.1736E+05
  3.281     0.1840E+05
  3.289     0.4167E+05
  3.299     0.3507E+05
  3.306     0.2826E+05
  3.314     0.2342E+05
  3.321     0.1662E+05
  3.328     0.1636E+05
  3.337     0.2197E+05
  3.345     0.2585E+05
  3.353     0.2732E+05
  3.361     0.3947E+05
  3.369     0.5316E+05
  3.377     0.1954E+05
  3.389     0.2274E+05
  3.393     0.2402E+05
  3.399     0.2769E+05
  3.408     0.3286E+05
  3.416     0.2322E+05
  3.424     0.1621E+05
  3.431     0.1376E+05
  3.440     0.1872E+05
  3.447     0.1976E+05
  3.452     0.1516E+05
  3.458     0.1600E+05
  3.460     0.2252E+05
  3.463     0.2599E+05
  3.471     0.4381E+05
  3.478     0.2045E+05
  3.486     0.1429E+05
  3.495     0.1882E+05
  3.503     0.1898E+05
  3.517     0.1606E+05
  3.525     0.2386E+05
  3.541     0.3378E+05
  3.551     0.3852E+05
  3.558     0.1908E+05
  3.565     0.1882E+05
  3.573     0.2073E+05
  3.581     0.1720E+05
  3.588     0.2173E+05
  3.605     0.2991E+05
  3.612     0.4032E+05
  3.620     0.5139E+05
  3.628     0.4132E+05
  3.643     0.2575E+05
  3.657     0.2326E+05
  3.664     0.1908E+05
  3.674     0.2991E+05
  3.679     0.2901E+05
  3.688     0.3027E+05
  3.695     0.3371E+05
  3.703     0.2974E+05
  3.711     0.2925E+05
  3.718     0.3945E+05
ENDDATA            376
ENDSUBENT          397
SUBENT        D0325007   20050424   20050810                  D041
BIB                  7         19
REACTION   (9-F-19(A,G)11-NA-23,PAR,TTY/PY/DA)
SAMPLE     Thick targets of 40 keV thickness at Ealpha= 2.1 MeV
           evaporated onto 0.3 mm thick Cu backings were used
           for the capture reaction.
DETECTOR   (NAICR) The gamma-ray excitation functions were
           remeasured below Ealpha= 2.3 MeV by 12.5 cm diam. x
           12.5 cm NaI crystal on a thick target positioned at
           the center of a turntable. A 105 cm3 Ge(Li) detector
            (of 2.7 keV resolution at 1.33 MeV) measure the
           gamma-ray spectra. In the gamma-ray angular
           distribution measurement (at five angles) 10 cm diam.
           x 10 cm NaI and 25 cm3 Ge(Li) detectors were used
           moving and monitoring detectors, respectively.
ERR-ANALYS (EN-ERR-DIG) Digitizing error
           (ERR-DIG) Digitizing error
EN-SEC     (E-LVL,11-NA-23)
COMMENT    The data on figure are given in Counts per 500 micro-
           Coulomb. The compiler multiplied data by 500.
STATUS     (CURVE)Curves from fig. 2 of the article
ENDBIB              19
COMMON               4          3
E-LVL      ANG        EN-ERR-DIG ERR-DIG
MEV        ADEG       MEV        PER-CENT
  1.27        55.         0.004     0.5
ENDCOMMON            3
DATA                 2        105
EN         DATA
MEV        PRD/MUC/SR
  1.808      1506.
  1.814      2015.
  1.818      863.6
  1.823      2503.
  1.827      1073.
  1.834      1024.
  1.837      1554.
  1.842      1512.
  1.847      1756.
  1.849      3138.
  1.852      1714.
  1.858      1672.
  1.864      1623.
  1.868      3262.
  1.871      2125.
  1.878      1231.
  1.885      1733.
  1.892      1677.
  1.900      3296.
  1.902      4957.
  1.911      4608.
  1.919      7057.
  1.928      7824.
  1.933     0.1057E+05
  1.946      7126.
  1.954      9010.
  1.963      8660.
  1.964      5304.
  1.971      8318.
  1.982     0.1019E+05
  1.992      3411.
  1.998      5595.
  1.998     0.1621E+05
  2.002     0.2176E+05
  2.007     0.1949E+05
  2.013     0.2084E+05
  2.018      9349.
  2.021     0.1463E+05
  2.024     0.1796E+05
  2.030     0.1903E+05
  2.034     0.1341E+05
  2.040     0.1811E+05
  2.045      8574.
  2.050      9655.
  2.052      2376.
  2.059      8748.
  2.063      5084.
  2.068      6996.
  2.075      7226.
  2.081     0.1416E+05
  2.082     0.3733E+05
  2.091     0.7693E+05
  2.094     0.9450E+05
  2.099     0.8636E+05
  2.103     0.9359E+05
  2.106     0.8882E+05
  2.109     0.8405E+05
  2.115     0.5467E+05
  2.116     0.5047E+05
  2.123     0.4427E+05
  2.129     0.3389E+05
  2.132     0.3080E+05
  2.137     0.2237E+05
  2.142     0.1927E+05
  2.148     0.1195E+05
  2.160      9909.
  2.162      8492.
  2.168      9281.
  2.180     0.1590E+05
  2.185     0.1892E+05
  2.190     0.1861E+05
  2.193     0.1970E+05
  2.194     0.3338E+05
  2.199     0.3139E+05
  2.202     0.3583E+05
  2.203     0.3387E+05
  2.203     0.3806E+05
  2.206     0.4027E+05
  2.208     0.4193E+05
  2.211     0.4246E+05
  2.215     0.4188E+05
  2.217     0.4186E+05
  2.220     0.2954E+05
  2.224     0.3231E+05
  2.224     0.3007E+05
  2.228     0.2529E+05
  2.232     0.2694E+05
  2.236     0.2412E+05
  2.238     0.2270E+05
  2.241     0.2966E+05
  2.245     0.3214E+05
  2.251     0.3265E+05
  2.255     0.2871E+05
  2.257     0.2590E+05
  2.264     0.2277E+05
  2.268     0.1688E+05
  2.270     0.1993E+05
  2.274     0.2242E+05
  2.278     0.2322E+05
  2.280     0.1734E+05
  2.283     0.2067E+05
  2.287     0.1952E+05
  2.291     0.2173E+05
  2.293     0.2310E+05
  2.299     0.2390E+05
ENDDATA            107
ENDSUBENT          135
SUBENT        D0325008   20050424   20050810                  D041
BIB                  3          5
REACTION  1(9-F-19(A,0),,EN)
          2(9-F-19(A,EL),,WID)
ERR-ANALYS1(DATA-ERR) The error including uncertainty of calibr.
          2(DATA-ERR) The uncertainty in the width estim. 30-50%
STATUS     (TABLE)Table 1 from the article
ENDBIB               5
COMMON               2          3
DATA-ERR  1DATA-ERR  2
MEV        PER-CENT
   0.005     50.
ENDCOMMON            3
DATA                 2         16
DATA      1DATA      2
MEV        KEV
  2.513        6.6
  2.632       11.
  2.737       12.
  2.813       11.
  2.846        3.4
  2.873       17.
  2.887        5.5
  3.126        9.
  3.151        6.8
  3.156       12.
  3.250       11.
  3.302        6.3
  3.359       12.
  3.467       23.
  3.567       15.
  3.621       22.
ENDDATA             18
ENDSUBENT           32
ENDENTRY             8
