ENTRY            D0373   20060217   20060601                  D045
SUBENT        D0373001   20060217   20060601                  D045
BIB                 11         26
TITLE      Measurement and interpretation of alpha-58Ni
           scattering from 27 to 49 MeV
AUTHOR     (U.Kiebele,E.Baumgartner,H.P.Gubler,H.O.Meyer,
           G.R.Plattner,I.Sick)
INSTITUTE  (2SWTBAS)
REFERENCE  (J,HPA,51,726,1978)
FACILITY   (CYCLO)  the injector cyclotron of SIN.
METHOD     (EDE) The beam current was integrated using a 'split'
           Faraday cup divided into four sectors.
SAMPLE     Target was a rolled nickd foil, with an isotopic
           purity of 99.96% 68Ni. The target thickness of
           1.08 mg/cm2 contributed at most 350 keV to the energy
           resolution angles.
DETECTOR   (TELES,SIBAR,PS) silicon surface barrier detectors
           and position-sensitive ion-implanted detectors. A
           single detector at 159.degr. provided a control
           meusurement of accumulated charge times target
           thickness.
ERR-ANALYS (ANG-ERR-D) Digitizing error
           (ERR-DIG) Digitizing error
           (ERR-S) The error bars contain the statistical error
           only, and they are not shown if smaller than 10%.
           (DATA-ERR) The absolute normalization of the cross
           sections has been estimated to be accurate to +-5 %.
STATUS     (CURVE)Curves from the article
HISTORY    (20060217C) SD
ENDBIB              26
COMMON               3          3
ANG-ERR-D  ERR-DIG    DATA-ERR
ADEG       PER-CENT   PER-CENT
  0.7        0.3        5.
ENDCOMMON            3
ENDSUBENT           33
SUBENT        D0373002   20060217   20060601                  D045
BIB                  2          2
REACTION   (28-NI-58(A,EL)28-NI-58,,DA,,RTH)
STATUS     (CURVE) Data digitized from the fig.2,3
ENDBIB               2
NOCOMMON             0          0
DATA                 4        673
EN         ANG-CM     DATA-CM    ERR-S
MEV        ADEG       NO-DIM     NO-DIM
 37.000     28.991    0.11014
 37.000     30.180    0.18977
 37.000     31.400    0.18647
 37.000     32.646    0.11862
 37.000     33.697    0.64100E-01
 37.000     34.539    0.39319E-01
 37.000     35.357    0.35927E-01
 37.000     36.946    0.67781E-01
 37.000     37.942    0.95674E-01
 37.000     38.530    0.14000
 37.000     39.539    0.15900
 37.000     40.757    0.16200
 37.000     42.191    0.13525
 37.000     43.223    0.10126
 37.000     44.275    0.54721E-01
 37.000     45.544    0.23368E-01
 37.000     46.430    0.65775E-02
 37.000     47.427    0.91175E-02
 37.000     48.588    0.25159E-01
 37.000     49.769    0.49209E-01
 37.000     50.964    0.74686E-01
 37.000     51.973    0.84823E-01
 37.000     53.190    0.89611E-01
 37.000     54.416    0.78982E-01
 37.000     55.452    0.56008E-01
 37.000     56.499    0.33135E-01
 37.000     57.344    0.18904E-01
 37.000     58.242    0.43597E-02
 37.000     59.509    0.18958E-02
 37.000     60.454    0.65010E-02
 37.000     61.610    0.19640E-01
 37.000     62.591    0.36378E-01
 37.000     63.593    0.46060E-01
 37.000     64.398    0.53263E-01
 37.000     65.616    0.54267E-01
 37.000     66.845    0.46129E-01
 37.000     67.869    0.40654E-01
 37.000     69.114    0.25862E-01
 37.000     69.958    0.15299E-01
 37.000     71.009    0.82673E-02
 37.000     72.250    0.57578E-02
 37.000     73.241    0.88977E-02
 37.000     74.225    0.15609E-01
 37.000     75.012    0.24119E-01
 37.000     76.214    0.32836E-01
 37.000     76.810    0.41567E-01
 37.000     77.415    0.45520E-01
 37.000     78.227    0.46370E-01
 37.000     79.860    0.40878E-01
 37.000     81.291    0.35386E-01
 37.000     82.326    0.25552E-01
 37.000     83.158    0.18449E-01
 37.000     84.391    0.14586E-01
 37.000     85.219    0.11119E-01
 37.000     86.039    0.99778E-02
 37.000     87.048    0.11332E-01
 37.000     88.048    0.14877E-01
 37.000     89.049    0.19532E-01
 37.000     89.648    0.23417E-01
 37.000     90.862    0.25652E-01
 37.000     92.077    0.27595E-01
 37.000     93.710    0.24771E-01
 37.000     95.140    0.21835E-01
 37.000     96.164    0.18898E-01
 37.000     96.787    0.14937E-01
 37.000     97.820    0.11184E-01
 37.000     98.855    0.80755E-02
 37.000     99.678    0.68632E-02
 37.000     100.70    0.61592E-02
 37.000     101.91    0.69958E-02
 37.000     102.92    0.80906E-02
 37.000     103.72    0.10430E-01
 37.000     104.73    0.11846E-01
 37.000     105.94    0.13213E-01
 37.000     106.96    0.13461E-01
 37.000     108.18    0.13227E-01
 37.000     109.20    0.11657E-01
 37.000     110.43    0.90507E-02
 37.000     111.67    0.67771E-02
 37.000     112.90    0.52619E-02
 37.000     113.53    0.37988E-02
 37.000     114.78    0.22073E-02
 37.000     115.99    0.27448E-02
 37.000     118.62    0.34779E-02
 37.000     120.83    0.50017E-02
 37.000     123.47    0.53841E-02
 37.000     125.30    0.50119E-02
 37.000     126.94    0.43390E-02
 37.000     127.76    0.40372E-02
 37.000     128.38    0.30774E-02
 37.000     128.80    0.25680E-02
 37.000     129.63    0.18880E-02
 37.000     130.45    0.17888E-02
 37.000     130.66    0.14926E-02
 37.000     131.89    0.12919E-02
 37.000     132.70    0.12021E-02
 37.000     133.30    0.14153E-02
 37.000     134.31    0.16667E-02
 37.000     134.71    0.18924E-02
 37.000     135.72    0.22286E-02
 37.000     137.33    0.25781E-02
 37.000     139.98    0.25812E-02
 37.000     141.39    0.28277E-02
 37.000     142.41    0.26313E-02
 37.000     143.44    0.24046E-02
 37.000     144.86    0.22379E-02
 37.000     145.68    0.20082E-02
 37.000     146.30    0.17378E-02
 37.000     146.92    0.14502E-02
 37.000     147.75    0.10283E-02
 37.000     148.18    0.76968E-03
 37.000     148.79    0.69060E-03
 37.000     149.41    0.61965E-03
 37.000     150.21    0.71655E-03
 37.000     151.21    0.92384E-03
 37.000     151.81    0.12348E-02
 37.000     152.40    0.15917E-02
 37.000     153.40    0.23296E-02
 37.000     154.00    0.26453E-02
 37.000     155.01    0.30593E-02
 37.000     156.02    0.32317E-02
 37.000     157.04    0.31181E-02
 37.000     158.27    0.26029E-02
 37.000     160.12    0.19146E-02
 37.000     162.57    0.14874E-02
 37.000     163.37    0.17200E-02
 37.000     164.18    0.20623E-02
 37.000     164.77    0.26584E-02
 37.000     166.18    0.33665E-02
 37.000     167.20    0.30764E-02
 37.000     168.22    0.28113E-02
 37.000     169.06    0.19934E-02
 37.000     169.48    0.15754E-02
 37.000     169.91    0.10578E-02
 37.000     170.54    0.63712E-030.11282E-03
 37.000     171.37    0.52220E-030.70410E-04
 37.000     171.95    0.82158E-03
 37.000     172.93    0.15496E-02
 43.000     28.370    0.30450
 43.000     29.403    0.20423
 43.000     30.454    0.91834E-01
 43.000     31.713    0.37032E-01
 43.000     32.534    0.30887E-01
 43.000     33.926    0.57326E-01
 43.000     34.716    0.91978E-01
 43.000     35.912    0.14760
 43.000     36.918    0.18032
 43.000     37.730    0.17713
 43.000     39.166    0.12778
 43.000     40.203    0.78256E-01
 43.000     41.255    0.34556E-01
 43.000     41.926    0.88448E-02
 43.000     43.149    0.77918E-02
 43.000     44.509    0.29377E-01
 43.000     45.493    0.57569E-01
 43.000     46.897    0.82844E-01
 43.000     47.900    0.10689
 43.000     48.718    0.94145E-01
 43.000     49.946    0.74369E-01
 43.000     50.978    0.50794E-01
 43.000     52.029    0.22841E-01
 43.000     53.288    0.93793E-02
 43.000     54.318    0.66432E-02
 43.000     55.493    0.16791E-01
 43.000     56.270    0.36032E-01
 43.000     57.471    0.51848E-01
 43.000     58.269    0.70638E-01
 43.000     59.685    0.78816E-01
 43.000     61.108    0.73328E-01
 43.000     61.523    0.61152E-01
 43.000     62.752    0.47436E-01
 43.000     63.583    0.31240E-01
 43.000     64.819    0.20577E-01
 43.000     65.847    0.15391E-01
 43.000     66.857    0.17170E-01
 43.000     67.857    0.23824E-01
 43.000     69.059    0.33057E-01
 43.000     69.860    0.42647E-01
 43.000     70.462    0.49331E-01
 43.000     71.879    0.53078E-01
 43.000     72.899    0.46755E-01
 43.000     73.918    0.42710E-01
 43.000     74.946    0.31946E-01
 43.000     76.177    0.23896E-01
 43.000     77.207    0.17236E-01
 43.000     77.832    0.11986E-01
 43.000     79.051    0.11563E-01
 43.000     79.860    0.12439E-01
 43.000     80.865    0.15476E-01
 43.000     82.274    0.19610E-01
 43.000     83.284    0.21877E-01
 43.000     84.905    0.23117E-01
 43.000     86.129    0.19998E-01
 43.000     86.947    0.17614E-01
 43.000     87.371    0.11811E-01
 43.000     87.986    0.10403E-01
 43.000     89.211    0.86779E-02
 43.000     89.838    0.59261E-02
 43.000     90.655    0.52198E-02
 43.000     91.867    0.59305E-02
 43.000     93.075    0.73790E-02
 43.000     94.084    0.83831E-02
 43.000     95.296    0.93530E-02
 43.000     96.103    0.10434E-01
 43.000     97.324    0.97064E-02
 43.000     98.537    0.10829E-01
 43.000     98.948    0.95373E-02
 43.000     100.57    0.88739E-02
 43.000     101.59    0.81061E-02
 43.000     102.82    0.65207E-02
 43.000     102.84    0.47015E-02
 43.000     103.64    0.51502E-02
 43.000     104.66    0.45367E-02
 43.000     106.08    0.48813E-02
 43.000     106.48    0.55443E-02
 43.000     107.28    0.71527E-02
 43.000     108.50    0.67762E-02
 43.000     109.71    0.76988E-02
 43.000     111.13    0.85902E-02
 43.000     112.34    0.97599E-02
 43.000     113.77    0.84437E-02
 43.000     114.59    0.74373E-02
 43.000     115.81    0.69189E-02
 43.000     116.63    0.58767E-02
 43.000     117.25    0.43949E-02
 43.000     119.07    0.52743E-02
 43.000     120.48    0.55728E-02
 43.000     121.70    0.62175E-02
 43.000     123.11    0.69374E-02
 43.000     124.33    0.63377E-02
 43.000     125.34    0.72001E-02
 43.000     127.17    0.70751E-02
 43.000     129.00    0.69524E-02
 43.000     130.42    0.64683E-02
 43.000     131.65    0.55956E-02
 43.000     133.27    0.51126E-02
 43.000     134.49    0.48435E-02
 43.000     135.32    0.37566E-02
 43.000     135.93    0.32490E-02
 43.000     137.95    0.41179E-02
 43.000     139.77    0.46796E-02
 43.000     141.19    0.54147E-02
 43.000     142.61    0.49470E-02
 43.000     144.23    0.54207E-02
 43.000     145.25    0.48626E-02
 43.000     146.48    0.39115E-02
 43.000     147.29    0.33833E-02
 43.000     148.71    0.35103E-02
 43.000     149.12    0.31482E-02
 43.000     150.14    0.30369E-02
 43.000     150.75    0.27238E-02
 43.000     152.38    0.28781E-02
 43.000     154.81    0.27779E-02
 43.000     156.03    0.27291E-02
 43.000     157.86    0.24937E-02
 43.000     160.29    0.26841E-02
 43.000     162.32    0.26377E-02
 43.000     163.34    0.27866E-02
 43.000     164.96    0.26887E-02
 43.000     166.18    0.24563E-02
 43.000     167.20    0.23268E-02
 43.000     168.43    0.16481E-02
 43.000     169.25    0.14256E-02
 43.000     170.29    0.92199E-03
 43.000     171.11    0.76901E-03
 43.000     171.94    0.52520E-030.13958E-03
 43.000     173.14    0.66545E-03
 44.000     117.59    0.58788E-02
 44.000     118.63    0.63475E-02
 44.000     119.57    0.67243E-02
 44.000     120.40    0.78308E-02
 44.000     121.55    0.81414E-02
 44.000     122.48    0.87897E-02
 44.000     123.32    0.80009E-02
 44.000     124.36    0.86388E-02
 44.000     125.10    0.83227E-02
 44.000     126.24    0.86528E-02
 44.000     127.29    0.78777E-02
 44.000     128.13    0.73079E-02
 44.000     129.07    0.64052E-02
 44.000     129.91    0.65325E-02
 44.000     130.96    0.57261E-02
 44.000     132.00    0.52131E-02
 44.000     133.15    0.52183E-02
 44.000     133.99    0.43206E-02
 44.000     134.82    0.54278E-02
 44.000     135.87    0.50361E-02
 44.000     136.92    0.43315E-02
 44.000     137.85    0.53399E-02
 44.000     138.68    0.63375E-02
 44.000     139.62    0.56610E-02
 44.000     140.67    0.52524E-02
 44.000     141.60    0.69851E-02
 44.000     142.55    0.52610E-02
 44.000     143.49    0.53660E-02
 44.000     144.33    0.49779E-02
 44.000     145.27    0.45316E-02
 44.000     147.37    0.24755E-02
 44.000     148.21    0.22964E-02
 44.000     149.04    0.25748E-02
 44.000     149.67    0.24339E-02
 44.000     150.40    0.23008E-02
 44.000     151.24    0.23914E-02
 44.000     152.07    0.28382E-02
 44.000     152.90    0.29500E-02
 44.000     153.64    0.24422E-02
 44.000     154.37    0.27905E-02
 44.000     155.10    0.24921E-02
 44.000     155.93    0.27943E-02
 44.000     156.77    0.23578E-02
 44.000     157.61    0.24507E-02
 44.000     158.34    0.22305E-02
 44.000     160.43    0.24105E-02
 44.000     163.16    0.11322E-020.17754E-03
 44.000     163.99    0.15055E-02
 44.000     164.52    0.11773E-020.18461E-03
 44.000     165.35    0.12953E-020.16092E-03
 44.000     165.88    0.13206E-020.14194E-03
 44.000     166.40    0.13723E-020.14749E-03
 44.000     167.45    0.11581E-020.21784E-03
 44.000     168.08    0.85568E-030.14772E-03
 44.000     168.82    0.73577E-030.18206E-03
 44.000     169.54    0.10161E-020.20668E-03
 45.000     117.71    0.81491E-02
 45.000     118.76    0.78483E-02
 45.000     119.70    0.86445E-02
 45.000     120.43    0.77086E-02
 45.000     121.48    0.84913E-02
 45.000     122.52    0.10698E-01
 45.000     123.25    0.86672E-02
 45.000     124.51    0.95487E-02
 45.000     125.35    0.91948E-02
 45.000     126.29    0.78919E-02
 45.000     127.34    0.69054E-02
 45.000     128.39    0.61592E-02
 45.000     129.22    0.60459E-02
 45.000     130.06    0.54962E-02
 45.000     131.11    0.57156E-02
 45.000     132.26    0.47217E-02
 45.000     132.99    0.51011E-02
 45.000     133.52    0.54054E-02
 45.000     133.94    0.51047E-02
 45.000     134.88    0.55157E-02
 45.000     135.82    0.58465E-02
 45.000     136.86    0.53158E-02
 45.000     137.80    0.56347E-02
 45.000     138.64    0.57473E-02
 45.000     139.58    0.51259E-02
 45.000     140.42    0.57549E-02
 45.000     141.57    0.48463E-02
 45.000     142.51    0.54413E-02
 45.000     143.45    0.52401E-02
 45.000     144.61    0.40091E-02
 45.000     145.35    0.30663E-02
 45.000     147.66    0.18297E-02
 45.000     148.18    0.19764E-02
 45.000     148.91    0.19399E-02
 45.000     149.54    0.20557E-02
 45.000     150.58    0.23083E-02
 45.000     151.42    0.24940E-02
 45.000     152.05    0.22238E-02
 45.000     152.67    0.24963E-02
 45.000     153.30    0.23578E-02
 45.000     153.61    0.26461E-02
 45.000     154.45    0.25974E-02
 45.000     155.19    0.24534E-02
 45.000     155.92    0.26002E-02
 45.000     156.65    0.20273E-02
 45.000     157.49    0.19150E-02
 45.000     158.23    0.16753E-02
 45.000     160.42    0.18118E-02
 45.000     162.53    0.10604E-020.15233E-03
 45.000     162.74    0.94522E-030.10279E-03
 45.000     163.16    0.87566E-030.15293E-03
 45.000     163.79    0.82706E-030.15737E-03
 45.000     164.73    0.78134E-030.11123E-03
 45.000     165.35    0.89406E-030.97223E-04
 45.000     166.09    0.91188E-030.99223E-04
 45.000     166.51    0.84477E-030.91921E-04
 45.000     166.82    0.73877E-030.10517E-03
 45.000     167.34    0.96680E-030.88440E-04
 45.000     168.08    0.69809E-030.14357E-03
 45.000     168.81    0.76879E-030.10940E-03
 45.000     169.44    0.64716E-030.12314E-03
 45.000     170.18    0.48557E-030.13517E-03
 45.000     170.90    0.76998E-030.13443E-03
 46.000     117.65    0.91468E-02
 46.000     118.69    0.10065E-01
 46.000     119.53    0.95157E-02
 46.000     120.36    0.10080E-01
 46.000     121.41    0.10089E-01
 46.000     122.35    0.90121E-02
 46.000     123.39    0.10300E-01
 46.000     124.44    0.88591E-02
 46.000     125.38    0.83764E-02
 46.000     126.22    0.82251E-02
 46.000     127.27    0.70746E-02
 46.000     128.32    0.62014E-02
 46.000     129.16    0.47598E-02
 46.000     129.99    0.50419E-02
 46.000     130.93    0.52410E-02
 46.000     131.97    0.61045E-02
 46.000     133.02    0.59954E-02
 46.000     133.96    0.61151E-02
 46.000     134.80    0.57814E-02
 46.000     135.84    0.61251E-02
 46.000     136.78    0.56827E-02
 46.000     137.83    0.52727E-02
 46.000     138.56    0.60244E-02
 46.000     139.61    0.46249E-02
 46.000     140.34    0.47163E-02
 46.000     141.28    0.46316E-02
 46.000     142.44    0.32964E-02
 46.000     143.48    0.33625E-02
 46.000     144.53    0.25813E-02
 46.000     145.27    0.23054E-02
 46.000     147.27    0.14655E-02
 46.000     148.11    0.11906E-020.18678E-03
 46.000     148.83    0.14675E-02
 46.000     149.66    0.18089E-02
 46.000     150.39    0.21467E-02
 46.000     151.23    0.18114E-02
 46.000     151.96    0.19927E-02
 46.000     152.59    0.18136E-02
 46.000     153.53    0.20336E-02
 46.000     154.37    0.18164E-02
 46.000     155.20    0.18177E-02
 46.000     156.05    0.12452E-020.11267E-03
 46.000     156.57    0.11332E-020.12178E-03
 46.000     157.52    0.73344E-030.12667E-03
 46.000     158.15    0.92122E-030.14444E-03
 46.000     160.44    0.11809E-02
 46.000     162.45    0.44160E-030.89851E-04
 46.000     163.07    0.57608E-030.99445E-04
 46.000     163.80    0.52434E-030.10669E-03
 46.000     164.45    0.29156E-030.10299E-03
 46.000     165.16    0.67160E-030.15650E-03
 46.000     166.00    0.53540E-030.16889E-03
 46.000     166.73    0.53574E-030.10084E-03
 46.000     167.27    0.26087E-030.12901E-03
 46.000     167.99    0.45223E-030.13673E-03
 46.000     168.73    0.34056E-030.12852E-03
 46.000     169.35    0.31587E-030.13355E-03
 46.000     170.18    0.49813E-030.17598E-03
 46.000     170.81    0.42829E-030.14601E-03
 46.000     171.44    0.36825E-030.12090E-03
 47.000     117.74    0.10115E-01
 47.000     118.89    0.10717E-01
 47.000     119.73    0.10521E-01
 47.000     120.56    0.11145E-01
 47.000     121.61    0.92202E-02
 47.000     122.45    0.97672E-02
 47.000     123.29    0.82344E-02
 47.000     124.44    0.82406E-02
 47.000     125.28    0.70809E-02
 47.000     126.33    0.65664E-02
 47.000     127.49    0.51312E-02
 47.000     128.43    0.59786E-02
 47.000     129.27    0.54390E-02
 47.000     130.11    0.49481E-02
 47.000     131.05    0.46764E-02
 47.000     131.99    0.54488E-02
 47.000     133.04    0.55572E-02
 47.000     133.98    0.54559E-02
 47.000     134.92    0.55641E-02
 47.000     135.86    0.53597E-02
 47.000     136.91    0.52623E-02
 47.000     137.86    0.46974E-02
 47.000     138.80    0.47906E-02
 47.000     139.64    0.32760E-02
 47.000     140.58    0.36052E-02
 47.000     141.53    0.30396E-02
 47.000     142.06    0.28720E-02
 47.000     142.58    0.26122E-02
 47.000     143.63    0.28749E-02
 47.000     144.57    0.21624E-02
 47.000     145.42    0.17219E-02
 47.000     147.42    0.86907E-030.93771E-04
 47.000     148.05    0.92051E-03
 47.000     148.15    0.10319E-02
 47.000     148.88    0.11141E-02
 47.000     149.82    0.15405E-02
 47.000     150.45    0.14282E-02
 47.000     151.49    0.16962E-02
 47.000     152.12    0.15725E-02
 47.000     152.85    0.14580E-02
 47.000     153.70    0.11391E-02
 47.000     154.53    0.11182E-02
 47.000     155.06    0.79417E-03
 47.000     155.80    0.70882E-030.70808E-04
 47.000     156.74    0.81032E-030.87432E-04
 47.000     157.49    0.33784E-030.78994E-04
 47.000     158.22    0.34450E-030.95213E-04
 47.000     160.31    0.59902E-03
 47.000     161.14    0.57697E-03
 47.000     162.44    0.94714E-040.43865E-04
 47.000     163.15    0.29121E-030.74678E-04
 47.000     163.78    0.19168E-030.67943E-04
 47.000     164.60    0.46022E-030.86920E-04
 47.000     165.25    0.23654E-030.86721E-04
 47.000     166.08    0.35293E-030.92656E-04
 47.000     166.61    0.23675E-030.68663E-04
 47.000     167.33    0.32116E-030.75128E-04
 47.000     168.18    0.27076E-030.10878E-03
 47.000     168.71    0.12414E-030.10408E-03
 47.000     169.43    0.24175E-030.92311E-04
 47.000     170.89    0.38205E-030.77996E-04
 48.000     117.75    0.11063E-01
 48.000     118.69    0.10864E-01
 48.000     119.63    0.10465E-01
 48.000     120.68    0.10082E-01
 48.000     121.52    0.88232E-02
 48.000     122.26    0.86622E-02
 48.000     123.31    0.75820E-02
 48.000     124.36    0.66364E-02
 48.000     125.40    0.63936E-02
 48.000     126.25    0.55951E-02
 48.000     127.19    0.48968E-02
 48.000     128.03    0.56055E-02
 48.000     129.28    0.56129E-02
 48.000     130.13    0.44626E-02
 48.000     131.06    0.49167E-02
 48.000     132.00    0.54171E-02
 48.000     132.95    0.51192E-02
 48.000     133.89    0.46555E-02
 48.000     134.94    0.44852E-02
 48.000     135.88    0.44043E-02
 48.000     136.83    0.33062E-02
 48.000     137.87    0.40875E-02
 48.000     138.72    0.27345E-02
 48.000     139.57    0.23029E-02
 48.000     140.51    0.20155E-02
 48.000     141.46    0.17639E-02
 48.000     142.51    0.16043E-020.14674E-03
 48.000     143.45    0.14590E-020.15864E-03
 48.000     144.29    0.13524E-020.21434E-03
 48.000     145.23    0.15484E-020.14162E-03
 48.000     147.46    0.58338E-030.83113E-04
 48.000     148.18    0.85688E-030.10453E-03
 48.000     149.01    0.11006E-02
 48.000     149.75    0.92675E-03
 48.000     150.47    0.11023E-02
 48.000     151.41    0.11033E-02
 48.000     152.05    0.10031E-02
 48.000     152.79    0.67097E-03
 48.000     153.53    0.63393E-030.10516E-03
 48.000     154.27    0.49438E-030.62079E-04
 48.000     155.11    0.42441E-030.87313E-04
 48.000     155.95    0.40103E-030.88520E-04
 48.000     156.59    0.23006E-030.59556E-04
 48.000     157.44    0.15098E-030.58242E-04
 48.000     158.19    0.10295E-030.42477E-04
 48.000     160.35    0.29076E-03
 48.000     162.38    0.79046E-040.51123E-04
 48.000     163.21    0.10550E-030.37887E-04
 48.000     163.72    0.13808E-030.56950E-04
 48.000     164.15    0.99695E-040.27760E-04
 48.000     164.47    0.85539E-040.72506E-04
 48.000     165.93    0.12574E-030.62361E-04
 48.000     166.63    0.29268E-030.90221E-04
 48.000     167.39    0.14129E-030.95862E-04
 48.000     168.01    0.18495E-030.61698E-04
 48.000     168.75    0.13617E-030.63664E-04
 48.000     169.46    0.26163E-030.65447E-04
 48.000     170.19    0.30527E-030.67382E-04
 48.000     170.72    0.21625E-030.71708E-04
 48.000     171.24    0.24746E-030.41049E-04
 48.000     172.19    0.21246E-030.65432E-04
 49.000     38.950    0.94568E-02
 49.000     40.183    0.36155E-02
 49.000     41.375    0.25199E-01
 49.000     42.378    0.60209E-01
 49.000     43.389    0.85002E-01
 49.000     44.604    0.11785
 49.000     45.418    0.10764
 49.000     46.641    0.86591E-01
 49.000     47.663    0.57054E-01
 49.000     48.889    0.36254E-01
 49.000     50.124    0.13126E-01
 49.000     51.138    0.14375E-01
 49.000     52.145    0.28647E-01
 49.000     53.153    0.47617E-01
 49.000     54.164    0.70986E-01
 49.000     55.788    0.79165E-01
 49.000     56.804    0.79175E-01
 49.000     57.619    0.73639E-01
 49.000     58.640    0.51234E-01
 49.000     59.457    0.39745E-01
 49.000     60.686    0.19949E-01
 49.000     61.502    0.16047E-01
 49.000     62.720    0.18223E-01
 49.000     63.935    0.24364E-01
 49.000     65.150    0.32576E-01
 49.000     66.163    0.42001E-01
 49.000     66.772    0.45166E-01
 49.000     67.993    0.40513E-01
 49.000     69.216    0.32005E-01
 49.000     70.032    0.25746E-01
 49.000     71.461    0.16066E-01
 49.000     72.075    0.12463E-01
 49.000     73.092    0.11592E-01
 49.000     74.311    0.12022E-01
 49.000     75.323    0.15784E-01
 49.000     76.337    0.18586E-01
 49.000     77.146    0.25303E-01
 49.000     78.568    0.25308E-01
 49.000     79.179    0.23538E-01
 49.000     79.993    0.21498E-01
 49.000     81.418    0.18937E-01
 49.000     82.436    0.16681E-01
 49.000     83.455    0.13914E-01
 49.000     84.067    0.12256E-01
 49.000     86.302    0.12483E-01
 49.000     87.111    0.16095E-01
 49.000     88.532    0.18612E-01
 49.000     89.750    0.20756E-01
 49.000     91.172    0.21139E-01
 49.000     92.189    0.19662E-01
 49.000     93.206    0.18963E-01
 49.000     94.224    0.17321E-01
 49.000     95.242    0.15536E-01
 49.000     96.056    0.13684E-01
 49.000     97.480    0.13199E-01
 49.000     98.494    0.14988E-01
 49.000     100.12    0.15265E-01
 49.000     101.34    0.17023E-01
 49.000     102.76    0.17026E-01
 49.000     104.18    0.15272E-01
 49.000     105.61    0.15839E-01
 49.000     107.03    0.13455E-01
 49.000     108.05    0.11852E-01
 49.000     109.07    0.11023E-01
 49.000     109.89    0.78098E-02
 49.000     110.90    0.71333E-02
 49.000     117.60    0.10450E-01
 49.000     118.83    0.93733E-02
 49.000     120.04    0.10080E-01
 49.000     121.06    0.85626E-02
 49.000     122.28    0.78211E-02
 49.000     123.50    0.67653E-02
 49.000     124.73    0.52485E-02
 49.000     125.75    0.47939E-02
 49.000     127.17    0.51556E-02
 49.000     127.78    0.47088E-02
 49.000     129.00    0.46248E-02
 49.000     130.22    0.46254E-02
 49.000     131.64    0.44613E-02
 49.000     133.27    0.42258E-02
 49.000     134.08    0.38596E-02
 49.000     135.10    0.32785E-02
 49.000     136.53    0.27850E-02
 49.000     137.75    0.27354E-02
 49.000     138.15    0.24533E-02
 49.000     139.17    0.17700E-02
 49.000     140.40    0.15591E-02
 49.000     140.81    0.12541E-02
 49.000     141.82    0.13734E-02
 49.000     142.23    0.11879E-02
 49.000     143.86    0.99095E-03
 49.000     145.07    0.11459E-02
 49.000     146.91    0.66504E-03
 49.000     147.73    0.47116E-030.73590E-04
 49.000     148.74    0.68976E-03
 49.000     149.76    0.60756E-03
 49.000     150.98    0.58600E-030.91541E-04
 49.000     151.59    0.41515E-030.75105E-04
 49.000     152.61    0.28884E-030.56519E-04
 49.000     153.84    0.16762E-030.22696E-04
 49.000     155.06    0.17384E-030.41420E-04
 49.000     155.26    0.20843E-030.40776E-04
 49.000     156.07    0.25915E-030.45977E-04
 49.000     157.29    0.19743E-030.44292E-04
 49.000     159.93    0.26885E-030.36402E-04
ENDDATA            675
ENDSUBENT          682
SUBENT        D0373003   20060217   20060601                  D045
BIB                  2          2
REACTION   (28-NI-58(A,EL)28-NI-58,,DA,,RTH)
STATUS     (CURVE) Data digitized from the fig.4,5
ENDBIB               2
NOCOMMON             0          0
DATA                 4        613
EN         ANG-CM     DATA-CM    ERR-S
MEV        ADEG       NO-DIM     NO-DIM
 27.000     121.42    0.83272E-03
 27.000     126.10    0.18685E-02
 27.000     130.76    0.68905E-02
 27.000     135.68    0.87179E-02
 27.000     140.32    0.31241E-02
 27.000     145.29    0.85708E-030.13541E-03
 27.000     147.24    0.28090E-02
 27.000     147.63    0.49857E-02
 27.000     148.15    0.62745E-02
 27.000     148.88    0.70429E-02
 27.000     149.61    0.77559E-02
 27.000     150.23    0.87046E-02
 27.000     150.96    0.94043E-02
 27.000     151.80    0.88894E-02
 27.000     152.53    0.10171E-01
 27.000     153.27    0.92520E-02
 27.000     153.79    0.85767E-02
 27.000     154.52    0.85843E-02
 27.000     155.26    0.73740E-02
 27.000     155.79    0.68357E-02
 27.000     156.53    0.56518E-02
 27.000     157.05    0.61045E-02
 27.000     157.80    0.42498E-02
 27.000     160.09    0.48716E-02
 27.000     162.51    0.39596E-02
 27.000     163.55    0.47085E-02
 27.000     164.29    0.42833E-02
 27.000     164.71    0.37489E-02
 27.000     165.45    0.30996E-02
 27.000     165.98    0.25137E-02
 27.000     167.04    0.19261E-02
 27.000     167.80    0.91502E-030.17169E-03
 27.000     168.45    0.50643E-030.72401E-04
 27.000     169.11    0.19495E-030.48582E-04
 27.000     169.82    0.40332E-03
 27.000     170.30    0.11325E-02
 27.000     170.91    0.20105E-02
 27.000     171.52    0.39271E-02
 28.000     121.56    0.92721E-03
 28.000     126.33    0.91317E-02
 28.000     131.05    0.89932E-02
 28.000     136.01    0.35266E-02
 28.000     140.55    0.10773E-02
 28.000     143.86    0.13087E-03
 28.000     145.36    0.31675E-02
 28.000     147.23    0.51253E-02
 28.000     147.85    0.79727E-02
 28.000     148.27    0.87785E-02
 28.000     149.21    0.93059E-02
 28.000     150.05    0.10449E-01
 28.000     150.78    0.11289E-01
 28.000     151.52    0.11296E-01
 28.000     152.25    0.11303E-01
 28.000     152.89    0.10274E-01
 28.000     153.52    0.10279E-01
 28.000     154.04    0.91655E-02
 28.000     154.57    0.80171E-02
 28.000     155.21    0.61316E-02
 28.000     156.05    0.49684E-02
 28.000     156.58    0.41027E-02
 28.000     157.44    0.20186E-02
 28.000     157.87    0.11140E-020.21021E-03
 28.000     160.19    0.74594E-03
 28.000     160.30    0.63985E-03
 28.000     162.26    0.23629E-02
 28.000     162.79    0.27561E-02
 28.000     163.73    0.25059E-02
 28.000     164.36    0.32176E-02
 28.000     165.09    0.35437E-02
 28.000     165.93    0.34126E-02
 28.000     166.77    0.31026E-02
 28.000     167.31    0.20745E-02
 28.000     168.14    0.23744E-02
 28.000     168.68    0.17143E-020.24394E-03
 28.000     169.51    0.18882E-02
 28.000     170.25    0.17165E-020.35303E-03
 28.000     170.66    0.26189E-02
 28.000     171.18    0.34275E-02
 28.000     171.80    0.56476E-02
 28.000     172.52    0.84551E-02
 29.000     121.69    0.58871E-02
 29.000     126.37    0.12622E-01
 29.000     131.21    0.74765E-02
 29.000     135.99    0.11128E-02
 29.000     140.64    0.45395E-02
 29.000     145.34    0.61807E-02
 29.000     147.34    0.50321E-02
 29.000     147.95    0.70792E-02
 29.000     148.79    0.72220E-02
 29.000     149.31    0.82500E-02
 29.000     149.94    0.76548E-02
 29.000     151.09    0.76659E-02
 29.000     151.93    0.78205E-02
 29.000     152.66    0.71212E-02
 29.000     153.40    0.55737E-02
 29.000     154.03    0.51716E-02
 29.000     154.57    0.40467E-02
 29.000     155.42    0.29368E-02
 29.000     156.16    0.23873E-02
 29.000     156.82    0.98192E-03
 29.000     157.47    0.57858E-03
 29.000     158.13    0.21244E-03
 29.000     160.57    0.16443E-02
 29.000     162.40    0.54279E-02
 29.000     163.13    0.65644E-02
 29.000     163.65    0.77880E-02
 29.000     164.27    0.87310E-02
 29.000     165.21    0.84168E-02
 29.000     166.26    0.89201E-02
 29.000     167.10    0.84368E-02
 29.000     167.42    0.72547E-02
 29.000     168.15    0.64822E-02
 29.000     168.89    0.59026E-02
 29.000     169.32    0.47961E-02
 29.000     170.06    0.38986E-02
 29.000     170.59    0.32904E-02
 29.000     171.00    0.36188E-02
 29.000     171.84    0.38341E-02
 29.000     172.35    0.48145E-02
 30.000     121.67    0.11605E-01
 30.000     125.43    0.11882E-01
 30.000     131.22    0.44330E-02
 30.000     134.92    0.16186E-02
 30.000     140.51    0.82572E-02
 30.000     144.38    0.79846E-02
 30.000     147.34    0.28578E-02
 30.000     148.07    0.35967E-02
 30.000     148.80    0.33352E-02
 30.000     149.64    0.30346E-02
 30.000     150.38    0.26070E-02
 30.000     150.80    0.28696E-02
 30.000     151.43    0.26606E-02
 30.000     152.16    0.25147E-02
 30.000     152.27    0.22428E-02
 30.000     153.31    0.24705E-02
 30.000     153.94    0.22472E-02
 30.000     154.68    0.20058E-02
 30.000     155.32    0.14235E-02
 30.000     155.95    0.13712E-02
 30.000     156.79    0.11340E-02
 30.000     157.42    0.11134E-02
 30.000     157.85    0.79000E-03
 30.000     160.31    0.30152E-02
 30.000     162.49    0.58973E-02
 30.000     163.52    0.88168E-02
 30.000     164.14    0.97072E-02
 30.000     164.88    0.91748E-02
 30.000     165.50    0.99103E-02
 30.000     166.13    0.99177E-02
 30.000     167.28    0.86889E-02
 30.000     168.13    0.76096E-02
 30.000     168.76    0.58291E-02
 30.000     169.40    0.45514E-02
 30.000     169.93    0.33554E-02
 30.000     170.68    0.22066E-02
 30.000     170.90    0.14781E-02
 30.000     171.66    0.85043E-03
 30.000     172.20    0.48917E-03
 30.000     172.20    0.41988E-03
 31.000     121.90    0.14464E-01
 31.000     126.75    0.68825E-02
 31.000     131.29    0.29157E-02
 31.000     136.18    0.44942E-02
 31.000     140.64    0.82327E-02
 31.000     145.47    0.47496E-02
 31.000     147.54    0.10011E-02
 31.000     148.26    0.11695E-02
 31.000     148.28    0.94616E-03
 31.000     148.90    0.96565E-03
 31.000     149.10    0.11270E-02
 31.000     150.06    0.87879E-03
 31.000     150.77    0.12447E-02
 31.000     151.48    0.16963E-02
 31.000     152.10    0.21399E-02
 31.000     152.82    0.27525E-02
 31.000     153.54    0.31541E-02
 31.000     154.06    0.36128E-02
 31.000     154.90    0.32860E-02
 31.000     155.52    0.35532E-02
 31.000     156.26    0.32940E-02
 31.000     156.77    0.34933E-02
 31.000     157.40    0.33009E-02
 31.000     158.14    0.28882E-02
 31.000     160.42    0.40241E-02
 31.000     162.50    0.54975E-02
 31.000     163.22    0.61793E-02
 31.000     163.95    0.69456E-02
 31.000     164.88    0.78099E-02
 31.000     165.72    0.73824E-02
 31.000     166.45    0.75360E-02
 31.000     166.98    0.69836E-02
 31.000     167.40    0.62259E-02
 31.000     168.04    0.51407E-02
 31.000     168.78    0.42455E-02
 31.000     169.32    0.30627E-02
 31.000     170.07    0.20463E-02
 31.000     170.62    0.13933E-02
 31.000     171.27    0.91297E-030.17435E-03
 31.000     171.72    0.45664E-030.76093E-04
 31.000     172.55    0.54392E-030.10286E-03
 32.000     126.46    0.26877E-02
 32.000     136.03    0.74024E-02
 32.000     145.30    0.17818E-02
 32.000     147.84    0.56578E-030.13294E-03
 32.000     148.44    0.10070E-020.17567E-03
 32.000     149.15    0.11983E-020.19878E-03
 32.000     149.56    0.13714E-02
 32.000     149.86    0.15395E-020.32560E-03
 32.000     150.57    0.20951E-020.29811E-03
 32.000     151.29    0.25411E-020.30956E-03
 32.000     152.72    0.39599E-020.39797E-03
 32.000     153.32    0.55989E-02
 32.000     153.83    0.69202E-02
 32.000     154.66    0.60585E-02
 32.000     155.39    0.54060E-02
 32.000     156.13    0.43825E-020.47720E-03
 32.000     156.84    0.55236E-02
 32.000     157.68    0.39916E-020.57299E-03
 32.000     160.21    0.17229E-020.27323E-03
 32.000     162.20    0.86627E-030.22898E-03
 32.000     162.92    0.99194E-030.24807E-03
 32.000     163.52    0.14856E-020.30532E-03
 32.000     164.03    0.19826E-020.28211E-03
 32.000     164.85    0.21852E-020.41605E-03
 32.000     165.56    0.31500E-02
 32.000     166.29    0.25051E-020.43665E-03
 32.000     166.93    0.17753E-02
 32.000     167.73    0.31610E-020.44977E-03
 32.000     168.16    0.21141E-020.40252E-03
 32.000     168.99    0.22858E-020.43490E-03
 32.000     169.55    0.92848E-030.24554E-03
 32.000     170.19    0.53280E-030.16985E-03
 32.000     170.87    0.17194E-030.95376E-04
 32.000     171.46    0.28344E-030.62532E-04
 32.000     172.05    0.54475E-03
 32.000     172.76    0.83179E-030.21987E-03
 33.000     126.31    0.24481E-02
 33.000     135.87    0.67693E-02
 33.000     145.26    0.18711E-02
 33.000     147.85    0.16445E-02
 33.000     149.09    0.18497E-02
 33.000     149.80    0.23320E-02
 33.000     150.61    0.28848E-02
 33.000     151.22    0.33676E-02
 33.000     151.73    0.44099E-02
 33.000     152.55    0.46790E-02
 33.000     153.38    0.48701E-02
 33.000     154.09    0.55783E-02
 33.000     155.24    0.48884E-02
 33.000     156.17    0.48046E-02
 33.000     156.60    0.39691E-02
 33.000     157.54    0.31587E-02
 33.000     160.28    0.12404E-02
 33.000     162.21    0.42519E-030.10633E-03
 33.000     163.04    0.38694E-030.90921E-04
 33.000     163.60    0.10711E-020.18699E-03
 33.000     164.11    0.13498E-02
 33.000     164.93    0.15464E-02
 33.000     165.62    0.27014E-02
 33.000     166.14    0.24569E-02
 33.000     166.86    0.26567E-02
 33.000     167.48    0.27116E-02
 33.000     168.31    0.24676E-02
 33.000     168.84    0.22016E-02
 33.000     169.37    0.18191E-020.28850E-03
 33.000     170.11    0.12653E-020.18004E-03
 33.000     170.85    0.10459E-020.19882E-03
 33.000     172.10    0.89933E-030.18480E-03
 33.000     172.79    0.14274E-020.22637E-03
 34.000     121.84    0.19089E-02
 34.000     126.43    0.43524E-02
 34.000     131.30    0.33017E-02
 34.000     136.14    0.36610E-02
 34.000     140.47    0.52207E-030.74185E-04
 34.000     145.32    0.32570E-02
 34.000     147.62    0.17478E-02
 34.000     148.36    0.14752E-02
 34.000     149.19    0.13183E-02
 34.000     150.01    0.12471E-02
 34.000     150.63    0.13727E-02
 34.000     151.14    0.15397E-02
 34.000     151.85    0.18288E-02
 34.000     152.99    0.17642E-02
 34.000     153.70    0.20174E-02
 34.000     154.43    0.18025E-02
 34.000     155.36    0.18752E-02
 34.000     156.09    0.15530E-02
 34.000     156.82    0.12861E-02
 34.000     160.12    0.18658E-030.39039E-04
 34.000     162.26    0.31265E-030.44491E-04
 34.000     162.84    0.59677E-030.11104E-03
 34.000     163.52    0.13261E-02
 34.000     164.13    0.16990E-02
 34.000     164.74    0.19425E-02
 34.000     165.45    0.22639E-02
 34.000     166.17    0.25402E-02
 34.000     167.09    0.28512E-02
 34.000     167.51    0.26446E-02
 34.000     168.02    0.30231E-02
 34.000     168.75    0.25036E-02
 34.000     169.48    0.22798E-02
 34.000     170.01    0.16842E-02
 34.000     170.85    0.11538E-02
 34.000     171.28    0.90217E-030.12724E-03
 34.000     171.73    0.44729E-030.70173E-04
 34.000     172.45    0.43943E-030.96090E-04
 35.000     126.47    0.57104E-02
 35.000     135.99    0.22400E-02
 35.000     145.41    0.40517E-02
 35.000     147.92    0.21268E-02
 35.000     148.85    0.19740E-02
 35.000     149.07    0.17277E-02
 35.000     149.70    0.12988E-02
 35.000     150.44    0.88763E-030.15438E-03
 35.000     150.95    0.10353E-02
 35.000     151.88    0.99840E-030.14152E-03
 35.000     152.58    0.12575E-02
 35.000     153.31    0.11017E-020.20884E-03
 35.000     154.01    0.15563E-02
 35.000     155.45    0.15910E-02
 35.000     156.27    0.15340E-02
 35.000     156.91    0.11981E-020.18950E-03
 35.000     157.56    0.66346E-030.12448E-03
 35.000     160.13    0.61790E-030.97620E-04
 35.000     162.05    0.12580E-020.21880E-03
 35.000     162.97    0.12604E-020.19935E-03
 35.000     163.53    0.33439E-02
 35.000     164.25    0.33489E-02
 35.000     164.75    0.42163E-02
 35.000     165.36    0.45570E-02
 35.000     166.18    0.52179E-02
 35.000     166.90    0.48412E-02
 35.000     167.62    0.48484E-02
 35.000     168.24    0.45841E-02
 35.000     168.77    0.37191E-02
 35.000     169.41    0.25412E-02
 35.000     170.04    0.22259E-02
 35.000     170.59    0.10989E-02
 35.000     171.33    0.81063E-030.18938E-03
 35.000     171.79    0.38510E-030.81078E-04
 35.000     172.64    0.24387E-030.91078E-04
 36.000     126.69    0.58953E-02
 36.000     136.12    0.12444E-02
 36.000     145.32    0.29514E-02
 36.000     147.93    0.14031E-02
 36.000     148.47    0.86909E-030.13777E-03
 36.000     149.12    0.52820E-030.76111E-04
 36.000     149.74    0.42817E-030.94581E-04
 36.000     150.04    0.50926E-03
 36.000     150.45    0.56104E-030.10569E-03
 36.000     150.96    0.60646E-030.11547E-03
 36.000     151.88    0.64363E-030.12254E-03
 36.000     152.75    0.16207E-02
 36.000     153.37    0.15028E-02
 36.000     154.27    0.22105E-02
 36.000     154.78    0.25311E-02
 36.000     155.61    0.20924E-02
 36.000     156.32    0.25391E-02
 36.000     157.14    0.25926E-02
 36.000     157.56    0.19831E-02
 36.000     160.16    0.12574E-02
 36.000     162.22    0.11694E-020.18558E-03
 36.000     162.71    0.15915E-020.22662E-03
 36.000     163.30    0.25753E-02
 36.000     164.12    0.29507E-02
 36.000     164.41    0.37176E-02
 36.000     165.54    0.36553E-02
 36.000     166.04    0.43493E-02
 36.000     166.77    0.41119E-02
 36.000     167.59    0.37417E-02
 36.000     168.22    0.34035E-02
 36.000     168.84    0.28669E-02
 36.000     169.47    0.24150E-02
 36.000     169.91    0.14671E-02
 36.000     170.56    0.82575E-030.17479E-03
 36.000     171.09    0.58506E-030.12385E-03
 36.000     171.83    0.39149E-030.10903E-03
 36.000     172.62    0.68434E-030.13006E-03
 37.500     142.53    0.23008E-02
 37.500     146.38    0.15560E-02
 37.500     151.88    0.18385E-02
 37.500     155.76    0.37634E-02
 37.500     161.48    0.11039E-02
 37.500     161.58    0.69828E-030.87352E-04
 37.500     162.30    0.66062E-030.93571E-04
 37.500     163.00    0.10267E-02
 37.500     163.79    0.12452E-02
 37.500     164.27    0.13457E-02
 37.500     164.73    0.21715E-02
 37.500     165.11    0.28398E-02
 37.500     165.84    0.21366E-02
 37.500     166.56    0.24003E-02
 37.500     167.44    0.23602E-02
 37.500     167.93    0.18437E-02
 37.500     168.56    0.20708E-02
 37.500     169.37    0.17144E-02
 37.500     170.11    0.10064E-02
 37.500     170.68    0.74253E-030.92887E-04
 37.500     171.31    0.88317E-03
 37.500     172.19    0.85199E-03
 38.000     142.11    0.17643E-02
 38.000     146.20    0.13891E-02
 38.000     151.76    0.22048E-02
 38.000     155.57    0.36889E-02
 38.000     160.98    0.11745E-02
 38.000     161.39    0.87970E-030.12614E-03
 38.000     162.03    0.91618E-030.14641E-03
 38.000     162.81    0.13264E-02
 38.000     163.54    0.99448E-03
 38.000     164.15    0.16162E-02
 38.000     164.54    0.21630E-02
 38.000     164.92    0.28393E-02
 38.000     165.65    0.24375E-02
 38.000     166.20    0.26896E-02
 38.000     167.00    0.26962E-02
 38.000     167.40    0.29736E-02
 38.000     167.80    0.25015E-02
 38.000     168.62    0.18759E-02
 38.000     169.18    0.18078E-02
 38.000     169.77    0.99408E-03
 38.000     170.57    0.90462E-030.14456E-03
 38.000     171.20    0.11432E-02
 38.000     171.89    0.17879E-02
 38.500     142.36    0.16659E-02
 38.500     146.27    0.15302E-02
 38.500     151.98    0.29100E-02
 38.500     155.71    0.39841E-02
 38.500     161.43    0.10472E-02
 38.500     162.07    0.99072E-03
 38.500     162.71    0.90230E-03
 38.500     163.55    0.17940E-02
 38.500     164.18    0.21326E-02
 38.500     164.96    0.32478E-02
 38.500     165.21    0.24899E-02
 38.500     165.69    0.27418E-02
 38.500     166.31    0.33857E-02
 38.500     167.12    0.30848E-02
 38.500     167.75    0.32097E-02
 38.500     168.55    0.30963E-02
 38.500     169.03    0.26624E-02
 38.500     169.93    0.16902E-02
 38.500     170.42    0.12016E-020.16966E-03
 38.500     171.28    0.17288E-02
 38.500     171.94    0.12772E-020.20100E-03
 39.000     142.51    0.18335E-02
 39.000     146.42    0.18495E-02
 39.000     152.06    0.33899E-02
 39.000     155.97    0.36216E-02
 39.000     161.28    0.12309E-02
 39.000     161.85    0.94279E-03
 39.000     162.40    0.12821E-02
 39.000     163.35    0.16478E-02
 39.000     164.06    0.21167E-02
 39.000     164.85    0.27194E-02
 39.000     165.24    0.32959E-02
 39.000     166.04    0.30004E-02
 39.000     166.67    0.37804E-02
 39.000     167.40    0.28965E-02
 39.000     167.95    0.32530E-02
 39.000     168.44    0.26383E-02
 39.000     168.85    0.22228E-02
 39.000     169.40    0.24491E-02
 39.000     170.22    0.14634E-02
 39.000     170.94    0.14941E-02
 39.000     171.49    0.18464E-02
 39.000     172.28    0.22398E-02
 39.500     142.51    0.18469E-02
 39.500     146.43    0.25710E-02
 39.500     152.11    0.36597E-02
 39.500     155.80    0.30465E-02
 39.500     161.60    0.14944E-02
 39.500     162.56    0.13612E-02
 39.500     163.35    0.22787E-02
 39.500     164.38    0.29239E-02
 39.500     165.18    0.32824E-02
 39.500     165.41    0.38972E-02
 39.500     166.13    0.44584E-02
 39.500     166.69    0.43790E-02
 39.500     167.49    0.44698E-02
 39.500     168.14    0.32384E-02
 39.500     168.87    0.26809E-02
 39.500     169.45    0.17997E-02
 39.500     170.34    0.12321E-02
 39.500     170.74    0.14633E-02
 39.500     171.61    0.16120E-02
 39.500     172.26    0.12602E-02
 40.000     142.31    0.23699E-02
 40.000     147.26    0.31421E-02
 40.000     152.13    0.38587E-02
 40.000     156.79    0.23366E-02
 40.000     161.06    0.14405E-02
 40.000     161.45    0.15866E-02
 40.000     162.26    0.15019E-02
 40.000     162.57    0.15919E-02
 40.000     163.05    0.17539E-02
 40.000     163.67    0.23399E-02
 40.000     164.46    0.30062E-02
 40.000     166.05    0.40220E-02
 40.000     166.37    0.34557E-02
 40.000     167.01    0.37370E-02
 40.000     167.73    0.36742E-02
 40.000     168.38    0.29275E-02
 40.000     169.11    0.24239E-02
 40.000     169.60    0.21238E-02
 40.000     170.08    0.19332E-02
 40.000     170.66    0.14267E-02
 40.000     171.42    0.71912E-030.10156E-03
 40.000     172.43    0.12311E-02
 40.500     142.39    0.27586E-02
 40.500     147.33    0.38796E-02
 40.500     152.04    0.43310E-02
 40.500     156.88    0.22451E-02
 40.500     161.14    0.16098E-02
 40.500     161.52    0.21908E-02
 40.500     162.25    0.19568E-02
 40.500     163.03    0.25659E-02
 40.500     163.82    0.34961E-02
 40.500     164.63    0.27310E-02
 40.500     165.50    0.32542E-02
 40.500     165.88    0.43446E-02
 40.500     166.29    0.39519E-02
 40.500     167.01    0.38852E-02
 40.500     167.81    0.38205E-02
 40.500     168.54    0.34125E-02
 40.500     169.34    0.30487E-02
 40.500     170.09    0.16857E-02
 40.500     170.91    0.13167E-02
 40.500     171.42    0.68682E-030.11393E-03
 41.000     142.54    0.36820E-02
 41.000     146.37    0.41001E-02
 41.000     152.14    0.35069E-02
 41.000     155.84    0.24123E-02
 41.000     161.44    0.23598E-02
 41.000     162.32    0.23208E-02
 41.000     163.19    0.30466E-02
 41.000     163.91    0.25674E-02
 41.000     164.62    0.32414E-02
 41.000     164.94    0.36417E-02
 41.000     165.09    0.40895E-02
 41.000     165.57    0.38655E-02
 41.000     166.22    0.33845E-02
 41.000     166.94    0.35249E-02
 41.000     167.09    0.43582E-02
 41.000     167.73    0.41214E-02
 41.000     168.63    0.26539E-02
 41.000     169.19    0.27100E-02
 41.000     170.09    0.18488E-02
 41.000     170.95    0.64286E-030.10239E-03
 41.000     171.48    0.98346E-030.18603E-03
 41.500     142.60    0.45947E-02
 41.500     146.36    0.48184E-02
 41.500     152.29    0.36040E-02
 41.500     156.00    0.19756E-02
 41.500     161.35    0.22882E-02
 41.500     161.74    0.26680E-02
 41.500     162.46    0.29969E-02
 41.500     163.33    0.33040E-02
 41.500     164.05    0.34387E-02
 41.500     164.86    0.29579E-02
 41.500     165.01    0.38649E-02
 41.500     165.56    0.41771E-02
 41.500     166.46    0.32052E-02
 41.500     167.17    0.34001E-02
 41.500     167.98    0.30385E-02
 41.500     168.72    0.20393E-02
 41.500     169.43    0.21633E-02
 41.500     170.18    0.13198E-02
 41.500     170.85    0.53935E-030.11034E-03
 41.500     171.64    0.82220E-030.99692E-04
 41.500     172.21    0.55160E-030.11598E-03
 42.000     142.52    0.49829E-02
 42.000     145.88    0.44805E-02
 42.000     146.53    0.43195E-02
 42.000     152.14    0.30472E-02
 42.000     155.91    0.25410E-02
 42.000     161.28    0.21683E-02
 42.000     161.67    0.27292E-02
 42.000     161.91    0.22998E-02
 42.000     162.47    0.24857E-02
 42.000     163.19    0.27395E-02
 42.000     163.91    0.27972E-02
 42.000     164.62    0.29673E-02
 42.000     165.18    0.34617E-02
 42.000     165.82    0.30335E-02
 42.000     166.47    0.26582E-02
 42.000     167.18    0.29861E-02
 42.000     167.92    0.20420E-02
 42.000     168.65    0.15961E-02
 42.000     169.29    0.14811E-02
 42.000     170.12    0.70485E-030.11138E-03
 42.000     170.70    0.52005E-030.90376E-04
 42.000     171.45    0.26708E-030.62637E-04
 42.000     172.21    0.63180E-030.99735E-04
 42.400     142.53    0.48878E-02
 42.400     146.29    0.44828E-02
 42.400     152.07    0.27665E-02
 42.400     161.03    0.26183E-02
 42.400     161.60    0.21662E-02
 42.400     162.32    0.23420E-02
 42.400     163.11    0.25327E-02
 42.400     163.92    0.24425E-02
 42.400     164.63    0.26408E-02
 42.400     165.11    0.30218E-02
 42.400     165.60    0.24995E-02
 42.400     166.23    0.29725E-02
 42.400     166.95    0.26052E-02
 42.400     167.84    0.21569E-02
 42.400     168.65    0.17855E-02
 42.400     169.16    0.77173E-030.11050E-03
 42.400     169.99    0.44449E-030.84190E-04
 42.400     170.57    0.25103E-030.55169E-04
 42.400     171.53    0.27680E-030.56754E-04
 42.400     172.26    0.21225E-030.52849E-04
ENDDATA            615
ENDSUBENT          622
ENDENTRY             3
