ENTRY            13012     850808
SUBENT        13012001     850808
BIB                 11         12
INSTITUTE  (1USADKE)
REFERENCE  (P,WASH-1074,36,6704)
AUTHOR     (F.T.SEIBEL,E.G.BILPUCH,H.W.NEWSON)
TITLE      RESONANCE CROSS SECTION MEASUREMENTS WITH CONTINUOUS
           BEAM.
FACILITY   (VDG)
METHOD     TRANSMISSION
INC-SOURCE (P-LI7) LI-7(P,N) REACTION
DETECTOR   (BF3)
ERR-ANALYS NO INFORMATION
STATUS     DATA OBTAINED VIA M.DIVADEENAM
HISTORY    (850808C)
ENDBIB              12
NOCOMMON             0          0
ENDSUBENT           15
SUBENT        13012002     850808
BIB                  1          1
REACTION   (83-BI-209(N,TOT),,SIG)
ENDBIB               1
COMMON               1          3
EN-RSL
KEV
 1.5
ENDCOMMON            3
DATA                 2        429
EN         DATA
KEV        B
 172.        6.44
 173.        5.99
 174.        6.37
 175.        6.03
 176.        4.91
 177.        5.33
 178.        8.47
 179.        8.11
 180.        8.00
 181.        7.34
 182.        6.30
 183.        6.73
 184.        6.54
 185.        9.26
 186.        9.70
 187.        9.47
 188.        9.59
 189.        8.02
 190.        7.57
 191.        7.73
 192.        8.26
 193.        9.23
 194.        8.72
 195.        8.49
 196.        8.58
 197.        8.38
 198.        7.85
 199.        8.48
 200.        7.59
 201.        7.45
 202.        7.45
 203.        7.28
 204.        7.56
 205.        7.25
 206.        7.11
 207.        6.79
 208.        7.22
 209.        5.95
 210.        5.87
 211.        5.98
 212.        6.43
 213.        7.20
 214.        6.98
 215.        5.98
 216.        5.43
 217.        7.06
 218.        8.66
 219.        7.90
 220.        8.50
 221.        8.12
 222.        7.11
 223.        7.56
 224.        8.18
 225.        7.64
 226.        8.23
 227.        8.17
 228.        7.58
 229.        7.01
 230.        6.11
 231.        6.35
 232.        6.22
 233.        7.49
 234.        8.26
 235.        8.71
 236.        7.76
 237.        7.53
 238.        7.35
 239.        7.72
 240.        8.26
 241.        8.40
 242.        7.45
 243.        6.60
 244.        6.48
 245.        6.36
 246.        8.59
 247.        8.55
 248.        8.82
 249.        8.41
 250.        7.66
 251.        7.45
 252.        7.82
 253.        8.22
 254.        7.97
 255.        7.84
 256.        7.59
 257.        7.61
 258.        7.23
 259.        5.75
 260.        5.32
 261.        5.78
 262.        5.88
 263.        7.01
 264.        8.27
 265.        8.48
 266.        8.62
 267.        8.14
 268.        7.99
 269.        8.09
 270.        8.11
 271.        7.70
 272.        8.24
 273.        8.10
 274.        7.67
 275.        7.48
 276.        5.84
 277.        5.45
 278.        4.90
 279.        6.14
 280.        7.29
 281.        7.63
 282.        7.91
 283.        7.70
 284.        7.87
 285.        7.63
 286.        8.03
 287.        6.82
 288.        5.63
 289.        6.49
 290.        7.08
 291.        6.96
 292.        6.90
 293.        6.77
 294.        6.47
 295.        5.83
 296.        5.16
 297.        4.61
 298.        4.96
 299.        6.37
 300.        7.36
 301.        8.26
 302.        8.46
 303.        6.92
 304.        7.00
 305.        5.93
 306.        6.74
 307.        8.11
 308.        8.48
 309.        8.15
 310.        6.16
 311.        6.24
 312.        5.77
 313.        7.03
 314.        8.30
 315.        7.31
 316.        6.87
 317.        6.61
 318.        7.04
 319.        7.46
 320.        7.46
 321.        7.54
 322.        7.37
 323.        6.56
 324.        7.59
 325.        8.13
 326.        8.59
 327.        8.37
 328.        9.04
 329.        8.34
 330.        8.11
 331.        7.80
 332.        8.04
 333.        8.11
 334.        8.39
 335.        8.30
 336.        7.58
 337.        7.62
 338.        7.80
 339.        6.74
 340.        7.04
 341.        6.32
 342.        5.92
 343.        6.20
 344.        6.87
 345.        7.47
 346.        7.72
 347.        8.40
 348.        7.97
 349.        8.28
 350.        7.80
 351.        7.19
 352.        7.35
 353.        7.12
 354.        7.40
 355.        7.71
 356.        7.40
 357.        7.33
 358.        6.97
 359.        7.30
 360.        7.47
 361.        7.77
 362.        8.16
 363.        8.58
 364.        8.61
 365.        8.37
 366.        8.18
 367.        7.73
 368.        7.29
 369.        6.97
 370.        7.03
 371.        8.18
 372.        7.73
 373.        7.14
 374.        7.51
 375.        6.47
 376.        5.96
 377.        5.94
 378.        5.74
 379.        6.19
 380.        6.79
 381.        7.33
 382.        7.47
 383.        6.75
 384.        6.38
 385.        5.82
 386.        4.99
 387.        4.65
 388.        5.65
 389.        6.68
 390.        6.31
 391.        6.89
 392.        8.36
 393.        6.32
 394.        6.33
 395.        6.67
 396.        6.60
 397.        7.21
 398.        7.08
 399.        8.20
 400.        7.65
 401.        7.22
 402.        7.40
 403.        6.87
 404.        6.95
 405.        7.00
 406.        7.57
 407.        7.77
 408.        8.18
 409.        7.72
 410.        7.57
 411.        7.60
 412.        8.43
 413.        7.64
 414.        7.45
 415.        7.31
 416.        7.09
 417.        6.81
 418.        6.70
 419.        6.34
 420.        5.91
 421.        5.73
 422.        6.37
 423.        7.42
 424.        7.52
 425.        7.85
 426.        7.37
 427.        6.72
 428.        7.03
 429.        7.59
 430.        7.74
 431.        7.35
 432.        7.42
 433.        7.20
 434.        7.52
 435.        6.51
 436.        6.82
 437.        7.02
 438.        6.31
 439.        6.74
 440.        6.78
 441.        6.81
 442.        6.95
 443.        6.76
 444.        7.05
 445.        6.61
 446.        6.48
 447.        6.47
 448.        6.86
 449.        6.65
 450.        7.01
 451.        6.84
 452.        6.84
 453.        6.70
 454.        6.43
 455.        6.36
 456.        6.70
 457.        6.27
 458.        6.02
 459.        5.73
 460.        6.33
 461.        5.79
 462.        6.23
 463.        5.32
 464.        6.31
 465.        6.24
 466.        6.93
 467.        6.78
 468.        6.72
 469.        6.55
 470.        6.43
 471.        6.73
 472.        6.88
 473.        7.70
 474.        7.39
 475.        6.98
 476.        6.69
 477.        5.91
 478.        5.69
 479.        5.00
 480.        4.45
 481.        5.27
 482.        6.00
 483.        6.05
 484.        6.08
 485.        6.21
 486.        6.21
 487.        6.77
 488.        6.97
 489.        6.70
 490.        6.83
 491.        6.81
 492.        7.14
 493.        7.07
 494.        7.25
 495.        6.60
 496.        6.78
 497.        7.17
 498.        6.85
 499.        6.73
 500.        7.05
 501.        6.91
 502.        6.76
 503.        5.90
 504.        6.61
 505.        6.35
 506.        5.59
 507.        6.52
 508.        6.76
 509.        7.14
 510.        7.13
 511.        6.49
 512.        5.90
 513.        6.13
 514.        5.53
 515.        4.96
 516.        4.26
 517.        4.58
 518.        4.09
 519.        5.92
 520.        5.36
 521.        6.22
 522.        5.76
 523.        6.21
 524.        5.55
 525.        5.49
 526.        5.54
 527.        6.32
 528.        7.23
 529.        6.05
 530.        6.88
 531.        6.72
 532.        6.62
 533.        6.31
 534.        6.11
 535.        5.70
 536.        5.99
 537.        6.24
 538.        5.99
 539.        6.27
 540.        6.43
 541.        6.70
 542.        6.53
 543.        5.39
 544.        4.61
 545.        4.61
 546.        5.54
 547.        5.65
 548.        5.73
 549.        5.47
 550.        5.76
 551.        5.70
 552.        5.23
 553.        5.45
 554.        5.59
 555.        5.93
 556.        6.71
 557.        6.77
 558.        6.51
 559.        7.38
 560.        6.65
 561.        6.32
 562.        6.24
 563.        6.02
 564.        5.49
 565.        5.52
 566.        5.62
 567.        5.71
 568.        5.78
 569.        5.81
 570.        6.36
 571.        6.12
 572.        5.79
 573.        6.28
 574.        5.55
 575.        5.53
 576.        5.91
 577.        6.23
 578.        6.45
 579.        6.19
 580.        6.43
 581.        6.44
 582.        6.29
 583.        6.03
 584.        5.89
 585.        6.22
 586.        5.85
 587.        5.78
 588.        5.76
 589.        6.11
 590.        5.59
 591.        6.48
 592.        6.37
 593.        6.17
 594.        5.91
 595.        6.83
 596.        6.15
 597.        6.12
 598.        6.10
 599.        5.84
 600.        6.27
ENDDATA            431
ENDSUBENT          441
ENDENTRY             2
