ENTRY            O1717   20090816   20100128   20100120       O040
SUBENT        O1717001   20090816   20100128   20100120       O040
BIB                 11         34
TITLE      Spectroscopy of Sn-110 via the high-resolution
           Sn-112(p,t)Sn-110 reaction.
AUTHOR     (P.Guazzoni, L.Zetta, A.Covello, A.Gargano, B.F.Bayman,
           G.Graw, R.Hertenberger, H.-F.Wirth, M.Jaskola)
INSTITUTE  (2ITYMIL)
           (2ITYNAP)
           (1USAMIN)
           (2GERMUN)
           (3POLIPJ)
REFERENCE  (J,PR/C,74,054605,2006)
SAMPLE     The Sn-112 target, isotopic enrichment-
           Sn-124 less than 0.02%, Sn-122 less than 0.02%,
           Sn-120 less than 0.02%, Sn-119 less than 0.02%,
           Sn-118 less than 0.02%, Sn-117 less than 0.02%,
           Sn-116 less than 0.05%, Sn-114 less than 1% and
           Sn-112 98.9%, had a thickness of 102-mug/cm**2 on
           on carbon backing of 13-mug/cm**2, were used.
DETECTOR   (MAGSP) The Q3D magnetic spectrograph.
           (SWPC) for delta-E-E identification
FACILITY   (VDGT,2GERMUN) The HVEC MP tandem accelerator of the
            Maier-Leibnitz Laboratory of LMU Munich and TU Munich
METHOD     (BCINT) The beam current intensity ranged from 200
            to 350 nA.
           (EDE)
ERR-ANALYS  The uncertainties regarding the target thickness,
           solid angle, collected charge and background
           subtraction at high excitation energies give a
           systematic error of approx.15%. The dead time  was
           negligible.
ADD-RES    (COMP).The distorted wave Born approximation analysis.
            The triton spectra were analyzed.
HISTORY    (20081209C) SB
           (20090518A).Digitizing data were replace to table data
            received from authors.
ENDBIB              34
COMMON               1          3
EN
MEV
        26.
ENDCOMMON            3
ENDSUBENT           41
SUBENT        O1717002   20090816   20100128   20100120       O040
BIB                  6         31
REACTION   (50-SN-112(P,T)50-SN-110,PAR,DA)   fig 2, 3, 4 and 5
EN-SEC     (E-LVL,50-SN-110)
LEVEL-PROP (50-SN-110,E-LVL=0.000,SPIN=0.,PARITY=+1.)
           (50-SN-110,E-LVL=1.212,SPIN=2.,PARITY=+1.)
           (50-SN-110,E-LVL=2.197,SPIN=4.,PARITY=+1.)
           (50-SN-110,E-LVL=2.309,SPIN=0.,PARITY=+1.)
           (50-SN-110,E-LVL=2.462,SPIN=4./3.,PARITY=+1./-1.)
           (50-SN-110,E-LVL=2.478,SPIN=6.,PARITY=+1.)
           (50-SN-110,E-LVL=2.545,SPIN=2.,PARITY=-1.)
           (50-SN-110,E-LVL=2.573,SPIN=0.,PARITY=+1.)
           (50-SN-110,E-LVL=2.694,SPIN=4.,PARITY=+1.)
           (50-SN-110,E-LVL=2.742,SPIN=0.,PARITY=+1.)
           (50-SN-110,E-LVL=2.753,SPIN=6.,PARITY=+1.)
           (50-SN-110,E-LVL=2.857,SPIN=2.,PARITY=+1.)
           (50-SN-110,E-LVL=2.965,SPIN=2.,PARITY=+1.)
           (50-SN-110,E-LVL=3.059,SPIN=4.,PARITY=+1.)
           (50-SN-110,E-LVL=3.083,SPIN=2.,PARITY=+1.)
           (50-SN-110,E-LVL=3.183,SPIN=0.,PARITY=+1.)
           (50-SN-110,E-LVL=3.421,SPIN=2.,PARITY=+1.)
           (50-SN-110,E-LVL=3.540,SPIN=4.,PARITY=+1.)
           (50-SN-110,E-LVL=3.609,SPIN=4.,PARITY=+1.)
           (50-SN-110,E-LVL=3.751,SPIN=2.,PARITY=+1.)
           (50-SN-110,E-LVL=3.813,SPIN=2.,PARITY=+1.)
           (50-SN-110,E-LVL=3.844,SPIN=5.,PARITY=-1.)
           (50-SN-110,E-LVL=3.885,SPIN=3.,PARITY=-1.)
           (50-SN-110,E-LVL=4.132,SPIN=3./5.,PARITY=-1.)
           (50-SN-110,E-LVL=4.317,SPIN=4.,PARITY=+1.)
ERR-ANALYS (DATA-ERR).The uncertainty is reported by authors.
STATUS     (TABLE).Table data received from authors.
           (APRVD).By authors
HISTORY    (20090518A).Table data were input.
ENDBIB              31
NOCOMMON             0          0
DATA                 4        250
E-LVL      ANG-CM     DATA-CM    DATA-ERR
MEV        ADEG       MU-B/SR    MU-B/SR
    0.00000    6.12000 4569.23000   24.20100
    0.00000   10.21000 2901.39000   18.66300
    0.00000   15.31000  628.54100    8.96500
    0.00000   20.41000   65.80100    2.24000
    0.00000   25.50000  312.93000    4.30500
    0.00000   30.59000  552.07100    6.70200
    0.00000   35.68000  510.26500    4.41500
    0.00000   43.30000  272.59600    2.93500
    0.00000   50.91000   43.76200    1.44500
    0.00000   58.50000  144.00300    2.48100
    1.21200    6.13000   28.02100    1.89300
    1.21200   10.22000   90.59100    3.29500
    1.21200   15.32000  163.78200    4.57200
    1.21200   20.42000  194.93200    3.85200
    1.21200   25.52000  149.84800    2.97700
    1.21200   30.62000   68.55400    2.36000
    1.21200   35.71000   30.28700    1.07500
    1.21200   43.34000   36.28000    1.07000
    1.21200   50.95000   34.65400    1.28500
    1.21200   58.55000   21.21600    0.95200
    2.19700    6.13000   15.28700    0.55500
    2.19700   10.22000   15.91700    0.48300
    2.19700   15.33000   16.16400    0.52200
    2.19700   20.43000   22.20700    0.57700
    2.19700   25.53000   30.96200    0.81800
    2.19700   30.63000   37.56200    0.86400
    2.19700   35.72000   26.86700    0.71100
    2.19700   43.35000   14.57000    0.49000
    2.19700   50.97000    8.31100    0.19700
    2.19700   58.57000   13.39400    0.21800
    2.30900    6.13000   39.89100    0.89600
    2.30900   10.22000   23.29700    0.58500
    2.30900   15.33000    5.26300    0.29800
    2.30900   20.43000    1.43900    0.14700
    2.30900   25.54000    5.10500    0.33200
    2.30900   30.63000    6.82700    0.36800
    2.30900   35.73000    4.06600    0.27700
    2.30900   43.36000    1.44900    0.15400
    2.30900   50.97000    0.76000    0.06000
    2.30900   58.57000    1.33200    0.06900
    2.46200    6.13000   25.38500    0.71400
    2.46200   10.22000   30.04100    0.66400
    2.46200   15.33000   32.81900    0.74400
    2.46200   20.44000   41.22400    0.78600
    2.46200   25.54000   44.48400    0.98000
    2.46200   30.64000   44.81700    0.94300
    2.46200   35.73000   34.40500    0.80500
    2.46200   43.36000   22.05600    0.60200
    2.46200   50.98000   16.65200    0.27900
    2.46200   58.58000   14.69000    0.22800
    2.47800    6.13000    7.83900    0.39700
    2.47800   10.22000   10.63700    0.39500
    2.47800   15.33000    7.84200    0.36400
    2.47800   20.44000    8.63300    0.36000
    2.47800   25.54000   10.35900    0.47300
    2.47800   30.64000   12.64800    0.50100
    2.47800   35.73000   14.45400    0.52200
    2.47800   43.36000   19.58400    0.56800
    2.47800   50.98000   16.26400    0.27500
    2.47800   58.58000    9.11400    0.17900
    2.54500    6.13000    9.81700    0.44400
    2.54500   10.22000   17.60100    0.50800
    2.54500   15.33000   31.72700    0.73100
    2.54500   20.44000   31.47200    0.68700
    2.54500   25.54000   24.68700    0.73000
    2.54500   30.64000   10.36400    0.45400
    2.54500   35.73000    5.77200    0.33000
    2.54500   43.37000    9.11700    0.38700
    2.54500   50.98000    7.25700    0.18400
    2.54500   58.58000    2.83000    0.10000
    2.57300    6.13000   22.14000    0.66700
    2.57300   10.22000   12.97000    0.43600
    2.57300   15.33000    2.82700    0.21800
    2.57300   20.44000    1.38800    0.14400
    2.57300   25.54000    3.53400    0.27600
    2.57300   30.64000    4.05500    0.28400
    2.57300   35.74000    2.72900    0.22700
    2.57300   43.37000    0.83200    0.11700
    2.57300   50.98000    0.16300    0.02800
    2.57300   58.58000    0.66000    0.04800
    2.69400    6.13000    1.33000    0.16300
    2.69400   10.22000    1.48400    0.14800
    2.69400   15.33000    1.76200    0.17200
    2.69400   20.44000    3.00500    0.21200
    2.69400   25.54000    5.45600    0.34300
    2.69400   30.64000    6.50700    0.35900
    2.69400   35.74000    5.09200    0.31000
    2.69400   43.37000    2.76500    0.21300
    2.69400   50.99000    1.66900    0.08800
    2.69400   58.59000    2.19800    0.08800
    2.74200    6.13000   44.25600    0.94300
    2.74200   10.22000   27.04700    0.63000
    2.74200   15.33000    6.62700    0.33400
    2.74200   20.44000    4.54600    0.26100
    2.74200   25.55000   10.25400    0.47000
    2.74200   30.65000   11.38400    0.47500
    2.74200   35.74000    6.68300    0.35500
    2.74200   43.37000    1.87500    0.17600
    2.74200   50.99000    0.46600    0.04700
    2.74200   58.59000    2.12600    0.08700
    2.75300    6.14000    0.87500    0.13300
    2.75300   10.22000    1.14700    0.13000
    2.75300   15.33000    1.07900    0.13500
    2.75300   20.44000    1.27300    0.13800
    2.75300   25.55000    1.79100    0.19700
    2.75300   30.65000    2.42000    0.21900
    2.75300   35.74000    2.21400    0.20400
    2.75300   43.37000    2.81300    0.21500
    2.75300   50.99000    2.16500    0.10000
    2.75300   58.59000    1.26500    0.06700
    2.85700    6.14000    3.27900    0.25700
    2.85700   10.23000    3.97100    0.24100
    2.85700   15.34000    4.82100    0.28500
    2.85700   20.44000    5.39200    0.28400
    2.85700   25.55000    4.02900    0.29500
    2.85700   30.65000    2.69200    0.23100
    2.85700   35.74000    1.31700    0.15700
    2.85700   43.38000    2.15700    0.18800
    2.85700   50.99000    1.88500    0.09400
    2.85700   58.59000    0.97400    0.05900
    2.96500    6.14000    4.72400    0.30800
    2.96500   10.23000    7.20600    0.32500
    2.96500   15.34000    9.99000    0.41000
    2.96500   20.45000   11.48600    0.41500
    2.96500   25.55000    7.79800    0.41000
    2.96500   30.65000    3.59600    0.26700
    2.96500   35.75000    2.16900    0.20200
    2.96500   43.38000    3.69200    0.24600
    2.96500   51.00000    3.46900    0.12700
    2.96500   58.60000    1.36000    0.06900
    3.05900    6.14000    4.58500    0.30300
    3.05900   10.23000    5.10700    0.27400
    3.05900   15.34000    6.37300    0.32800
    3.05900   20.45000   11.06700    0.40700
    3.05900   25.55000   17.87900    0.62100
    3.05900   30.65000   22.09200    0.66200
    3.05900   35.75000   17.30800    0.57100
    3.05900   43.38000    8.68600    0.37800
    3.05900   51.00000    5.86000    0.16500
    3.05900   58.60000    8.30600    0.17100
    3.08300    6.14000    7.11800    0.37800
    3.08300   10.23000    8.83600    0.36000
    3.08300   15.34000   11.86000    0.44700
    3.08300   20.45000   13.30300    0.44600
    3.08300   25.55000   10.16200    0.46800
    3.08300   30.65000    4.83200    0.31000
    3.08300   35.75000    3.10800    0.24200
    3.08300   43.38000    3.99800    0.25600
    3.08300   51.00000    3.36700    0.12500
    3.08300   58.60000    1.48700    0.07200
    3.18300    6.14000   37.86600    0.87200
    3.18300   10.23000   22.47500    0.57400
    3.18300   15.34000    5.34500    0.30000
    3.18300   20.45000    5.99500    0.30000
    3.18300   25.56000   12.26300    0.51400
    3.18300   30.66000   12.12200    0.49000
    3.18300   35.75000    6.26900    0.34300
    3.18300   43.39000    1.44200    0.15400
    3.18300   51.01000    0.41900    0.04400
    3.18300   58.61000    1.52400    0.07300
    3.42100    6.14000    2.08300    0.20400
    3.42100   10.23000    2.66800    0.19800
    3.42100   15.34000    3.77100    0.25200
    3.42100   20.45000    5.16000    0.27800
    3.42100   25.56000    4.31000    0.30500
    3.42100   30.66000    2.27900    0.21300
    3.42100   35.76000    1.46400    0.16600
    3.42100   43.40000    1.63200    0.16400
    3.42100   51.02000    1.01700    0.06900
    3.42100   58.62000    0.73800    0.05100
    3.54000    6.14000    0.40100    0.09000
    3.54000   10.23000    0.45400    0.08200
    3.54000   15.35000    0.62500    0.10300
    3.54000   20.46000    1.06100    0.12600
    3.54000   25.56000    1.71400    0.19200
    3.54000   30.67000    2.07700    0.20300
    3.54000   35.77000    1.58100    0.17200
    3.54000   43.40000    0.80800    0.11500
    3.54000   51.02000    0.57200    0.05200
    3.54000   58.63000    0.61900    0.04700
    3.60900    6.14000    0.90100    0.13400
    3.60900   10.23000    0.95900    0.11900
    3.60900   15.35000    0.95800    0.12700
    3.60900   20.46000    1.97200    0.17200
    3.60900   25.57000    2.51100    0.23300
    3.60900   30.67000    2.95200    0.24200
    3.60900   35.77000    2.48200    0.21600
    3.60900   43.40000    1.52800    0.15800
    3.60900   51.03000    0.90500    0.06500
    3.60900   58.63000    1.28500    0.06700
    3.75100    6.14000    2.33400    0.21600
    3.75100   10.23000    3.40900    0.22300
    3.75100   15.35000    4.90200    0.28700
    3.75100   20.46000    4.71100    0.26500
    3.75100   25.57000    3.05400    0.25600
    3.75100   30.67000    1.14400    0.15100
    3.75100   35.77000    0.82700    0.12500
    3.75100   43.41000    1.59600    0.16200
    3.75100   51.03000    1.08700    0.07100
    3.75100   58.64000    0.24300    0.02900
    3.81300    6.14000    5.22900    0.32400
    3.81300   10.23000    5.69600    0.28900
    3.81300   15.35000    6.67400    0.33500
    3.81300   20.46000    6.82500    0.31900
    3.81300   25.57000    5.10800    0.33200
    3.81300   30.68000    3.69200    0.27000
    3.81300   35.77000    1.85900    0.18700
    3.81300   43.41000    2.96900    0.22100
    3.81300   51.03000    2.49500    0.10800
    3.81300   58.64000    1.58100    0.07500
    3.84400    6.14000    3.69600    0.27200
    3.84400   10.23000    4.11000    0.24500
    3.84400   15.35000    4.32200    0.27000
    3.84400   20.46000    4.71000    0.26500
    3.84400   25.57000    5.36000    0.34000
    3.84400   30.68000    6.49500    0.35900
    3.84400   35.78000    6.44200    0.34800
    3.84400   43.41000    4.96100    0.28500
    3.84400   51.04000    3.14100    0.12100
    3.84400   58.64000    1.95200    0.08300
    3.88500    6.14000    1.48100    0.17200
    3.88500   10.24000    1.36600    0.14100
    3.88500   15.35000    1.52200    0.16000
    3.88500   20.46000    1.28000    0.13800
    3.88500   25.57000    1.11200    0.15500
    3.88500   30.68000    1.15700    0.15100
    3.88500   35.78000    0.99700    0.13700
    3.88500   43.42000    0.49300    0.09000
    3.88500   51.04000    0.48200    0.04700
    3.88500   58.64000    0.42000    0.03800
    4.13200    6.14000    1.87000    0.19400
    4.13200   10.24000    1.92600    0.16800
    4.13200   15.35000    2.08100    0.18700
    4.13200   20.47000    2.09100    0.17700
    4.13200   25.58000    2.08600    0.21200
    4.13200   30.68000    2.04900    0.20100
    4.13200   35.79000    1.61300    0.17400
    4.13200   43.43000    1.45400    0.15500
    4.13200   51.05000    1.29200    0.07800
    4.13200   58.65000    0.95700    0.05800
    4.31700    6.14000    0.54100    0.10400
    4.31700   10.24000    0.85700    0.11200
    4.31700   15.36000    1.01100    0.13000
    4.31700   20.47000    1.74300    0.16100
    4.31700   25.58000    2.01500    0.20800
    4.31700   30.69000    2.28600    0.21300
    4.31700   35.79000    1.88700    0.18800
    4.31700   43.43000    1.04400    0.13100
    4.31700   51.06000    0.67700    0.05600
    4.31700   58.66000    0.74100    0.05100
ENDDATA            252
ENDSUBENT          288
SUBENT        O1717003   20090816   20100128   20100120       O040
BIB                  4          6
REACTION   (50-SN-112(P,T)50-SN-110,PAR,IPA)
ANALYSIS   (INTAD) The integrated cross sections from
            ANG-MIN/MAX=6/57.5 deg.
ERR-ANALYS (ERR-S).The uncertainties is reported by authors.
STATUS     (TABLE).Table 2
           (DEP,O1717002)
ENDBIB               6
COMMON               2          3
ANG-MIN    ANG-MAX
ADEG       ADEG
6.         57.5
ENDCOMMON            3
DATA                 3         25
E-LVL      DATA       ERR-S
MEV        MICRO-B    MICRO-B
0.0        1309.      14.
1.212      198.       6.
2.197      61.        2.
2.309      12.        1.
2.462      88.        2.
2.478      44.        1.
2.545      36.        1.
2.573      7.1        0.5
2.694      11.        1.
2.742      18.        1.
2.753      6.5        0.5
2.857      7.7        0.5
2.965      14.        1.
3.059      36.        1.
3.083      16.        1.
3.183      17.        1.
3.421      6.3        0.5
3.540      3.3        0.4
3.609      5.5        0.5
3.751      5.3        0.4
3.812      11.        1.
3.844      14.        1.
3.885      2.6        0.3
4.132      5.1        0.4
4.317      4.1        0.4
ENDDATA             27
ENDSUBENT           42
ENDENTRY             3
