ENTRY            O1717   20081209   20090323   20090318       O038
SUBENT        O1717001   20081209   20090323   20090318       O038
BIB                 12         53
TITLE      Spectroscopy of Sn-110 via the high-resolution
           Sn-112(p,t)Sn-110 reaction.
AUTHOR     (P.Guazzoni, L.Zetta, A.Covello, A.Gargano, B.F.Bayman,
           G.Graw, R.Hertenberger, H.-F.Wirth, M.Jaskola)
INSTITUTE  (2ITYMIL)
           (2ITYNAP)
           (1USAMIN)
           (2GERMUN)
           (3POLIPJ)
REFERENCE  (J,PR/C,74,054605,2006)
SAMPLE     The Sn-112 target, isotopic enrichment-
           Sn-124 less than 0.02%, Sn-122 less than 0.02%,
           Sn-120 less than 0.02%, Sn-119 less than 0.02%,
           Sn-118 less than 0.02%, Sn-117 less than 0.02%,
           Sn-116 less than 0.05%, Sn-114 less than 1% and
           Sn-112 98.9%, had a thickness of 102-mug/cm**2 on
           on carbon backing of 13-mug/cm**2, were used.
DETECTOR   (MAGSP) The Q3D magnetic spectrograph.
           (SWPC) for delta-E-E identification
FACILITY   (VDGT,2GERMUN) The HVEC MP tandem accelerator of the
            Maier-Leibnitz Laboratory of LMU Munich and TU Munich
METHOD     (BCINT) The beam current intensity ranged from 200
            to 350 nA.
           (EDE)
ADD-RES    (COMP).The distorted wave Born approximation analysis.
            The triton spectra were analyzed.
HISTORY    (20081209C) SB
EN-SEC     (E-LVL,50-SN-110)
LEVEL-PROP (50-SN-110,E-LVL=0.000,SPIN=0.,PARITY=+1.)
           (50-SN-110,E-LVL=1.212,SPIN=2.,PARITY=+1.)
           (50-SN-110,E-LVL=2.197,SPIN=4.,PARITY=+1.)
           (50-SN-110,E-LVL=2.309,SPIN=0.,PARITY=+1.)
           (50-SN-110,E-LVL=2.462,SPIN=4.,PARITY=+1.) or 3-
           (50-SN-110,E-LVL=2.478,SPIN=6.,PARITY=+1.)
           (50-SN-110,E-LVL=2.545,SPIN=2.,PARITY=-1.)
           (50-SN-110,E-LVL=2.573,SPIN=0.,PARITY=+1.)
           (50-SN-110,E-LVL=2.694,SPIN=4.,PARITY=+1.)
           (50-SN-110,E-LVL=2.742,SPIN=0.,PARITY=+1.)
           (50-SN-110,E-LVL=2.753,SPIN=6.,PARITY=+1.)
           (50-SN-110,E-LVL=2.857,SPIN=2.,PARITY=+1.)
           (50-SN-110,E-LVL=2.965,SPIN=2.,PARITY=+1.)
           (50-SN-110,E-LVL=3.059,SPIN=4.,PARITY=+1.)
           (50-SN-110,E-LVL=3.083,SPIN=2.,PARITY=+1.)
           (50-SN-110,E-LVL=3.183,SPIN=0.,PARITY=+1.)
           (50-SN-110,E-LVL=3.421,SPIN=2.,PARITY=+1.)
           (50-SN-110,E-LVL=3.540,SPIN=4.,PARITY=+1.)
           (50-SN-110,E-LVL=3.609,SPIN=4.,PARITY=+1.)
           (50-SN-110,E-LVL=3.751,SPIN=2.,PARITY=+1.)
           (50-SN-110,E-LVL=3.812,SPIN=2.,PARITY=+1.)
           (50-SN-110,E-LVL=3.844,SPIN=5.,PARITY=-1.)
           (50-SN-110,E-LVL=3.885,SPIN=3.,PARITY=-1.)
           (50-SN-110,E-LVL=4.132,SPIN=3.,PARITY=-1.) or 5-
           (50-SN-110,E-LVL=4.317,SPIN=4.,PARITY=+1.)
ENDBIB              53
COMMON               1          3
EN
MEV
        26.
ENDCOMMON            3
ENDSUBENT           60
SUBENT        O1717002   20081209   20090323   20090318       O038
BIB                  3          9
REACTION   (50-SN-112(P,T)50-SN-110,PAR,DA)   fig 2, 3, 4 and 5
ERR-ANALYS (DATA-ERR).The uncertainties regarding the target
           thickness, solid angle, collected charge and background
           subtraction at high excitation energies give a
           systematic error of approx.15%. The dead time  was
           negligible.
           (ERR-DIG).Digitizing error of data.
           (ANG-ERR-D).Digitizing error of angle.
STATUS     (CURVE).By CAJAD
ENDBIB               9
COMMON               3          3
DATA-ERR   ANG-ERR-D  ERR-DIG
PER-CENT   ADEG       PER-CENT
15.        0.24       5.
ENDCOMMON            3
DATA                 3        250
E-LVL      ANG-CM     DATA-CM
MEV        ADEG       MU-B/SR
    0.00000    5.84000 4240.00000
    0.00000    9.56000 2820.00000
    0.00000   14.64000  598.00000
    0.00000   19.71000   66.30000
    0.00000   24.96000  311.00000
    0.00000   30.22000  563.00000
    0.00000   35.46000  518.00000
    0.00000   43.08000  284.00000
    0.00000   50.70000   46.10000
    0.00000   58.32000  144.00000
    1.21200    6.72000   27.20000
    1.21200   10.74000   85.00000
    1.21200   15.55000  156.00000
    1.21200   20.94000  166.00000
    1.21200   25.92000  142.00000
    1.21200   30.69000   60.00000
    1.21200   36.66000   25.00000
    1.21200   43.86000   31.60000
    1.21200   51.44000   26.80000
    1.21200   58.61000   16.60000
    2.19700    7.19000   15.80000
    2.19700   11.09000   15.80000
    2.19700   16.00000   15.80000
    2.19700   21.26000   24.20000
    2.19700   26.35000   30.40000
    2.19700   31.27000   38.30000
    2.19700   36.35000   27.10000
    2.19700   43.80000   15.30000
    2.19700   51.24000    8.30000
    2.19700   59.05000   13.10000
    2.30900    5.66000   40.20000
    2.30900    9.72000   22.40000
    2.30900   14.96000    5.06000
    2.30900   19.87000    1.38000
    2.30900   25.12000    4.78000
    2.30900   30.20000    6.19000
    2.30900   35.28000    3.73000
    2.30900   43.41000    1.29000
    2.30900   50.85000    0.69500
    2.30900   58.48000    1.17000
    2.46200    6.09000   26.40000
    2.46200   10.42000   32.10000
    2.46200   14.93000   34.30000
    2.46200   20.47000   44.50000
    2.46200   25.16000   45.90000
    2.46200   30.54000   45.90000
    2.46200   35.41000   34.30000
    2.46200   43.06000   21.80000
    2.46200   50.71000   16.30000
    2.46200   58.35000   14.30000
    2.47800    6.74000    7.80000
    2.47800   10.81000   10.50000
    2.47800   15.72000    8.10000
    2.47800   20.98000    8.70000
    2.47800   25.89000   10.20000
    2.47800   30.98000   12.30000
    2.47800   35.90000   14.80000
    2.47800   43.53000   20.10000
    2.47800   51.33000   16.60000
    2.47800   58.43000    9.40000
    2.54500    6.85000    9.40000
    2.54500   10.85000   17.40000
    2.54500   15.86000   32.00000
    2.54500   21.25000   30.30000
    2.54500   26.03000   24.00000
    2.54500   31.20000    9.80000
    2.54500   36.38000    5.20000
    2.54500   43.77000    8.30000
    2.54500   51.35000    6.60000
    2.54500   58.72000    2.67000
    2.57300    5.47000   22.40000
    2.57300    9.87000   13.00000
    2.57300   14.78000    2.90000
    2.57300   19.86000    1.28000
    2.57300   25.11000    3.60000
    2.57300   30.36000    4.13000
    2.57300   35.27000    2.67000
    2.57300   43.22000    0.85000
    2.57300   50.84000    0.15600
    2.57300   58.63000    0.64600
    2.69400    7.10000    1.27000
    2.69400   10.83000    1.48000
    2.69400   15.91000    1.74000
    2.69400   21.01000    2.87000
    2.69400   25.94000    5.70000
    2.69400   30.86000    7.00000
    2.69400   35.93000    5.40000
    2.69400   43.72000    2.88000
    2.69400   51.17000    1.72000
    2.69400   58.97000    2.46000
    2.74200    5.46000   41.60000
    2.74200    9.86000   26.90000
    2.74200   14.94000    6.36000
    2.74200   19.85000    4.35000
    2.74200   25.10000   10.10000
    2.74200   30.35000   11.30000
    2.74200   35.59000    6.54000
    2.74200   43.38000    1.92000
    2.74200   51.16000    0.48000
    2.74200   58.62000    2.14000
    2.75300    6.82000    0.83000
    2.75300   10.89000    1.12000
    2.75300   15.64000    1.13000
    2.75300   20.73000    1.33000
    2.75300   25.48000    1.88000
    2.75300   30.74000    2.46000
    2.75300   35.65000    2.30000
    2.75300   43.28000    3.04000
    2.75300   50.91000    2.37000
    2.75300   58.35000    1.37000
    2.85700    6.37000    2.93000
    2.85700   10.57000    3.64000
    2.85700   15.56000    4.70000
    2.85700   21.15000    5.30000
    2.85700   26.14000    3.85000
    2.85700   31.12000    2.65000
    2.85700   36.09000    1.21000
    2.85700   43.89000    1.96000
    2.85700   51.67000    1.61000
    2.85700   58.84000    0.80000
    2.96500    6.28000    4.45000
    2.96500   10.68000    6.50000
    2.96500   15.48000    9.60000
    2.96500   21.07000   10.80000
    2.96500   25.85000    7.20000
    2.96500   31.22000    3.11000
    2.96500   36.20000    1.99000
    2.96500   44.00000    3.31000
    2.96500   51.18000    3.12000
    2.96500   58.74000    1.17000
    3.05900    7.20000    4.88000
    3.05900   11.44000    5.50000
    3.05900   16.19000    7.00000
    3.05900   21.12000   12.10000
    3.05900   26.04000   18.60000
    3.05900   30.96000   23.70000
    3.05900   36.21000   19.70000
    3.05900   43.65000    8.90000
    3.05900   51.10000    6.40000
    3.05900   58.74000    9.20000
    3.08300    6.58000    6.50000
    3.08300   10.78000    8.80000
    3.08300   15.58000   11.40000
    3.08300   20.77000   14.20000
    3.08300   26.15000   10.00000
    3.08300   30.92000    4.80000
    3.08300   36.30000    2.84000
    3.08300   43.89000    4.02000
    3.08300   51.67000    3.38000
    3.08300   58.84000    1.61000
    3.18300    5.45000   38.50000
    3.18300    9.68000   23.60000
    3.18300   14.75000    5.17000
    3.18300   20.17000    6.07000
    3.18300   25.08000   12.30000
    3.18300   30.50000   12.20000
    3.18300   35.58000    6.20000
    3.18300   43.37000    1.51000
    3.18300   51.15000    0.42300
    3.18300   58.77000    1.51000
    3.42100    6.50000    2.00000
    3.42100   10.30000    2.71000
    3.42100   15.70000    3.65000
    3.42100   20.70000    4.90000
    3.42100   26.08000    4.27000
    3.42100   31.05000    1.99000
    3.42100   36.03000    1.26000
    3.42100   44.02000    1.42000
    3.42100   51.19000    0.82000
    3.42100   58.77000    0.65000
    3.54000    6.94000    0.38400
    3.54000   10.67000    0.42500
    3.54000   15.93000    0.59000
    3.54000   20.86000    0.94000
    3.54000   25.95000    1.58000
    3.54000   30.87000    1.94000
    3.54000   35.95000    1.30000
    3.54000   43.74000    0.72000
    3.54000   51.19000    0.47700
    3.54000   58.65000    0.50000
    3.60900    6.53000    0.85000
    3.60900   11.11000    0.97000
    3.60900   15.69000    1.01000
    3.60900   20.95000    2.03000
    3.60900   26.04000    2.58000
    3.60900   30.79000    3.14000
    3.60900   36.04000    2.83000
    3.60900   43.66000    1.68000
    3.60900   51.11000    1.00000
    3.60900   58.57000    1.49000
    3.75100    6.20000    2.35000
    3.75100   10.60000    3.38000
    3.75100   15.80000    5.10000
    3.75100   20.59000    4.90000
    3.75100   25.77000    3.19000
    3.75100   30.94000    1.12000
    3.75100   36.32000    0.90000
    3.75100   43.72000    1.79000
    3.75100   51.10000    1.22000
    3.75100   58.84000    0.25200
    3.81200    6.32000    5.20000
    3.81200   10.31000    5.80000
    3.81200   15.31000    6.90000
    3.81200   20.70000    6.80000
    3.81200   25.88000    4.70000
    3.81200   31.06000    3.43000
    3.81200   36.03000    1.66000
    3.81200   43.63000    2.55000
    3.81200   51.01000    2.10000
    3.81200   58.58000    1.39000
    3.84400    5.74000    3.70000
    3.84400    9.73000    4.19000
    3.84400   14.94000    4.30000
    3.84400   19.79000    4.57000
    3.84400   25.17000    5.17000
    3.84400   30.20000    6.05000
    3.84400   35.23000    6.01000
    3.84400   43.05000    4.57000
    3.84400   50.53000    2.95000
    3.84400   58.00000    1.78000
    3.88500    5.54000    1.44000
    3.88500    9.53000    1.35000
    3.88500   14.74000    1.55000
    3.88500   19.78000    1.24000
    3.88500   25.16000    1.17000
    3.88500   30.19000    1.18000
    3.88500   35.23000    1.04000
    3.88500   42.89000    0.51200
    3.88500   50.53000    0.48400
    3.88500   57.65000    0.42900
    4.13200    6.26000    1.86000
    4.13200   10.25000    1.87000
    4.13200   15.45000    2.00000
    4.13200   20.48000    1.99000
    4.13200   25.34000    1.98000
    4.13200   30.72000    1.97000
    4.13200   35.76000    1.58000
    4.13200   43.23000    1.39000
    4.13200   50.87000    1.22000
    4.13200   58.34000    0.94000
    4.31700    6.65000    0.58000
    4.31700   10.72000    0.87000
    4.31700   15.81000    1.04000
    4.31700   20.74000    1.75000
    4.31700   26.00000    2.09000
    4.31700   30.91000    2.23000
    4.31700   36.16000    1.83000
    4.31700   43.61000    0.99000
    4.31700   51.06000    0.62000
    4.31700   58.52000    0.69000
ENDDATA            252
ENDSUBENT          270
SUBENT        O1717003   20081209   20090323   20090318       O038
BIB                  4         10
REACTION   (50-SN-112(P,T)50-SN-110,PAR,SIG)
ANALYSIS   (INTAD) The integrated cross sections from 6 to 57.5
           degree.
ERR-ANALYS (ERR-T).The uncertainties regarding the target
           thickness, solid angle, collected charge and background
           subtraction at high excitation energies give a
           systematic error of approx.15% together with the
           statistical errors. The dead time was negligible.
STATUS     (TABLE).Table 2
           (DEP,O1717002)
ENDBIB              10
NOCOMMON             0          0
DATA                 3         25
E-LVL      DATA       ERR-T
MEV        MICRO-B    MICRO-B
0.0        1309.      14.
1.212      198.       6.
2.197      61.        2.
2.309      12.        1.
2.462      88.        2.
2.478      44.        1.
2.545      36.        1.
2.573      7.1        0.5
2.694      11.        1.
2.742      18.        1.
2.753      6.5        0.5
2.857      7.7        0.5
2.965      14.        1.
3.059      36.        1.
3.083      16.        1.
3.183      17.        1.
3.421      6.3        0.5
3.540      3.3        0.4
3.609      5.5        0.5
3.751      5.3        0.4
3.812      11.        1.
3.844      14.        1.
3.885      2.6        0.3
4.132      5.1        0.4
4.317      4.1        0.4
ENDDATA             27
ENDSUBENT           42
ENDENTRY             3
