ENTRY            O1756   20090707   20100128   20100120       O040
SUBENT        O1756001   20090707   20100128   20100120       O040
BIB                 10         16
TITLE      A study of the states of Si-30 with the Si-28(t,p)Si-30
           and Si-29(d,p)Si-30 reactions.
AUTHOR     (A.M.Baxter, S.Hinds)
INSTITUTE  (3AULCBR)
REFERENCE  (J,NP/A,211,7,1973)
DETECTOR   (MAGSP) Multi-angle magnetic spectrograph
           (PLATE).50 mum Ilford K-1 emulsions.
METHOD     (SITA)
ADD-RES    (COMP).DWBA analysis.
           (P-SPC).Proton energy spectrum Si-28(t,p)Si-30 and
           Si-29(d,p)Si-30 reactions were observed.
           (POT)
STATUS     (CURVE) By CAJAD.
ERR-ANALYS (ANG-ERR-D).Digitizing error of angle.
           (ERR-DIG).Digitizing error of data.
HISTORY    (20090707C) SB
ENDBIB              16
NOCOMMON             0          0
ENDSUBENT           19
SUBENT        O1756002   20090707   20100128   20100120       O040
BIB                  6         12
REACTION   (14-SI-28(T,P)14-SI-30,PAR,DA,,REL) fig 2,3
EN-SEC     (E-LVL,14-SI-30)
SAMPLE     Self-supporting targets of SiO(2) were used.
           The isotopic enrichment is 95% of Si-28.
FACILITY   (VDG,2UK ALD) 6 MV Van de Graaff accelerator.
COMMENT    *By authors*.In reaction the thickness of the
           target was not known with sufficient accuracy to permit
           calculation of reliable values of absolute cross
           section.
ERR-ANALYS (ERR-S).The errors are mainly statistical, but include,
           where necessary, an allowance for unfolding from other
           nearby groups.
ENDBIB              12
COMMON               2          3
ANG-ERR-D  ERR-DIG
ADEG       PER-CENT
0.6        2.8
ENDCOMMON            3
DATA                 5       1215
EN         E-LVL      ANG-CM     DATA-CM    ERR-S
MEV        MEV        ADEG       ARB-UNITS  PER-CENT
   10.50000    0.00000    2.20000  921.00000
   10.50000    0.00000    8.90000  423.00000
   10.50000    0.00000   16.70000   83.40000
   10.50000    0.00000   24.70000   47.80000
   10.50000    0.00000   33.10000   47.30000
   10.50000    0.00000   40.90000    7.90000   15.00000
   10.50000    0.00000   48.80000   12.70000   10.00000
   10.50000    0.00000   56.00000   51.30000
   10.50000    0.00000   64.40000   71.40000
   10.50000    0.00000   72.40000   47.10000
   10.50000    0.00000   79.60000   14.80000
   10.50000    0.00000   87.70000    8.30000   13.00000
   10.50000    0.00000   92.90000   10.41000
   10.50000    0.00000   99.40000   23.90000
   10.50000    0.00000  107.80000   21.80000
   10.50000    0.00000  115.30000   16.60000
   10.50000    0.00000  122.50000    8.20000   15.00000
   10.50000    0.00000  129.20000    4.40000   20.00000
   10.50000    0.00000  137.30000    2.70000   22.00000
   10.50000    0.00000  144.60000    6.20000   13.00000
   10.50000    0.00000  152.00000   15.80000
   10.50000    0.00000  158.60000   15.90000
   10.50000    0.00000  165.70000   15.40000
   10.50000    0.00000  173.20000    8.70000   11.00000
   10.50000    2.23000   21.60000   98.90000
   10.50000    2.23000   29.60000  123.00000
   10.50000    2.23000   37.90000   77.10000
   10.50000    2.23000   45.00000   26.70000
   10.50000    2.23000   52.50000   14.30000
   10.50000    2.23000   60.80000   15.40000
   10.50000    2.23000   67.40000   16.60000
   10.50000    2.23000   74.90000   21.10000    7.00000
   10.50000    2.23000   82.90000   28.30000
   10.50000    2.23000   90.80000   22.60000
   10.50000    2.23000   96.50000   17.70000
   10.50000    2.23000  104.00000   10.90000
   10.50000    2.23000  111.10000    8.60000   14.00000
   10.50000    2.23000  118.50000   10.00000    8.00000
   10.50000    2.23000  125.20000   10.00000    8.00000
   10.50000    2.23000  132.20000   15.70000
   10.50000    2.23000  139.70000   11.60000   10.00000
   10.50000    2.23000  147.20000   17.60000
   10.50000    2.23000  154.70000   15.20000
   10.50000    2.23000  161.70000   13.20000    7.00000
   10.50000    2.23000  169.20000   16.10000
   10.50000    2.23000  176.70000   19.90000
   10.50000    3.51000    8.50000  367.00000
   10.50000    3.51000   15.10000  403.00000
   10.50000    3.51000   24.00000  460.00000
   10.50000    3.51000   31.00000  449.00000
   10.50000    3.51000   36.70000  361.00000
   10.50000    3.51000   38.90000  280.00000
   10.50000    3.51000   46.80000  172.00000
   10.50000    3.51000   55.20000  135.00000   10.00000
   10.50000    3.51000   62.20000  143.00000    8.00000
   10.50000    3.51000   69.70000  142.00000    6.00000
   10.50000    3.51000   77.20000  106.00000    8.00000
   10.50000    3.51000   85.10000   83.00000   10.00000
   10.50000    3.51000   92.70000   99.00000    9.00000
   10.50000    3.51000   97.90000   78.00000    9.00000
   10.50000    3.51000  105.00000   82.00000   10.00000
   10.50000    3.51000  112.50000   81.00000   14.00000
   10.50000    3.51000  120.90000   82.00000   10.00000
   10.50000    3.51000  127.50000  103.00000    8.00000
   10.50000    3.51000  135.50000  120.00000    9.00000
   10.50000    3.51000  143.00000  153.00000    6.00000
   10.50000    3.51000  149.60000   89.00000   10.00000
   10.50000    3.51000  156.20000   71.00000   10.00000
   10.50000    3.51000  164.10000   86.00000   13.00000
   10.50000    3.51000  170.80000  124.00000    7.00000
   10.50000    3.51000  178.30000  198.00000
   10.50000    5.22000    5.90000   29.00000   21.00000
   10.50000    5.22000   13.30000   92.00000   15.00000
   10.50000    5.22000   21.70000  116.00000   16.00000
   10.50000    5.22000   29.10000  141.00000
   10.50000    5.22000   37.00000  135.00000    7.00000
   10.50000    5.22000   44.50000  132.00000    9.00000
   10.50000    5.22000   52.40000   86.00000    9.00000
   10.50000    5.22000   59.90000   55.00000   13.00000
   10.50000    5.22000   67.80000   31.00000   16.00000
   10.50000    5.22000   75.20000   18.00000   22.00000
   10.50000    5.22000   83.10000   31.00000   19.00000
   10.50000    5.22000   90.10000   27.00000   15.00000
   10.50000    5.22000   95.40000   45.00000   16.00000
   10.50000    5.22000  102.90000   43.00000   12.00000
   10.50000    5.22000  110.30000   54.00000   15.00000
   10.50000    5.22000  117.40000   37.00000   14.00000
   10.50000    5.22000  125.30000   49.00000   10.00000
   10.50000    5.22000  131.80000   69.00000   16.00000
   10.50000    5.22000  139.30000   55.00000   16.00000
   10.50000    5.22000  146.80000   58.00000   10.00000
   10.50000    5.22000  153.40000   57.00000   11.00000
   10.50000    5.22000  160.80000   50.00000   10.00000
   10.50000    5.22000  169.20000   21.00000   24.00000
   10.50000    5.27000    4.50000  550.00000   27.00000
   10.50000    5.27000   12.40000  660.00000   17.00000
   10.50000    5.27000   20.70000 1270.00000
   10.50000    5.27000   28.10000 1810.00000
   10.50000    5.27000   35.10000 2080.00000
   10.50000    5.27000   44.20000 2630.00000
   10.50000    5.27000   51.30000 2680.00000
   10.50000    5.27000   58.70000 2420.00000
   10.50000    5.27000   67.50000 1630.00000
   10.50000    5.27000   74.10000 1180.00000   16.00000
   10.50000    5.27000   82.90000  750.00000    8.00000
   10.50000    5.27000   89.50000  720.00000   11.00000
   10.50000    5.27000   94.70000  780.00000   12.00000
   10.50000    5.27000  102.10000  840.00000   11.00000
   10.50000    5.27000  110.00000  810.00000   12.00000
   10.50000    5.27000  117.50000  790.00000   11.00000
   10.50000    5.27000  123.60000  730.00000   15.00000
   10.50000    5.27000  131.50000  700.00000   13.00000
   10.50000    5.27000  138.90000  700.00000   13.00000
   10.50000    5.27000  146.40000  650.00000   11.00000
   10.50000    5.27000  153.40000  690.00000   12.00000
   10.50000    5.27000  161.30000  700.00000   16.00000
   10.50000    5.27000  167.40000  700.00000   14.00000
   10.50000    5.27000  175.30000  590.00000   15.00000
   10.50000    5.37000    1.90000   43.00000    9.00000
   10.50000    5.37000    9.40000   18.30000    8.00000
   10.50000    5.37000   17.90000    5.80000    9.00000
   10.50000    5.37000   24.60000    2.00000   20.00000
   10.50000    5.37000   33.60000    2.90000   14.00000
   10.50000    5.37000   41.80000    3.30000   15.00000
   10.50000    5.37000   56.70000    1.70000   18.00000
   10.50000    5.37000   64.10000    1.80000   17.00000
   10.50000    5.37000   71.90000    1.70000   24.00000
   10.50000    5.37000   78.30000    2.50000   16.00000
   10.50000    5.37000   80.00000    2.05000   13.00000
   10.50000    5.37000   87.10000    1.10000   27.00000
   10.50000    5.37000   91.90000    1.02000   27.00000
   10.50000    5.37000   98.90000    0.61000   30.00000
   10.50000    5.37000  106.60000    1.10000   27.00000
   10.50000    5.37000  113.20000    0.63000   30.00000
   10.50000    5.37000  120.90000    0.82000   30.00000
   10.50000    5.37000  127.70000    1.40000   29.00000
   10.50000    5.37000  135.50000    1.60000   25.00000
   10.50000    5.37000  142.80000    2.50000   16.00000
   10.50000    5.37000  149.10000    4.20000   12.00000
   10.50000    5.37000  157.00000    3.60000   14.00000
   10.50000    5.37000  163.80000    4.50000   16.00000
   10.50000    5.37000  171.20000    3.70000   14.00000
   10.50000    5.48000    6.40000  108.00000   16.00000
   10.50000    5.48000   13.80000  441.00000
   10.50000    5.48000   22.10000  925.00000
   10.50000    5.48000   30.00000 1690.00000
   10.50000    5.48000   37.40000 1900.00000
   10.50000    5.48000   45.80000 1400.00000
   10.50000    5.48000   53.60000  748.00000
   10.50000    5.48000   61.10000  369.00000
   10.50000    5.48000   69.00000  256.00000
   10.50000    5.48000   76.40000  313.00000
   10.50000    5.48000   83.90000  331.00000
   10.50000    5.48000   91.30000  365.00000
   10.50000    5.48000   96.60000  350.00000
   10.50000    5.48000  103.60000  316.00000
   10.50000    5.48000  111.50000  258.00000
   10.50000    5.48000  118.00000  165.00000
   10.50000    5.48000  126.40000  140.00000
   10.50000    5.48000  133.40000  186.00000
   10.50000    5.48000  140.40000  231.00000
   10.50000    5.48000  148.20000  217.00000
   10.50000    5.48000  154.80000  200.00000
   10.50000    5.48000  162.30000  166.00000
   10.50000    5.48000  169.70000  150.00000
   10.50000    5.48000  176.70000  147.00000
   10.50000    5.61000    6.90000  148.00000   16.00000
   10.50000    5.61000   16.10000  304.00000
   10.50000    5.61000   22.70000  374.00000
   10.50000    5.61000   30.10000  451.00000
   10.50000    5.61000   38.80000  295.00000
   10.50000    5.61000   45.30000  133.00000
   10.50000    5.61000   53.50000   67.00000   15.00000
   10.50000    5.61000   61.80000   68.00000   13.00000
   10.50000    5.61000   69.20000   58.00000   14.00000
   10.50000    5.61000   76.60000   55.00000   13.00000
   10.50000    5.61000   83.50000   42.00000   12.00000
   10.50000    5.61000   91.90000   61.00000   13.00000
   10.50000    5.61000   96.70000   64.00000   14.00000
   10.50000    5.61000  104.00000   47.00000   17.00000
   10.50000    5.61000  111.50000   56.00000    9.00000
   10.50000    5.61000  118.80000   26.00000   19.00000
   10.50000    5.61000  124.90000   26.00000   15.00000
   10.50000    5.61000  133.70000   32.00000   16.00000
   10.50000    5.61000  139.80000   38.00000   13.00000
   10.50000    5.61000  147.70000   64.00000   13.00000
   10.50000    5.61000  154.60000   54.00000   13.00000
   10.50000    5.61000  161.60000   56.00000    9.00000
   10.50000    5.61000  169.00000   64.00000    9.00000
   10.50000    5.61000  176.90000   71.00000   13.00000
   10.50000    5.95000    5.70000  124.00000   15.00000
   10.50000    5.95000   14.00000  101.00000   11.00000
   10.50000    5.95000   21.80000  114.00000   11.00000
   10.50000    5.95000   31.80000  109.00000
   10.50000    5.95000   37.90000  101.00000
   10.50000    5.95000   44.80000  114.00000
   10.50000    5.95000   53.10000  112.00000
   10.50000    5.95000   60.90000   92.70000
   10.50000    5.95000   69.20000  101.00000
   10.50000    5.95000   75.30000   94.60000
   10.50000    5.95000   83.10000  143.00000
   10.50000    5.95000   90.50000  126.00000
   10.50000    5.95000   95.30000  103.00000
   10.50000    5.95000  102.60000   96.60000
   10.50000    5.95000  110.00000   67.00000   12.00000
   10.50000    5.95000  118.30000   80.00000    9.00000
   10.50000    5.95000  123.90000   74.00000   18.00000
   10.50000    5.95000  132.20000   91.00000   15.00000
   10.50000    5.95000  139.20000  107.00000   10.00000
   10.50000    5.95000  146.10000   89.00000    9.00000
   10.50000    5.95000  152.60000   84.00000   12.00000
   10.50000    5.95000  160.00000   72.00000   13.00000
   10.50000    5.95000  168.30000   53.00000   11.00000
   10.50000    5.95000  174.80000   63.00000   11.00000
   10.50000    6.50000    6.20000   59.00000   22.00000
   10.50000    6.50000   13.50000   44.00000   18.00000
   10.50000    6.50000   21.40000   49.00000   12.00000
   10.50000    6.50000   29.20000   69.00000   12.00000
   10.50000    6.50000   37.00000   61.00000   10.00000
   10.50000    6.50000   52.30000   69.00000    9.00000
   10.50000    6.50000   60.50000   72.00000   13.00000
   10.50000    6.50000   67.90000   61.00000    8.00000
   10.50000    6.50000   75.30000   74.00000   11.00000
   10.50000    6.50000   82.70000   70.00000   10.00000
   10.50000    6.50000   90.10000   77.00000    8.00000
   10.50000    6.50000   95.80000   89.00000    4.00000
   10.50000    6.50000  102.30000   86.00000    7.00000
   10.50000    6.50000  110.10000   84.00000   12.00000
   10.50000    6.50000  117.00000   65.00000    8.00000
   10.50000    6.50000  124.00000   77.00000   10.00000
   10.50000    6.50000  131.00000   89.10000    2.80000
   10.50000    6.50000  137.90000   55.00000   11.00000
   10.50000    6.50000  145.30000   74.00000    9.00000
   10.50000    6.50000  152.70000   66.00000   11.00000
   10.50000    6.50000  160.10000   62.00000    8.00000
   10.50000    6.50000  166.20000   72.00000   15.00000
   10.50000    6.50000  173.10000   63.50000    2.80000
   10.50000    6.53000    2.60000   48.00000   21.00000
   10.50000    6.53000    8.50000   65.00000   14.00000
   10.50000    6.53000   16.60000  117.00000   13.00000
   10.50000    6.53000   24.30000  117.00000   15.00000
   10.50000    6.53000   32.60000   74.00000   16.00000
   10.50000    6.53000   48.20000   48.00000   13.00000
   10.50000    6.53000   55.60000   43.00000   19.00000
   10.50000    6.53000   63.70000   54.00000   17.00000
   10.50000    6.53000   70.60000   46.00000   26.00000
   10.50000    6.53000   78.80000   38.00000   21.00000
   10.50000    6.53000   85.50000   16.00000   25.00000
   10.50000    6.53000   91.00000   20.00000   25.00000
   10.50000    6.53000   98.00000   14.00000   29.00000
   10.50000    6.53000  105.60000   23.00000   26.00000
   10.50000    6.53000  112.40000   37.00000   22.00000
   10.50000    6.53000  119.70000   33.00000   18.00000
   10.50000    6.53000  134.40000   35.00000   26.00000
   10.50000    6.53000  141.70000   37.00000   22.00000
   10.50000    6.53000  147.10000   61.00000   16.00000
   10.50000    6.53000  155.70000   64.00000   22.00000
   10.50000    6.53000  162.30000   39.00000   10.00000
   10.50000    6.53000  168.70000   59.00000   17.00000
   10.50000    6.63000    2.40000  192.00000
   10.50000    6.63000    9.90000  109.00000
   10.50000    6.63000   18.30000   36.10000
   10.50000    6.63000   26.30000   13.00000
   10.50000    6.63000   34.10000    9.80000
   10.50000    6.63000   41.40000   12.00000
   10.50000    6.63000   49.10000   16.00000
   10.50000    6.63000   57.20000   23.50000
   10.50000    6.63000   64.10000   20.00000
   10.50000    6.63000   72.00000   11.50000
   10.50000    6.63000   79.90000    8.49000
   10.50000    6.63000   86.80000    6.65000
   10.50000    6.63000   92.80000    9.80000
   10.50000    6.63000  100.10000   10.42000
   10.50000    6.63000  105.60000   11.50000
   10.50000    6.63000  113.80000   11.50000
   10.50000    6.63000  122.00000   15.30000
   10.50000    6.63000  128.40000   14.70000
   10.50000    6.63000  135.30000   16.30000
   10.50000    6.63000  143.10000   15.00000
   10.50000    6.63000  150.00000   13.00000
   10.50000    6.63000  157.80000   13.90000
   10.50000    6.63000  163.80000   14.10000
   10.50000    6.63000  170.30000   12.80000
   10.50000    6.73000    4.10000 4550.00000
   10.50000    6.73000   11.10000 5610.00000
   10.50000    6.73000   18.60000 2850.00000
   10.50000    6.73000   26.60000 1130.00000
   10.50000    6.73000   35.20000  218.00000
   10.50000    6.73000   42.90000  518.00000
   10.50000    6.73000   50.20000  869.00000
   10.50000    6.73000   58.20000  546.00000
   10.50000    6.73000   65.70000  343.00000
   10.50000    6.73000   74.00000  266.00000
   10.50000    6.73000   81.90000  241.00000
   10.50000    6.73000   88.90000  210.00000
   10.50000    6.73000   94.20000  151.00000
   10.50000    6.73000  101.60000  179.00000
   10.50000    6.73000  109.00000  172.00000    9.00000
   10.50000    6.73000  116.80000  229.00000
   10.50000    6.73000  124.20000  242.00000
   10.50000    6.73000  131.70000  171.00000
   10.50000    6.73000  139.20000  125.00000    8.00000
   10.50000    6.73000  145.80000   99.00000   10.00000
   10.50000    6.73000  153.20000   90.00000    9.00000
   10.50000    6.73000  161.00000  124.00000
   10.50000    6.73000  167.50000  186.00000
   10.50000    6.73000  174.90000  234.00000
   10.50000    6.86000    5.00000   72.00000   17.00000
   10.50000    6.86000   11.90000   57.00000   16.00000
   10.50000    6.86000   21.00000   44.00000   16.00000
   10.50000    6.86000   28.40000   49.00000   12.00000
   10.50000    6.86000   36.20000   49.00000   14.00000
   10.50000    6.86000   44.40000   69.20000
   10.50000    6.86000   51.70000   73.50000
   10.50000    6.86000   60.40000   44.00000   14.00000
   10.50000    6.86000   67.00000   31.00000   16.00000
   10.50000    6.86000   74.70000   40.00000   15.00000
   10.50000    6.86000   82.10000   41.00000   15.00000
   10.50000    6.86000   89.50000   35.00000   14.00000
   10.50000    6.86000   95.20000   26.00000   12.00000
   10.50000    6.86000  102.60000   20.00000   20.00000
   10.50000    6.86000  109.50000   20.00000   25.00000
   10.50000    6.86000  117.70000   25.00000   16.00000
   10.50000    6.86000  124.70000   17.00000   24.00000
   10.50000    6.86000  130.70000   18.00000   22.00000
   10.50000    6.86000  138.00000   31.00000   10.00000
   10.50000    6.86000  145.70000   37.00000   16.00000
   10.50000    6.86000  153.10000   40.00000   13.00000
   10.50000    6.86000  160.00000   33.00000   15.00000
   10.50000    6.86000  167.00000   23.00000   22.00000
   10.50000    6.86000  174.80000   35.00000   11.00000
   10.50000    6.91000    5.50000   46.00000   20.00000
   10.50000    6.91000   14.00000   62.00000   13.00000
   10.50000    6.91000   21.30000   76.00000   14.00000
   10.50000    6.91000   29.10000   60.00000   13.00000
   10.50000    6.91000   37.30000   53.00000   11.00000
   10.50000    6.91000   45.10000   39.00000   15.00000
   10.50000    6.91000   51.90000   37.00000   16.00000
   10.50000    6.91000   59.20000   58.00000   12.00000
   10.50000    6.91000   68.20000   52.00000   12.00000
   10.50000    6.91000   75.10000   47.00000   17.00000
   10.50000    6.91000   82.10000   31.00000   13.00000
   10.50000    6.91000   89.50000   15.00000   27.00000
   10.50000    6.91000   95.50000   18.00000   17.00000
   10.50000    6.91000  102.20000   41.00000   12.00000
   10.50000    6.91000  109.90000   75.20000
   10.50000    6.91000  124.90000   63.00000   11.00000
   10.50000    6.91000  131.40000   62.00000    8.00000
   10.50000    6.91000  138.80000   36.00000   14.00000
   10.50000    6.91000  146.10000   44.00000   14.00000
   10.50000    6.91000  152.40000   65.00000   11.00000
   10.50000    6.91000  160.20000   48.00000   15.00000
   10.50000    6.91000  167.20000   29.00000   14.00000
   10.50000    6.91000  174.00000   51.00000    8.00000
   10.50000    6.99000   20.80000   36.00000   14.00000
   10.50000    6.99000   28.90000   56.00000    9.00000
   10.50000    6.99000   37.10000   89.00000   11.00000
   10.50000    6.99000   44.50000   81.00000   11.00000
   10.50000    6.99000   52.30000   64.00000   13.00000
   10.50000    6.99000   59.70000   58.00000   12.00000
   10.50000    6.99000   67.00000   64.00000    8.00000
   10.50000    6.99000   75.30000   43.00000   14.00000
   10.50000    6.99000   82.70000   38.00000   13.00000
   10.50000    6.99000   90.50000   32.00000   16.00000
   10.50000    6.99000   95.70000   36.00000   14.00000
   10.50000    6.99000  102.60000   34.00000   18.00000
   10.50000    6.99000  110.50000   24.00000   17.00000
   10.50000    6.99000  116.50000   28.00000   14.00000
   10.50000    6.99000  124.70000   34.00000   15.00000
   10.50000    6.99000  131.60000   46.00000   11.00000
   10.50000    6.99000  138.00000   69.00000   10.00000
   10.50000    6.99000  145.80000   55.00000   15.00000
   10.50000    6.99000  152.30000   76.50000
   10.50000    6.99000  160.00000   96.00000    7.00000
   10.50000    6.99000  166.90000  136.00000    7.00000
   10.50000    6.99000  174.30000  136.00000   10.00000
   10.50000    7.04000    4.40000  104.00000   16.00000
   10.50000    7.04000   11.70000  191.00000   10.00000
   10.50000    7.04000   27.80000   98.00000    9.00000
   10.50000    7.04000   35.10000  230.00000
   10.50000    7.04000   43.30000  332.00000
   10.50000    7.04000   50.60000  444.00000
   10.50000    7.04000   59.30000  434.00000
   10.50000    7.04000   74.50000  246.00000
   10.50000    7.04000   81.90000  206.00000
   10.50000    7.04000   88.90000  210.00000
   10.50000    7.04000   94.50000  187.00000
   10.50000    7.04000  101.80000  280.00000
   10.50000    7.04000  108.80000  285.00000
   10.50000    7.04000  116.60000  239.00000
   10.50000    7.04000  124.00000  204.00000
   10.50000    7.04000  131.40000  152.00000
   10.50000    7.04000  138.30000  118.00000
   10.50000    7.04000  146.10000  105.00000
   10.50000    7.04000  153.10000   91.50000
   10.50000    7.04000  160.00000   87.90000
   10.50000    7.04000  168.70000   77.00000   10.00000
   10.50000    7.04000  174.80000   76.00000   11.00000
   10.50000    7.07000    2.80000    9.10000   18.00000
   10.50000    7.07000   34.80000    2.24000   13.00000
   10.50000    7.07000   42.30000    1.60000   19.00000
   10.50000    7.07000   50.50000    2.00000   20.00000
   10.50000    7.07000   58.80000    2.70000   15.00000
   10.50000    7.07000   66.10000    3.60000   11.00000
   10.50000    7.07000   73.90000    4.50000   13.00000
   10.50000    7.07000   81.90000    2.80000   14.00000
   10.50000    7.07000   89.30000    2.10000   19.00000
   10.50000    7.07000   94.50000    2.50000   12.00000
   10.50000    7.07000  101.50000    2.30000   17.00000
   10.50000    7.07000  124.60000    2.60000   15.00000
   10.50000    7.07000  132.40000    4.50000   13.00000
   10.50000    7.07000  139.80000    3.20000   16.00000
   10.50000    7.07000  146.80000    3.60000   17.00000
   10.50000    7.07000  153.80000    3.70000   11.00000
   10.50000    7.07000  159.90000    3.80000   11.00000
   10.50000    7.07000  167.80000    2.60000   12.00000
   10.50000    7.07000  175.20000    3.20000   16.00000
   10.50000    7.22000    4.50000   65.00000   15.00000
   10.50000    7.22000   12.30000   89.00000   11.00000
   10.50000    7.22000   20.90000  108.00000
   10.50000    7.22000   28.00000   79.90000
   10.50000    7.22000   35.80000   63.00000   10.00000
   10.50000    7.22000   52.30000   95.20000
   10.50000    7.22000   66.70000   93.60000
   10.50000    7.22000   75.00000   81.00000   12.00000
   10.50000    7.22000   83.30000   75.00000   13.00000
   10.50000    7.22000   89.40000   61.00000   13.00000
   10.50000    7.22000   95.10000   69.00000   12.00000
   10.50000    7.22000  102.50000   62.00000   15.00000
   10.50000    7.22000  109.80000   86.00000    8.00000
   10.50000    7.22000  118.20000   51.00000   12.00000
   10.50000    7.22000  125.10000   59.00000   10.00000
   10.50000    7.22000  132.50000   73.00000   10.00000
   10.50000    7.22000  140.00000   37.00000   16.00000
   10.50000    7.22000  146.90000   53.00000   17.00000
   10.50000    7.22000  153.00000   44.00000   14.00000
   10.50000    7.22000  161.40000   33.00000   12.00000
   10.50000    7.22000  167.90000   25.40000   11.00000
   10.50000    7.25000    5.90000  192.00000    9.00000
   10.50000    7.25000   12.50000  152.00000
   10.50000    7.25000   20.30000  158.00000
   10.50000    7.25000   29.00000  144.00000
   10.50000    7.25000   36.00000  156.00000
   10.50000    7.25000   44.40000   79.20000
   10.50000    7.25000   52.30000   58.00000   12.00000
   10.50000    7.25000   60.10000   44.00000   14.00000
   10.50000    7.25000   68.00000   40.00000   13.00000
   10.50000    7.25000   75.40000   48.00000   15.00000
   10.50000    7.25000   82.70000   60.00000    8.00000
   10.50000    7.25000   89.70000   53.00000    9.00000
   10.50000    7.25000   95.90000   39.00000   13.00000
   10.50000    7.25000  103.30000   31.00000   13.00000
   10.50000    7.25000  118.70000   13.00000   23.00000
   10.50000    7.25000  124.80000    8.80000   30.00000
   10.50000    7.25000  132.60000   13.00000   23.00000
   10.50000    7.25000  139.90000   27.00000   19.00000
   10.50000    7.25000  147.70000   27.00000   19.00000
   10.50000    7.25000  152.90000   36.00000   14.00000
   10.50000    7.25000  161.60000   36.00000   14.00000
   10.50000    7.25000  168.60000   32.00000   16.00000
   10.50000    7.25000  176.40000   34.00000   15.00000
   10.50000    7.44000    6.70000  183.00000
   10.50000    7.44000   14.10000   86.00000
   10.50000    7.44000   22.30000   17.20000
   10.50000    7.44000   30.60000    5.95000
   10.50000    7.44000   38.30000    6.70000   12.00000
   10.50000    7.44000   46.00000    7.10000   10.00000
   10.50000    7.44000   54.20000    4.90000    8.00000
   10.50000    7.44000   61.50000    5.00000   12.00000
   10.50000    7.44000   69.70000    5.00000   10.00000
   10.50000    7.44000   76.60000    2.50000   16.00000
   10.50000    7.44000   84.80000    1.20000   25.00000
   10.50000    7.44000   91.60000    2.20000   14.00000
   10.50000    7.44000   97.60000    3.10000   13.00000
   10.50000    7.44000  104.00000    3.80000   16.00000
   10.50000    7.44000  111.70000    4.30000   12.00000
   10.50000    7.44000  119.10000    2.00000   20.00000
   10.50000    7.44000  126.00000    1.24000   22.00000
   10.50000    7.44000  133.40000    0.41000   50.00000
   10.50000    7.44000  139.80000    0.77000   40.00000
   10.50000    7.44000  147.00000    2.22000   12.00000
   10.50000    7.44000  154.70000    2.70000   11.00000
   10.50000    7.44000  163.20000    6.54000
   10.50000    7.44000  169.60000    8.21000
   10.50000    7.44000  176.00000   12.20000
   10.50000    7.50000    6.00000   69.00000   16.00000
   10.50000    7.50000   14.10000  123.00000   13.00000
   10.50000    7.50000   21.40000  122.00000   11.00000
   10.50000    7.50000   29.60000   86.00000    9.00000
   10.50000    7.50000   36.60000   57.00000    9.00000
   10.50000    7.50000   44.80000   54.00000   11.00000
   10.50000    7.50000   52.90000   79.00000   11.00000
   10.50000    7.50000   59.80000   80.00000   10.00000
   10.50000    7.50000   76.30000   31.00000   13.00000
   10.50000    7.50000   82.80000   24.00000   17.00000
   10.50000    7.50000   90.50000   22.00000   18.00000
   10.50000    7.50000   95.20000   27.00000   19.00000
   10.50000    7.50000  103.00000   30.00000   17.00000
   10.50000    7.50000  110.70000   41.00000   12.00000
   10.50000    7.50000  117.50000   54.00000   13.00000
   10.50000    7.50000  124.80000   64.00000   11.00000
   10.50000    7.50000  132.10000   90.00000
   10.50000    7.50000  138.90000  106.00000    7.00000
   10.50000    7.50000  147.50000  109.00000
   10.50000    7.50000  153.50000  114.00000    8.00000
   10.50000    7.50000  160.90000   85.00000    8.00000
   10.50000    7.50000  168.70000   48.00000   13.00000
   10.50000    7.50000  175.20000   45.00000   13.00000
   10.50000    7.61000    4.70000  158.00000   13.00000
   10.50000    7.61000   12.80000  233.00000
   10.50000    7.61000   20.10000  318.00000
   10.50000    7.61000   27.80000  468.00000
   10.50000    7.61000   36.00000  581.00000
   10.50000    7.61000   43.80000  485.00000
   10.50000    7.61000   52.10000  421.00000
   10.50000    7.61000   59.10000  250.00000
   10.50000    7.61000   67.80000  190.00000
   10.50000    7.61000   82.40000  261.00000
   10.50000    7.61000   89.40000  226.00000
   10.50000    7.61000   94.50000  250.00000
   10.50000    7.61000  102.70000  257.00000
   10.50000    7.61000  110.50000  215.00000
   10.50000    7.61000  116.60000  208.00000
   10.50000    7.61000  124.00000  195.00000
   10.50000    7.61000  133.00000  208.00000
   10.50000    7.61000  138.20000  218.00000
   10.50000    7.61000  146.00000  250.00000
   10.50000    7.61000  152.90000  272.00000
   10.50000    7.61000  161.10000  245.00000
   10.50000    7.66000   10.30000  190.00000   30.00000
   10.50000    7.66000   18.30000 1250.00000    9.00000
   10.50000    7.66000   26.20000 1610.00000
   10.50000    7.66000   35.40000 2760.00000
   10.50000    7.66000   42.80000 2040.00000
   10.50000    7.66000   49.70000 1590.00000
   10.50000    7.66000   57.10000 1730.00000
   10.50000    7.66000   65.40000 1550.00000
   10.50000    7.66000   72.30000 1490.00000
   10.50000    7.66000   80.20000 1360.00000
   10.50000    7.66000   88.00000 1080.00000
   10.50000    7.66000   95.40000  832.00000
   10.50000    7.66000  101.00000  637.00000
   10.50000    7.66000  108.00000  538.00000
   10.50000    7.66000  115.30000  454.00000
   10.50000    7.66000  122.70000  383.00000
   10.50000    7.66000  130.60000  565.00000
   10.50000    7.66000  138.00000  601.00000
   10.50000    7.66000  145.90000  717.00000
   10.50000    7.66000  152.40000  666.00000
   10.50000    7.66000  159.80000  520.00000
   10.50000    7.80000    8.80000   74.00000   19.00000
   10.50000    7.80000   17.00000   99.20000
   10.50000    7.80000   23.90000   88.90000
   10.50000    7.80000   32.60000  100.40000
   10.50000    7.80000   39.10000  107.00000
   10.50000    7.80000   47.30000   82.30000
   10.50000    7.80000   55.10000   63.00000   11.00000
   10.50000    7.80000   62.50000   56.00000    7.00000
   10.50000    7.80000   70.30000   43.00000    9.00000
   10.50000    7.80000   77.60000   37.00000    8.00000
   10.50000    7.80000   85.80000   65.00000    8.00000
   10.50000    7.80000   98.00000   44.00000    9.00000
   10.50000    7.80000  104.90000   57.00000   12.00000
   10.50000    7.80000  113.10000   38.00000   11.00000
   10.50000    7.80000  120.50000   46.00000    7.00000
   10.50000    7.80000  127.80000   41.00000   10.00000
   10.50000    7.80000  134.80000   54.00000   11.00000
   10.50000    7.80000  142.60000   53.00000    9.00000
   10.50000    7.90000    7.30000 1090.00000
   10.50000    7.90000   15.20000 1780.00000
   10.50000    7.90000   24.40000 2090.00000
   10.50000    7.90000   32.30000 2590.00000
   10.50000    7.90000   39.60000 1510.00000
   10.50000    7.90000   47.30000  708.00000
   10.50000    7.90000   54.60000  381.00000
   10.50000    7.90000   61.90000  340.00000
   10.50000    7.90000   70.20000  341.00000
   10.50000    7.90000   77.10000  304.00000
   10.50000    7.90000   84.50000  261.00000
   10.50000    7.90000   92.30000  216.00000
   10.50000    7.90000  104.80000  110.00000
   10.50000    7.90000  112.50000   72.00000   11.00000
   10.50000    7.90000  119.50000   73.00000   10.00000
   10.50000    7.90000  126.50000  102.20000
   10.50000    7.90000  134.30000  113.00000
   10.50000    8.09000    5.20000  260.00000
   10.50000    8.09000   14.30000  499.00000
   10.50000    8.09000   21.30000  853.00000
   10.50000    8.09000   29.10000 1250.00000
   10.50000    8.09000   37.40000 1180.00000
   10.50000    8.09000   44.80000  889.00000
   10.50000    8.09000   52.60000  541.00000
   10.50000    8.09000   60.90000  229.00000
   10.50000    8.09000   68.30000  157.00000
   10.50000    8.09000   76.20000  172.00000
   10.50000    8.09000   82.70000  186.00000
   10.50000    8.09000   90.10000  143.00000
   10.50000    8.09000   95.30000  187.00000
   10.50000    8.09000  103.10000  226.00000
   10.50000    8.09000  117.50000  155.00000
   12.10000    0.00000    5.20000 1068.00000
   12.10000    0.00000   11.80000  433.00000
   12.10000    0.00000   19.70000  108.00000    9.00000
   12.10000    0.00000   28.40000  120.00000
   12.10000    0.00000   36.30000   86.90000
   12.10000    0.00000   43.90000   12.40000   15.00000
   12.10000    0.00000   51.20000   24.00000
   12.10000    0.00000   59.40000   64.30000
   12.10000    0.00000   66.80000   72.50000
   12.10000    0.00000   73.80000   41.30000
   12.10000    0.00000   81.80000   10.30000   13.00000
   12.10000    0.00000   89.20000    6.50000   15.00000
   12.10000    0.00000   94.40000   10.80000   10.00000
   12.10000    0.00000  101.70000   22.60000
   12.10000    0.00000  109.10000   24.50000
   12.10000    0.00000  116.50000   17.10000
   12.10000    0.00000  123.60000    7.50000   15.00000
   12.10000    0.00000  130.60000    2.50000   20.00000
   12.10000    0.00000  138.10000    2.10000   29.00000
   12.10000    0.00000  145.40000    3.20000   19.00000
   12.10000    0.00000  152.80000    2.90000   24.00000
   12.10000    0.00000  159.80000    4.60000   20.00000
   12.10000    0.00000  166.70000    5.10000   18.00000
   12.10000    0.00000  174.10000    7.80000   10.00000
   12.10000    2.23000   16.20000   67.10000
   12.10000    2.23000   24.20000  127.00000
   12.10000    2.23000   32.50000  127.00000
   12.10000    2.23000   40.40000   65.30000
   12.10000    2.23000   47.30000   23.20000
   12.10000    2.23000   55.20000   18.60000    8.00000
   12.10000    2.23000   63.10000   14.40000   10.00000
   12.10000    2.23000   70.20000   13.00000    8.00000
   12.10000    2.23000   78.10000   10.90000   12.00000
   12.10000    2.23000   86.00000   15.20000   10.00000
   12.10000    2.23000   93.50000   19.10000
   12.10000    2.23000   98.80000   16.30000   10.00000
   12.10000    2.23000  105.80000   10.00000    8.00000
   12.10000    2.23000  113.70000    6.70000   15.00000
   12.10000    2.23000  121.20000    8.10000   14.00000
   12.10000    2.23000  128.20000   12.20000   11.00000
   12.10000    2.23000  135.30000   16.60000   13.00000
   12.10000    2.23000  142.30000   14.80000   12.00000
   12.10000    2.23000  149.80000   12.90000   10.00000
   12.10000    2.23000  157.70000   13.20000   15.00000
   12.10000    2.23000  164.30000   15.00000   14.00000
   12.10000    2.23000  172.20000   18.10000    7.00000
   12.10000    2.23000  179.30000   20.50000   10.00000
   12.10000    3.51000    6.70000  128.00000
   12.10000    3.51000   14.20000   94.20000
   12.10000    3.51000   29.60000   78.60000
   12.10000    3.51000   37.50000   42.00000
   12.10000    3.51000   44.90000   19.50000   10.00000
   12.10000    3.51000   53.30000   22.00000    9.00000
   12.10000    3.51000   60.30000   22.40000    8.00000
   12.10000    3.51000   68.70000   24.30000
   12.10000    3.51000   76.60000   14.10000   12.00000
   12.10000    3.51000   83.60000   10.20000    9.00000
   12.10000    3.51000   91.10000   10.20000   11.00000
   12.10000    3.51000   96.80000   13.60000   11.00000
   12.10000    3.51000  103.40000   12.00000   10.00000
   12.10000    3.51000  111.30000   10.20000    8.00000
   12.10000    3.51000  118.70000    8.70000   11.00000
   12.10000    3.51000  125.80000    7.10000   10.00000
   12.10000    3.51000  133.70000    9.30000   13.00000
   12.10000    3.51000  140.30000    7.70000   13.00000
   12.10000    3.51000  148.20000    9.50000   17.00000
   12.10000    3.51000  155.20000    8.50000   12.00000
   12.10000    3.51000  162.20000   12.60000   13.00000
   12.10000    3.51000  169.70000   16.30000    9.00000
   12.10000    3.51000  177.10000   20.40000
   12.10000    5.22000    5.10000   51.00000   29.00000
   12.10000    5.22000   12.60000   74.00000   19.00000
   12.10000    5.22000   20.50000   89.00000   17.00000
   12.10000    5.22000   29.40000   94.00000   11.00000
   12.10000    5.22000   36.90000   89.00000   15.00000
   12.10000    5.22000   44.40000   75.00000   13.00000
   12.10000    5.22000   51.50000   51.00000   14.00000
   12.10000    5.22000   59.90000   39.00000   18.00000
   12.10000    5.22000   67.80000   47.00000   13.00000
   12.10000    5.22000   75.80000   48.00000   10.00000
   12.10000    5.22000   82.40000   40.00000   15.00000
   12.10000    5.22000   90.30000   40.00000   15.00000
   12.10000    5.22000   96.10000   43.00000   16.00000
   12.10000    5.22000  103.10000   45.00000   13.00000
   12.10000    5.22000  110.60000   55.00000   15.00000
   12.10000    5.22000  116.80000   57.00000   14.00000
   12.10000    5.22000  125.20000   42.00000   14.00000
   12.10000    5.22000  131.80000   42.00000   17.00000
   12.10000    5.22000  139.80000   43.00000   16.00000
   12.10000    5.22000  146.90000   42.00000   17.00000
   12.10000    5.22000  153.90000   42.00000   17.00000
   12.10000    5.22000  161.40000   49.00000   14.00000
   12.10000    5.22000  169.40000   39.00000   13.00000
   12.10000    5.22000  176.00000   62.00000   15.00000
   12.10000    5.27000    4.00000  230.00000   40.00000
   12.10000    5.27000   12.20000  660.00000   15.00000
   12.10000    5.27000   19.60000  860.00000   10.00000
   12.10000    5.27000   27.90000 1630.00000
   12.10000    5.27000   35.30000 1730.00000
   12.10000    5.27000   43.60000 2110.00000
   12.10000    5.27000   51.50000 2030.00000
   12.10000    5.27000   66.50000 1160.00000   11.00000
   12.10000    5.27000   74.40000  990.00000   12.00000
   12.10000    5.27000   81.40000  990.00000   13.00000
   12.10000    5.27000   89.20000 1180.00000    9.00000
   12.10000    5.27000   94.90000 1110.00000    9.00000
   12.10000    5.27000  102.40000  550.00000   13.00000
   12.10000    5.27000  109.40000  790.00000   11.00000
   12.10000    5.27000  116.40000  870.00000    9.00000
   12.10000    5.27000  124.30000  760.00000   11.00000
   12.10000    5.27000  131.70000  790.00000   15.00000
   12.10000    5.27000  139.20000  820.00000   13.00000
   12.10000    5.27000  146.20000  760.00000   13.00000
   12.10000    5.27000  154.10000  760.00000    9.00000
   12.10000    5.27000  160.70000  610.00000   10.00000
   12.10000    5.27000  168.10000  730.00000   14.00000
   12.10000    5.27000  175.50000  840.00000   10.00000
   12.10000    5.37000    1.50000   21.70000   13.00000
   12.10000    5.37000    9.20000    5.30000   19.00000
   12.10000    5.37000   17.20000    1.80000   30.00000
   12.10000    5.37000   25.00000    2.10000   24.00000
   12.10000    5.37000   33.10000    2.70000   15.00000
   12.10000    5.37000   40.20000    1.71000   17.00000
   12.10000    5.37000   48.80000    2.00000   20.00000
   12.10000    5.37000   56.30000    1.00000   30.00000
   12.10000    5.37000   63.80000    0.49000   30.00000
   12.10000    5.37000   85.90000    0.50000   30.00000
   12.10000    5.37000   91.40000    0.81000   30.00000
   12.10000    5.37000  105.70000    0.92000   30.00000
   12.10000    5.37000  113.00000    1.10000   27.00000
   12.10000    5.37000  164.00000    1.20000   25.00000
   12.10000    5.37000  171.00000    1.10000   40.00000
   12.10000    5.48000    5.50000  470.00000   13.00000
   12.10000    5.48000   13.80000  983.00000
   12.10000    5.48000   22.10000 1570.00000
   12.10000    5.48000   30.00000 2460.00000
   12.10000    5.48000   38.30000 2230.00000
   12.10000    5.48000   45.80000 1450.00000
   12.10000    5.48000   61.10000  408.00000
   12.10000    5.48000   69.00000  459.00000
   12.10000    5.48000   76.90000  486.00000
   12.10000    5.48000   83.90000  441.00000
   12.10000    5.48000   91.30000  370.00000
   12.10000    5.48000   96.60000  323.00000
   12.10000    5.48000  104.00000  287.00000    7.00000
   12.10000    5.48000  111.50000  317.00000    7.00000
   12.10000    5.48000  118.50000  271.00000    7.00000
   12.10000    5.48000  126.80000  218.00000
   12.10000    5.48000  133.40000  260.00000
   12.10000    5.48000  140.40000  250.00000
   12.10000    5.48000  148.20000  241.00000
   12.10000    5.48000  155.30000  180.00000
   12.10000    5.48000  161.80000  122.00000
   12.10000    5.48000  169.70000   65.10000
   12.10000    5.48000  176.70000   30.00000   13.00000
   12.10000    5.61000    6.70000  201.00000   15.00000
   12.10000    5.61000   15.40000  333.00000
   12.10000    5.61000   23.30000  441.00000
   12.10000    5.61000   31.10000  441.00000
   12.10000    5.61000   38.50000  301.00000
   12.10000    5.61000   45.90000  112.00000
   12.10000    5.61000   54.10000   47.00000   13.00000
   12.10000    5.61000   61.50000   43.00000   19.00000
   12.10000    5.61000   69.80000   41.00000   12.00000
   12.10000    5.61000   76.80000   47.00000   17.00000
   12.10000    5.61000   84.20000   59.00000   12.00000
   12.10000    5.61000   91.60000   61.00000   15.00000
   12.10000    5.61000   96.40000   72.00000   14.00000
   12.10000    5.61000  103.80000   45.00000   18.00000
   12.10000    5.61000  111.60000   26.00000   19.00000
   12.10000    5.61000  119.00000   26.00000   19.00000
   12.10000    5.61000  125.90000    6.90000   30.00000
   12.10000    5.61000  133.40000   38.00000   16.00000
   12.10000    5.61000  140.40000   26.00000   19.00000
   12.10000    5.61000  147.80000   33.00000   18.00000
   12.10000    5.61000  156.10000   29.00000   21.00000
   12.10000    5.61000  162.20000   27.00000   22.00000
   12.10000    5.61000  169.60000   48.00000   15.00000
   12.10000    5.61000  177.50000   43.00000   12.00000
   12.10000    5.95000    6.30000  108.00000   19.00000
   12.10000    5.95000   14.10000  149.00000    9.00000
   12.10000    5.95000   30.30000  135.00000
   12.10000    5.95000   37.60000  110.00000
   12.10000    5.95000   45.50000  138.00000
   12.10000    5.95000   53.40000  119.00000
   12.10000    5.95000   60.80000  112.00000
   12.10000    5.95000   68.60000  127.00000
   12.10000    5.95000   76.40000   78.00000   10.00000
   12.10000    5.95000   83.40000   77.90000
   12.10000    5.95000   91.20000   61.00000   13.00000
   12.10000    5.95000   95.60000   75.00000   15.00000
   12.10000    5.95000  103.50000   75.00000   12.00000
   12.10000    5.95000  110.90000   59.00000   14.00000
   12.10000    5.95000  118.30000   53.00000   15.00000
   12.10000    5.95000  125.20000   53.00000   13.00000
   12.10000    5.95000  133.10000   53.00000   13.00000
   12.10000    5.95000  140.00000   38.00000   16.00000
   12.10000    5.95000  146.60000   37.00000   14.00000
   12.10000    5.95000  153.50000   29.00000   17.00000
   12.10000    5.95000  160.90000   30.00000   17.00000
   12.10000    5.95000  167.90000   41.00000   15.00000
   12.10000    5.95000  175.80000   41.00000   17.00000
   12.10000    6.50000    6.30000   52.00000   25.00000
   12.10000    6.50000   13.70000   65.00000   17.00000
   12.10000    6.50000   22.00000   78.00000   14.00000
   12.10000    6.50000   29.00000   92.00000   13.00000
   12.10000    6.50000   36.80000  115.00000   11.00000
   12.10000    6.50000   44.60000  100.00000   17.00000
   12.10000    6.50000   52.90000   91.00000   12.00000
   12.10000    6.50000   59.40000   59.00000   12.00000
   12.10000    6.50000   68.10000   81.00000    6.00000
   12.10000    6.50000   75.10000   79.00000   15.00000
   12.10000    6.50000   82.40000   72.00000   11.00000
   12.10000    6.50000   89.40000   83.00000   12.00000
   12.10000    6.50000   94.60000   71.00000    8.00000
   12.10000    6.50000  102.00000   94.00000   11.00000
   12.10000    6.50000  109.80000   70.00000   13.00000
   12.10000    6.50000  117.70000  109.00000
   12.10000    6.50000  124.60000   95.00000   11.00000
   12.10000    6.50000  130.80000  136.00000
   12.10000    6.50000  139.00000  131.00000   11.00000
   12.10000    6.50000  145.10000   85.00000   11.00000
   12.10000    6.50000  152.50000   80.00000   11.00000
   12.10000    6.50000  159.80000   42.00000   21.00000
   12.10000    6.50000  166.30000   54.00000   15.00000
   12.10000    6.50000  174.60000   48.00000   19.00000
   12.10000    6.53000    0.60000   11.50000   17.00000
   12.10000    6.53000    8.30000   13.20000   17.00000
   12.10000    6.53000   16.00000   12.40000   17.00000
   12.10000    6.53000   24.20000   11.70000   16.00000
   12.10000    6.53000   31.60000    8.70000   18.00000
   12.10000    6.53000   39.40000    7.60000   14.00000
   12.10000    6.53000   48.10000    4.00000   18.00000
   12.10000    6.53000   54.60000    3.60000   17.00000
   12.10000    6.53000   62.90000    2.30000   26.00000
   12.10000    6.53000   70.10000    3.90000   26.00000
   12.10000    6.53000   77.80000    4.70000   26.00000
   12.10000    6.53000   84.20000    5.50000   27.00000
   12.10000    6.53000   90.20000    5.80000   21.00000
   12.10000    6.53000   97.20000    3.40000   21.00000
   12.10000    6.53000  103.80000    2.70000   19.00000
   12.10000    6.53000  111.70000    1.30000   30.00000
   12.10000    6.53000  120.10000    2.70000   22.00000
   12.10000    6.53000  126.00000    4.40000   20.00000
   12.10000    6.53000  133.70000    5.20000   23.00000
   12.10000    6.53000  140.60000    6.20000   24.00000
   12.10000    6.53000  148.00000    4.20000   26.00000
   12.10000    6.53000  154.90000    3.50000   26.00000
   12.10000    6.53000  162.70000    3.00000   20.00000
   12.10000    6.53000  168.80000    2.10000   29.00000
   12.10000    6.63000    1.50000  171.00000
   12.10000    6.63000    9.40000   75.20000
   12.10000    6.63000   17.90000   24.70000
   12.10000    6.63000   25.30000   13.40000
   12.10000    6.63000   33.60000   11.50000
   12.10000    6.63000   40.40000   12.50000
   12.10000    6.63000   49.00000   19.20000
   12.10000    6.63000   57.10000   20.80000
   12.10000    6.63000   64.10000   16.80000
   12.10000    6.63000   71.50000    9.10000
   12.10000    6.63000   78.50000    6.10000   10.00000
   12.10000    6.63000   85.80000    8.50000   18.00000
   12.10000    6.63000   91.30000   11.10000
   12.10000    6.63000   98.60000   14.10000
   12.10000    6.63000  105.90000   12.70000
   12.10000    6.63000  114.10000   12.60000
   12.10000    6.63000  121.00000   12.00000
   12.10000    6.63000  127.50000    9.30000    8.00000
   12.10000    6.63000  134.40000   10.90000
   12.10000    6.63000  142.10000   12.30000
   12.10000    6.63000  148.50000   15.40000
   12.10000    6.63000  156.30000   18.90000
   12.10000    6.63000  162.20000   24.20000
   12.10000    6.63000  170.00000   25.00000    8.00000
   12.10000    6.73000    3.70000 6230.00000
   12.10000    6.73000   11.20000 4990.00000
   12.10000    6.73000   18.70000 2890.00000
   12.10000    6.73000   26.30000  859.00000
   12.10000    6.73000   34.30000  390.00000
   12.10000    6.73000   42.50000  705.00000
   12.10000    6.73000   57.80000  512.00000
   12.10000    6.73000   65.30000  419.00000
   12.10000    6.73000   72.70000  350.00000
   12.10000    6.73000   80.60000  293.00000
   12.10000    6.73000   89.40000  192.00000
   12.10000    6.73000   93.80000  192.00000    8.00000
   12.10000    6.73000  102.10000  213.00000
   12.10000    6.73000  108.20000  178.00000    8.00000
   12.10000    6.73000  116.90000  190.00000   11.00000
   12.10000    6.73000  123.10000  124.00000   13.00000
   12.10000    6.73000  131.00000  106.00000   12.00000
   12.10000    6.73000  138.50000   63.00000   11.00000
   12.10000    6.73000  145.50000   67.00000   15.00000
   12.10000    6.73000  152.40000   77.00000   12.00000
   12.10000    6.73000  159.30000  131.00000
   12.10000    6.73000  167.10000  201.00000
   12.10000    6.73000  173.70000  228.00000
   12.10000    6.86000    5.40000   77.00000   19.00000
   12.10000    6.86000   12.30000  101.00000   13.00000
   12.10000    6.86000   20.20000   80.00000   13.00000
   12.10000    6.86000   27.90000  104.00000   13.00000
   12.10000    6.86000   35.70000   98.00000    9.00000
   12.10000    6.86000   44.50000   57.00000   14.00000
   12.10000    6.86000   52.30000   34.00000   18.00000
   12.10000    6.86000   59.40000   17.00000   29.00000
   12.10000    6.86000   67.10000   29.00000   21.00000
   12.10000    6.86000   74.40000   35.00000   14.00000
   12.10000    6.86000   82.60000   49.00000   12.00000
   12.10000    6.86000   89.50000   48.00000   13.00000
   12.10000    6.86000   95.20000   40.00000   15.00000
   12.10000    6.86000  102.10000   28.00000   21.00000
   12.10000    6.86000  110.00000   18.00000   28.00000
   12.10000    6.86000  117.40000   19.00000   21.00000
   12.10000    6.86000  124.80000    9.00000   40.00000
   12.10000    6.86000  131.10000   36.00000   17.00000
   12.10000    6.86000  138.90000   30.00000   20.00000
   12.10000    6.86000  146.30000   26.00000   19.00000
   12.10000    6.86000  152.80000   27.00000   15.00000
   12.10000    6.86000  160.60000   28.00000   21.00000
   12.10000    6.86000  167.90000   36.00000   17.00000
   12.10000    6.86000  174.80000   36.00000   14.00000
   12.10000    6.91000    5.10000   52.00000   27.00000
   12.10000    6.91000   13.70000   60.00000   15.00000
   12.10000    6.91000   21.00000   53.00000   19.00000
   12.10000    6.91000   29.10000   82.00000   11.00000
   12.10000    6.91000   37.00000   40.00000   18.00000
   12.10000    6.91000   44.20000   54.00000   15.00000
   12.10000    6.91000   51.60000   43.00000   19.00000
   12.10000    6.91000   60.60000   41.00000   17.00000
   12.10000    6.91000   68.00000   29.00000   17.00000
   12.10000    6.91000   74.50000   16.00000   25.00000
   12.10000    6.91000   82.60000   21.00000   24.00000
   12.10000    6.91000   90.40000   21.00000   24.00000
   12.10000    6.91000   95.50000   21.00000   24.00000
   12.10000    6.91000  102.40000   19.00000   21.00000
   12.10000    6.91000  109.40000   10.80000   27.00000
   12.10000    6.91000  118.00000    6.70000   40.00000
   12.10000    6.91000  131.60000   18.00000   22.00000
   12.10000    6.91000  138.50000   18.00000   22.00000
   12.10000    6.91000  145.30000   27.00000   22.00000
   12.10000    6.91000  153.10000   25.00000   20.00000
   12.10000    6.91000  159.50000   29.00000   17.00000
   12.10000    6.91000  167.30000   24.00000   21.00000
   12.10000    6.91000  173.70000   27.00000   22.00000
   12.10000    6.99000   20.50000   20.00000   25.00000
   12.10000    6.99000   28.20000   42.00000   14.00000
   12.10000    6.99000   36.40000   34.00000   21.00000
   12.10000    6.99000   44.70000   35.00000   17.00000
   12.10000    6.99000   52.90000   33.00000   18.00000
   12.10000    6.99000   59.40000   32.00000   22.00000
   12.10000    6.99000   67.20000   30.00000   17.00000
   12.10000    6.99000   75.40000   34.00000   21.00000
   12.10000    6.99000   81.90000   42.00000   14.00000
   12.10000    6.99000   90.10000   56.00000   13.00000
   12.10000    6.99000   94.80000   46.00000   17.00000
   12.10000    6.99000  102.30000   30.00000   17.00000
   12.10000    6.99000  109.60000   36.00000   19.00000
   12.10000    6.99000  117.40000   43.00000   14.00000
   12.10000    6.99000  125.10000   59.00000   12.00000
   12.10000    6.99000  131.60000   55.00000   11.00000
   12.10000    6.99000  139.40000   58.00000   14.00000
   12.10000    6.99000  146.40000   44.00000   14.00000
   12.10000    6.99000  152.90000   44.00000   18.00000
   12.10000    6.99000  160.60000   56.00000   11.00000
   12.10000    6.99000  167.50000   58.00000   16.00000
   12.10000    6.99000  174.50000   60.00000   13.00000
   12.10000    7.04000    3.70000  385.00000
   12.10000    7.04000   11.90000  350.00000
   12.10000    7.04000   27.50000  225.00000
   12.10000    7.04000   34.90000  300.00000
   12.10000    7.04000   42.70000  350.00000
   12.10000    7.04000   50.50000  485.00000
   12.10000    7.04000   58.30000  467.00000
   12.10000    7.04000   66.90000  363.00000
   12.10000    7.04000   73.90000  242.00000
   12.10000    7.04000   82.20000  196.00000
   12.10000    7.04000   89.10000  208.00000
   12.10000    7.04000   94.30000  212.00000
   12.10000    7.04000  101.70000  189.00000
   12.10000    7.04000  109.50000  175.00000
   12.10000    7.04000  116.40000  144.00000
   12.10000    7.04000  123.80000  131.00000
   12.10000    7.04000  131.60000  133.00000
   12.10000    7.04000  139.00000   98.00000   11.00000
   12.10000    7.04000  146.80000   89.00000    7.00000
   12.10000    7.04000  152.90000   96.00000   10.00000
   12.10000    7.04000  160.70000   71.00000    8.00000
   12.10000    7.04000  168.10000   82.00000    9.00000
   12.10000    7.04000  175.00000  104.00000   10.00000
   12.10000    7.07000    2.20000   21.60000
   12.10000    7.07000   10.60000   10.90000   11.00000
   12.10000    7.07000   26.90000    5.60000   13.00000
   12.10000    7.07000   35.20000    4.60000   13.00000
   12.10000    7.07000   42.60000    4.40000   16.00000
   12.10000    7.07000   50.50000    3.10000   16.00000
   12.10000    7.07000   58.30000    3.40000   21.00000
   12.10000    7.07000   66.60000    3.40000   15.00000
   12.10000    7.07000   74.20000    1.50000   27.00000
   12.10000    7.07000   81.20000    1.20000   30.00000
   12.10000    7.07000   89.00000    1.70000   24.00000
   12.10000    7.07000   95.10000    1.30000   30.00000
   12.10000    7.07000  101.60000    1.50000   20.00000
   12.10000    7.07000  109.80000    3.10000   16.00000
   12.10000    7.07000  116.80000    2.70000   15.00000
   12.10000    7.07000  123.80000    2.20000   23.00000
   12.10000    7.07000  132.00000    4.40000   11.00000
   12.10000    7.07000  139.00000    3.40000   18.00000
   12.10000    7.07000  146.40000    3.50000   17.00000
   12.10000    7.07000  153.90000    2.40000   21.00000
   12.10000    7.07000  160.10000    1.50000   27.00000
   12.10000    7.07000  167.40000    2.60000   19.00000
   12.10000    7.07000  174.90000    1.30000   30.00000
   12.10000    7.22000    3.00000   16.10000   17.00000
   12.10000    7.22000   11.40000   11.20000   13.00000
   12.10000    7.22000   20.10000    9.60000    9.00000
   12.10000    7.22000   27.60000    5.50000   11.00000
   12.10000    7.22000   35.00000    7.30000   12.00000
   12.10000    7.22000   42.40000    6.20000   18.00000
   12.10000    7.22000   50.70000    5.40000   11.00000
   12.10000    7.22000   59.00000    5.30000    9.00000
   12.10000    7.22000   66.50000    4.70000   13.00000
   12.10000    7.22000   74.30000    5.40000   13.00000
   12.10000    7.22000   81.70000    6.10000   10.00000
   12.10000    7.22000   88.70000    5.00000   16.00000
   12.10000    7.22000   94.30000    5.40000   11.00000
   12.10000    7.22000  101.80000    4.10000   10.00000
   12.10000    7.22000  109.20000    4.30000   14.00000
   12.10000    7.22000  117.60000    2.90000   17.00000
   12.10000    7.22000  124.50000    3.40000   15.00000
   12.10000    7.22000  131.50000    3.70000   14.00000
   12.10000    7.22000  139.80000    3.10000   13.00000
   12.10000    7.22000  146.30000    2.90000   17.00000
   12.10000    7.22000  152.90000    2.60000   15.00000
   12.10000    7.22000  161.30000    1.30000   23.00000
   12.10000    7.22000  167.80000    1.60000   25.00000
   12.10000    7.22000  173.60000    0.83000   30.00000
   12.10000    7.22000  175.90000    0.39000   10.00000
   12.10000    7.25000    5.00000  300.00000   10.00000
   12.10000    7.25000   12.90000  245.00000    7.00000
   12.10000    7.25000   20.70000  244.00000
   12.10000    7.25000   28.60000  174.00000
   12.10000    7.25000   36.10000  106.00000
   12.10000    7.25000   52.00000   35.00000   14.00000
   12.10000    7.25000   60.20000   35.00000   17.00000
   12.10000    7.25000   67.60000   39.00000   13.00000
   12.10000    7.25000   75.00000   40.00000   15.00000
   12.10000    7.25000   82.90000   37.00000   14.00000
   12.10000    7.25000   90.30000   37.00000   14.00000
   12.10000    7.25000   95.40000   60.00000   12.00000
   12.10000    7.25000  103.00000   23.00000   22.00000
   12.10000    7.25000  110.90000   14.00000   21.00000
   12.10000    7.25000  118.20000   30.00000   17.00000
   12.10000    7.25000  125.60000   30.00000   17.00000
   12.10000    7.25000  133.00000   30.00000   13.00000
   12.10000    7.25000  139.50000   21.00000   24.00000
   12.10000    7.25000  146.90000   37.00000   14.00000
   12.10000    7.25000  153.30000   60.00000   12.00000
   12.10000    7.25000  161.10000   89.00000   11.00000
   12.10000    7.25000  168.00000  124.00000   10.00000
   12.10000    7.25000  175.80000  159.00000    9.00000
   12.10000    7.44000    6.50000  159.00000
   12.10000    7.44000   14.70000   81.00000
   12.10000    7.44000   22.50000   24.00000
   12.10000    7.44000   30.40000    8.82000
   12.10000    7.44000   38.20000    5.30000   15.00000
   12.10000    7.44000   45.50000    3.50000   14.00000
   12.10000    7.44000   52.70000    9.60000    8.00000
   12.10000    7.44000   68.70000   10.80000    9.00000
   12.10000    7.44000   76.50000    4.40000    9.00000
   12.10000    7.44000   84.70000    1.40000   29.00000
   12.10000    7.44000   92.00000    1.60000   25.00000
   12.10000    7.44000   96.30000    4.20000   12.00000
   12.10000    7.44000  104.00000    3.10000   16.00000
   12.10000    7.44000  111.40000    3.40000   18.00000
   12.10000    7.44000  118.30000    1.40000   29.00000
   12.10000    7.44000  133.90000    0.50000   50.00000
   12.10000    7.44000  141.60000    0.60000   40.00000
   12.10000    7.44000  148.10000    0.70000   40.00000
   12.10000    7.44000  155.40000    0.87000   30.00000
   12.10000    7.44000  162.30000    0.79000   15.00000
   12.10000    7.44000  162.70000    0.75000   30.00000
   12.10000    7.44000  169.10000    1.40000   29.00000
   12.10000    7.44000  176.50000    0.80000   50.00000
   12.10000    7.50000    6.00000   66.00000   17.00000
   12.10000    7.50000   13.30000  118.00000   15.00000
   12.10000    7.50000   21.40000  137.00000   10.00000
   12.10000    7.50000   29.70000   88.00000   14.00000
   12.10000    7.50000   37.10000   56.00000   11.00000
   12.10000    7.50000   44.40000   38.00000   13.00000
   12.10000    7.50000   53.00000   41.00000   15.00000
   12.10000    7.50000   67.70000   40.00000   13.00000
   12.10000    7.50000   75.80000   39.00000   13.00000
   12.10000    7.50000   84.00000   55.00000   13.00000
   12.10000    7.50000   90.90000   57.00000   11.00000
   12.10000    7.50000   96.50000   41.00000   12.00000
   12.10000    7.50000  103.40000   35.00000   14.00000
   12.10000    7.50000  110.30000   40.00000   13.00000
   12.10000    7.50000  118.00000   40.00000   15.00000
   12.10000    7.50000  124.90000   38.00000   13.00000
   12.10000    7.50000  132.70000   37.00000   14.00000
   12.10000    7.50000  139.90000   51.00000   14.00000
   12.10000    7.50000  146.40000   62.00000   10.00000
   12.10000    7.50000  153.70000   63.00000   10.00000
   12.10000    7.50000  161.40000   69.00000   12.00000
   12.10000    7.50000  168.80000   39.00000   13.00000
   12.10000    7.50000  175.20000   47.00000   11.00000
   12.10000    7.61000    5.40000  530.00000    9.00000
   12.10000    7.61000   12.70000  590.00000    8.00000
   12.10000    7.61000   21.00000  527.00000    2.80000
   12.10000    7.61000   28.30000  680.00000    7.00000
   12.10000    7.61000   36.90000  732.00000
   12.10000    7.61000   44.70000  606.00000
   12.10000    7.61000   52.10000  385.00000
   12.10000    7.61000   60.00000  269.00000
   12.10000    7.61000   75.10000  265.00000
   12.10000    7.61000   82.90000  237.00000
   12.10000    7.61000   90.70000  200.00000
   12.10000    7.61000   96.30000  229.00000
   12.10000    7.61000  102.80000  221.00000
   12.10000    7.61000  110.20000  170.00000
   12.10000    7.61000  116.70000  149.00000
   12.10000    7.61000  124.50000  158.00000
   12.10000    7.61000  132.70000  165.00000
   12.10000    7.61000  139.60000  192.00000
   12.10000    7.61000  146.90000  216.00000
   12.10000    7.61000  153.40000  238.00000
   12.10000    7.61000  160.70000  205.00000    9.00000
   12.10000    7.61000  168.10000  180.00000    9.00000
   12.10000    7.61000  175.40000  206.00000    7.00000
   12.10000    7.66000   12.40000  133.00000   11.00000
   12.10000    7.66000   19.90000  228.00000
   12.10000    7.66000   27.70000  297.00000
   12.10000    7.66000   36.00000  295.00000
   12.10000    7.66000   43.40000  196.00000
   12.10000    7.66000   50.30000  127.00000
   12.10000    7.66000   59.40000  112.00000
   12.10000    7.66000   67.70000   88.50000
   12.10000    7.66000   75.10000   81.40000
   12.10000    7.66000   90.30000   66.30000
   12.10000    7.66000   96.90000   68.60000
   12.10000    7.66000  101.20000   55.00000    9.00000
   12.10000    7.66000  109.50000   57.00000   14.00000
   12.10000    7.66000  116.90000   45.00000   16.00000
   12.10000    7.66000  124.20000   39.00000   13.00000
   12.10000    7.66000  131.70000   52.00000   12.00000
   12.10000    7.66000  139.50000   52.00000    8.00000
   12.10000    7.66000  146.90000   66.00000    8.00000
   12.10000    7.66000  153.90000   58.00000   12.00000
   12.10000    7.66000  160.80000   57.00000    9.00000
   12.10000    7.66000  167.40000   49.00000    8.00000
   12.10000    7.66000  175.20000   32.00000   16.00000
   12.10000    7.66000  182.60000   33.00000   15.00000
   12.10000    7.80000    8.80000   75.00000   19.00000
   12.10000    7.80000   17.40000   76.00000   14.00000
   12.10000    7.80000   24.40000   82.00000    9.00000
   12.10000    7.80000   33.00000   81.00000    7.00000
   12.10000    7.80000   40.00000   92.00000    8.00000
   12.10000    7.80000   47.70000  100.00000    8.00000
   12.10000    7.80000   55.50000   70.00000
   12.10000    7.80000   63.30000   51.90000
   12.10000    7.80000   70.70000   49.00000    8.00000
   12.10000    7.80000   79.40000   44.00000   14.00000
   12.10000    7.80000   93.20000   40.00000   15.00000
   12.10000    7.80000   99.30000   43.00000   12.00000
   12.10000    7.80000  105.80000   25.00000   20.00000
   12.10000    7.80000  113.50000   30.00000   17.00000
   12.10000    7.80000  120.90000   40.00000   15.00000
   12.10000    7.80000  127.80000   34.00000   12.00000
   12.10000    7.80000  136.10000   31.00000   16.00000
   12.10000    7.80000  143.00000   40.00000   13.00000
   12.10000    7.80000  150.30000   43.00000   14.00000
   12.10000    7.80000  156.80000   58.00000   14.00000
   12.10000    7.80000  164.60000   58.00000   10.00000
   12.10000    7.80000  172.00000   74.00000   11.00000
   12.10000    7.80000  178.50000   74.00000    9.00000
   12.10000    7.90000    8.70000 2000.00000
   12.10000    7.90000   17.40000 2470.00000
   12.10000    7.90000   25.70000 2820.00000
   12.10000    7.90000   33.50000 2320.00000
   12.10000    7.90000   40.80000 1200.00000
   12.10000    7.90000   48.00000  493.00000
   12.10000    7.90000   55.30000  286.00000
   12.10000    7.90000   62.70000  270.00000
   12.10000    7.90000   71.00000  285.00000
   12.10000    7.90000   78.80000  254.00000
   12.10000    7.90000   86.20000  279.00000
   12.10000    7.90000   98.20000  119.00000   11.00000
   12.10000    7.90000  105.60000   87.00000    9.00000
   12.10000    7.90000  112.90000   60.00000   15.00000
   12.10000    7.90000  120.30000   60.00000   13.00000
   12.10000    7.90000  128.60000  111.00000
   12.10000    7.90000  136.90000  151.00000
   12.10000    7.90000  143.50000  154.00000
   12.10000    7.90000  150.40000  154.00000
   12.10000    7.90000  157.00000  179.00000
   12.10000    7.90000  164.30000  124.00000
   12.10000    8.09000    6.10000  637.00000
   12.10000    8.09000   14.30000  775.00000
   12.10000    8.09000   22.60000 1017.00000
   12.10000    8.09000   30.40000 1210.00000
   12.10000    8.09000   37.80000  951.00000
   12.10000    8.09000   45.70000  641.00000
   12.10000    8.09000   54.40000  331.00000
   12.10000    8.09000   61.30000  195.00000
   12.10000    8.09000   68.30000  181.00000
   12.10000    8.09000   76.20000  208.00000
   12.10000    8.09000   83.60000  138.00000
   12.10000    8.09000   91.40000  123.00000
   12.10000    8.09000   96.60000  181.00000
   12.10000    8.09000  103.60000  304.00000
   12.10000    8.09000  111.00000  201.00000
   12.10000    8.09000  118.40000  167.00000
   12.10000    8.09000  125.80000  134.00000
   12.10000    8.09000  133.20000   89.90000
   12.10000    8.09000  140.20000  123.00000
ENDDATA           1217
ENDSUBENT         1238
SUBENT        O1756003   20090707   20100128   20100120       O040
BIB                  5         11
REACTION   (14-SI-28(T,P)14-SI-30,PAR,DA,,REL) fig 2,3
SAMPLE     Self-supporting targets of SiO(2) were used.
           The isotopic enrichment is 95% of Si-28.
FACILITY   (VDG,2UK ALD) 6 MV Van de Graaff accelerator.
COMMENT    *By authors*.In reaction the thickness of the
           target was not known with sufficient accuracy to permit
           calculation of reliable values of absolute cross
           section.
ERR-ANALYS (ERR-S).The errors are mainly statistical, but include,
           where necessary, an allowance for unfolding from other
           nearby groups.
ENDBIB              11
COMMON               2          3
ANG-ERR-D  ERR-DIG
ADEG       PER-CENT
0.6        2.8
ENDCOMMON            3
DATA                 6         96
EN         E-LVL      E-LVL      ANG-CM     DATA-CM    ERR-S
MEV        MEV        MEV        ADEG       ARB-UNITS  PER-CENT
   10.50000    3.77000    3.79000    8.80000  340.00000   12.00000
   10.50000    3.77000    3.79000   16.20000  180.00000    9.00000
   10.50000    3.77000    3.79000   23.50000   89.00000   15.00000
   10.50000    3.77000    3.79000   31.80000   54.00000   11.00000
   10.50000    3.77000    3.79000   40.20000   75.00000   12.00000
   10.50000    3.77000    3.79000   47.70000   92.00000   12.00000
   10.50000    3.77000    3.79000   54.30000   81.00000   12.00000
   10.50000    3.77000    3.79000   62.10000   65.00000   15.00000
   10.50000    3.77000    3.79000   70.10000   68.00000   15.00000
   10.50000    3.77000    3.79000   78.40000   51.00000    8.00000
   10.50000    3.77000    3.79000   84.90000   31.00000   19.00000
   10.50000    3.77000    3.79000   92.70000   25.00000   28.00000
   10.50000    3.77000    3.79000   98.30000   11.90000   24.00000
   10.50000    3.77000    3.79000  105.10000   33.00000   15.00000
   10.50000    3.77000    3.79000  113.00000   39.00000   18.00000
   10.50000    3.77000    3.79000  120.00000   37.00000   19.00000
   10.50000    3.77000    3.79000  127.60000   57.00000   16.00000
   10.50000    3.77000    3.79000  134.10000   33.00000   15.00000
   10.50000    3.77000    3.79000  141.90000   19.00000   21.00000
   10.50000    3.77000    3.79000  149.00000   26.00000   23.00000
   10.50000    3.77000    3.79000  156.60000   61.00000   11.00000
   10.50000    3.77000    3.79000  163.70000   94.00000   10.00000
   10.50000    3.77000    3.79000  171.20000  129.00000
   10.50000    3.77000    3.79000  178.30000  191.00000
   10.50000    4.81000    4.83000    6.30000  196.00000   15.00000
   10.50000    4.81000    4.83000   13.80000  154.00000   13.00000
   10.50000    4.81000    4.83000   22.20000  154.00000   12.00000
   10.50000    4.81000    4.83000   30.10000  144.00000   13.00000
   10.50000    4.81000    4.83000   38.40000  141.00000    9.00000
   10.50000    4.81000    4.83000   45.00000  130.00000   15.00000
   10.50000    4.81000    4.83000   52.90000  167.00000    7.00000
   10.50000    4.81000    4.83000   60.80000  123.00000    7.00000
   10.50000    4.81000    4.83000   69.20000   75.00000    8.00000
   10.50000    4.81000    4.83000   75.80000   65.00000   17.00000
   10.50000    4.81000    4.83000   83.70000   49.00000   12.00000
   10.50000    4.81000    4.83000   90.30000   58.00000   12.00000
   10.50000    4.81000    4.83000   96.00000   65.00000   12.00000
   10.50000    4.81000    4.83000  103.50000   71.00000   11.00000
   10.50000    4.81000    4.83000  111.00000   71.00000   11.00000
   10.50000    4.81000    4.83000  118.40000   68.00000   10.00000
   10.50000    4.81000    4.83000  125.50000   96.00000    9.00000
   10.50000    4.81000    4.83000  132.50000  123.00000   10.00000
   10.50000    4.81000    4.83000  140.50000  144.00000    8.00000
   10.50000    4.81000    4.83000  147.50000  136.00000    9.00000
   10.50000    4.81000    4.83000  154.50000  111.00000    9.00000
   10.50000    4.81000    4.83000  162.50000  128.00000    9.00000
   10.50000    4.81000    4.83000  169.50000  109.00000   11.00000
   10.50000    4.81000    4.83000  176.50000  113.00000    7.00000
   12.10000    3.77000    3.79000    9.30000  430.00000    9.00000
   12.10000    3.77000    3.79000   16.60000  208.00000
   12.10000    3.77000    3.79000   23.90000   63.00000   14.00000
   12.10000    3.77000    3.79000   32.60000   44.00000   18.00000
   12.10000    3.77000    3.79000   40.40000   41.00000   17.00000
   12.10000    3.77000    3.79000   47.00000   64.00000    9.00000
   12.10000    3.77000    3.79000   55.40000  111.00000   10.00000
   12.10000    3.77000    3.79000   63.20000   70.00000   13.00000
   12.10000    3.77000    3.79000   70.50000   32.00000   19.00000
   12.10000    3.77000    3.79000   77.90000   18.00000   22.00000
   12.10000    3.77000    3.79000   86.20000   19.00000   26.00000
   12.10000    3.77000    3.79000   94.20000   36.00000   19.00000
   12.10000    3.77000    3.79000   98.20000   48.00000   13.00000
   12.10000    3.77000    3.79000  105.20000   47.00000   15.00000
   12.10000    3.77000    3.79000  112.50000   27.00000   19.00000
   12.10000    3.77000    3.79000  120.30000   21.00000   19.00000
   12.10000    3.77000    3.79000  128.10000   15.00000   27.00000
   12.10000    3.77000    3.79000  134.40000   34.00000   18.00000
   12.10000    3.77000    3.79000  141.80000   32.00000   19.00000
   12.10000    3.77000    3.79000  148.90000   51.00000   18.00000
   12.10000    3.77000    3.79000  156.30000   55.00000   15.00000
   12.10000    3.77000    3.79000  163.40000   64.00000   11.00000
   12.10000    3.77000    3.79000  171.20000   52.00000   15.00000
   12.10000    3.77000    3.79000  178.60000   45.00000   16.00000
   12.10000    4.81000    4.83000    5.50000   92.00000   16.00000
   12.10000    4.81000    4.83000   13.00000   92.00000   16.00000
   12.10000    4.81000    4.83000   21.30000  139.00000   13.00000
   12.10000    4.81000    4.83000   29.60000  142.00000
   12.10000    4.81000    4.83000   36.70000  139.00000   10.00000
   12.10000    4.81000    4.83000   44.20000   98.00000   12.00000
   12.10000    4.81000    4.83000   52.10000   78.00000   13.00000
   12.10000    4.81000    4.83000   60.50000   75.00000    8.00000
   12.10000    4.81000    4.83000   67.50000   55.00000   16.00000
   12.10000    4.81000    4.83000   75.00000   47.00000   13.00000
   12.10000    4.81000    4.83000   82.90000   69.00000    7.00000
   12.10000    4.81000    4.83000   89.60000   33.00000   12.00000
   12.10000    4.81000    4.83000   94.80000   61.00000   16.00000
   12.10000    4.81000    4.83000  102.70000   52.00000   21.00000
   12.10000    4.81000    4.83000  110.20000   46.00000   13.00000
   12.10000    4.81000    4.83000  117.70000   44.00000   16.00000
   12.10000    4.81000    4.83000  125.20000   49.00000   20.00000
   12.10000    4.81000    4.83000  131.70000   71.00000   11.00000
   12.10000    4.81000    4.83000  139.20000  102.00000    9.00000
   12.10000    4.81000    4.83000  146.70000   94.00000   11.00000
   12.10000    4.81000    4.83000  154.10000  123.00000    7.00000
   12.10000    4.81000    4.83000  161.20000  118.00000
   12.10000    4.81000    4.83000  168.60000  218.00000
   12.10000    4.81000    4.83000  175.60000  221.00000
ENDDATA             98
ENDSUBENT          118
SUBENT        O1756004   20090707   20100128   20100120       O040
BIB                  7         25
REACTION   (14-SI-29(D,P)14-SI-30,PAR,DA) fig 5
EN-SEC     (E-LVL,14-SI-30)
SAMPLE     An enriched silicon target, Si-29 92.0%, Si-28 7.74%
           and Si-30 0.26%, the areal density of Si-29 in the
           target was deduced to be 20+-4 mug/cm**2.
FACILITY   (VDGT,3AULCBR) EN tandem Van de Graaff accelerator.
DETECTOR   (SIBAR) for 2 MeV deuterons the reaction products were
           detected with silicon surface barrier detector.
           (TELES) The outgoing protons were detected with
           semiconductor counter telescopes at lab angles of 27.5,
            35.0 and 42.5 degrees.
COMMENT    *By authors*.The supplementary measurements were made
           in a 50 cm diameter scattering chamber.
           Yields of several clearly defined proton groups from
           the magnetic spectrograph work were compared with the
           data obtained using semiconductor detector and the
           target of known thickness.The (d,p) angular
           distribution obtained with the magnetic spectrograph
           could then be expressed in absolute cross section units
           with an accuracy of approximately 25%. Because a beam
           of tritons was no longer available it was not possible
           to use the above technique to determine an absolute
           cross section scale for the (t,p) reaction.
ERR-ANALYS (DATA-ERR).The error is reported by authors on fig.
           (ERR-1).The uncertainty in target thickness.
ENDBIB              25
COMMON               4          3
EN         ERR-1      ERR-DIG    ANG-ERR-D
MEV        PER-CENT   PER-CENT   ADEG
10.        20.        3.0        0.7
ENDCOMMON            3
DATA                 4        317
E-LVL      ANG-CM     DATA-CM    DATA-ERR
MEV        ADEG       MB/SR      PER-CENT
    0.00000   10.50000   11.20000
    0.00000   17.50000    5.21000
    0.00000   25.00000    1.07000
    0.00000   32.50000    0.48500
    0.00000   41.00000    0.51000
    0.00000   47.50000    0.21600
    0.00000   55.50000    0.08300   12.00000
    0.00000   63.50000    0.23800
    0.00000   72.00000    0.38100
    0.00000   80.00000    0.28200
    0.00000   86.50000    0.11900   10.00000
    0.00000   94.50000    0.05700   14.00000
    0.00000   99.50000    0.06100   11.00000
    0.00000  107.50000    0.11000   12.00000
    0.00000  115.00000    0.10700    9.00000
    0.00000  121.50000    0.06800   13.00000
    0.00000  129.50000    0.04900   18.00000
    0.00000  136.50000    0.05500   16.00000
    0.00000  144.00000    0.05000   16.00000
    0.00000  151.50000    0.05300   19.00000
    0.00000  160.00000    0.06800   15.00000
    0.00000  167.00000    0.06600   18.00000
    2.23000    7.40000    0.63000    6.00000
    2.23000   14.80000    0.91000
    2.23000   22.70000    1.71000
    2.23000   31.10000    2.36000
    2.23000   39.00000    1.63000
    2.23000   46.10000    0.74900
    2.23000   53.60000    0.32100
    2.23000   61.00000    0.30900
    2.23000   68.40000    0.31200
    2.23000   75.90000    0.26700    7.00000
    2.23000   83.40000    0.16800    8.00000
    2.23000   91.30000    0.21500    7.00000
    2.23000   96.30000    0.17500   13.00000
    2.23000  104.20000    0.25200    8.00000
    2.23000  111.60000    0.19600    8.00000
    2.23000  118.10000    0.19800    8.00000
    2.23000  126.00000    0.13700   12.00000
    2.23000  133.00000    0.11100   11.00000
    2.23000  140.40000    0.21400   10.00000
    2.23000  147.80000    0.26200    7.00000
    2.23000  155.20000    0.36000    8.00000
    3.51000    5.00000    0.29000   14.00000
    3.51000   12.90000    0.33900    6.00000
    3.51000   20.80000    0.56200
    3.51000   27.30000    0.52500
    3.51000   36.30000    0.41700
    3.51000   43.30000    0.24000    9.00000
    3.51000   51.40000    0.14100   10.00000
    3.51000   59.40000    0.12000    6.00000
    3.51000   66.40000    0.09100    9.00000
    3.51000   74.30000    0.10200   10.00000
    3.51000   89.30000    0.09500    7.00000
    3.51000  102.20000    0.10700   13.00000
    3.51000  109.60000    0.11200    8.00000
    3.51000  116.20000    0.07200   10.00000
    3.51000  124.60000    0.12300   10.00000
    3.51000  131.10000    0.06900   14.00000
    3.51000  138.70000    0.04300   19.00000
    5.27000    6.90000    0.10700   21.00000
    5.27000   14.90000    0.07600   18.00000
    5.27000   22.40000    0.11500   11.00000
    5.27000   29.90000    0.05700   18.00000
    5.27000   38.40000    0.06800   10.00000
    5.27000   45.30000    0.07300   10.00000
    5.27000   52.80000    0.06400   14.00000
    5.27000   61.30000    0.08600    8.00000
    5.27000   67.80000    0.07900   10.00000
    5.27000   76.20000    0.08200   10.00000
    5.27000   84.20000    0.06000   13.00000
    5.27000   91.70000    0.07200   10.00000
    5.27000   96.20000    0.05000   16.00000
    5.27000  103.70000    0.05900   15.00000
    5.27000  111.10000    0.09600   13.00000
    5.27000  118.10000    0.06000   15.00000
    5.48000    4.50000    0.85100
    5.48000   12.50000    0.79600
    5.48000   20.00000    1.08000
    5.48000   28.00000    1.34000
    5.48000   35.90000    1.45000
    5.48000   44.00000    1.09000
    5.48000   51.10000    0.71900
    5.48000   59.10000    0.47200
    5.48000   67.20000    0.36600
    5.48000   74.70000    0.39400
    5.48000   82.10000    0.44400
    5.48000   89.70000    0.38700
    5.48000   94.80000    0.23100
    5.48000  102.70000    0.27400
    5.48000  109.20000    0.25600
    5.48000  116.30000    0.21700
    5.48000  123.80000    0.24500   10.00000
    5.48000  131.80000    0.21400    6.00000
    5.48000  138.80000    0.21400    7.00000
    5.48000  145.80000    0.18200
    5.48000  153.30000    0.22100
    5.48000  160.30000    0.22100
    5.48000  167.80000    0.25000    9.00000
    5.48000  174.70000    0.29500    7.00000
    5.61000    5.90000    0.14700   14.00000
    5.61000   13.70000    0.31000   10.00000
    5.61000   21.70000    0.35300
    5.61000   29.10000    0.39800
    5.61000   36.60000    0.30900
    5.61000   44.60000    0.28300
    5.61000   52.10000    0.20900
    5.61000   60.10000    0.17900
    5.61000   67.10000    0.12900
    5.61000   75.10000    0.10300   10.00000
    5.61000   83.00000    0.08800   16.00000
    5.61000   90.00000    0.05500   15.00000
    5.61000   95.50000    0.06400   13.00000
    5.61000  103.00000    0.07200   13.00000
    5.61000  109.90000    0.08500   11.00000
    5.61000  117.40000    0.05000   14.00000
    5.61000  124.80000    0.07600   14.00000
    5.61000  131.80000    0.08600   10.00000
    5.61000  139.30000    0.06700   13.00000
    5.61000  146.70000    0.07500   12.00000
    5.61000  153.70000    0.06400   16.00000
    5.61000  161.20000    0.07600   12.00000
    5.61000  168.10000    0.06500   15.00000
    5.61000  175.60000    0.05800   16.00000
    5.95000    5.90000    0.03500   40.00000
    5.95000   13.80000    0.06400   20.00000
    5.95000   22.30000    0.08800    9.00000
    5.95000   29.70000    0.08000   14.00000
    5.95000   44.70000    0.05000   16.00000
    5.95000   52.60000    0.06300   13.00000
    5.95000   60.60000    0.04400   18.00000
    5.95000   68.10000    0.05000   14.00000
    5.95000   76.10000    0.04300   16.00000
    5.95000   84.00000    0.04500   16.00000
    5.95000   90.90000    0.06500   14.00000
    5.95000  102.90000    0.05500   15.00000
    5.95000  110.40000    0.05700   14.00000
    5.95000  117.80000    0.06300   11.00000
    5.95000  125.30000    0.05800   14.00000
    5.95000  131.70000    0.07000   11.00000
    5.95000  139.70000    0.05200   13.00000
    5.95000  147.20000    0.04900   16.00000
    5.95000  153.60000    0.08000   11.00000
    5.95000  161.50000    0.08800    9.00000
    5.95000  168.00000    0.13600    7.00000
    5.95000  175.40000    0.14900    8.00000
    6.50000   25.30000    2.38000
    6.50000   34.10000    2.67000
    6.50000   40.60000    2.17000
    6.50000   48.70000    1.30000
    6.50000   57.20000    0.82100
    6.50000   65.20000    0.52900
    6.50000   72.60000    0.54100
    6.50000   80.00000    0.60700
    6.50000   87.40000    0.49300
    6.50000   92.80000    0.53000    6.00000
    6.50000  100.20000    0.49300
    6.50000  107.70000    0.39100
    6.50000  115.20000    0.27700
    6.50000  123.00000    0.29600    9.00000
    6.50000  129.50000    0.24100    7.00000
    6.50000  136.90000    0.25200
    6.50000  144.40000    0.20500    9.00000
    6.50000  152.20000    0.20900    7.00000
    6.50000  160.10000    0.23500    8.00000
    6.50000  167.50000    0.18700   10.00000
    6.50000  173.90000    0.20900
    6.63000    2.30000    4.27000
    6.63000    5.50000    5.03000
    6.63000   13.50000    3.84000
    6.63000   21.70000    1.74000
    6.63000   37.40000    0.73500
    6.63000   44.40000    0.67400
    6.63000   52.80000    0.57700
    6.63000   60.60000    0.27900
    6.63000   75.50000    0.19600
    6.63000   83.40000    0.20100
    6.63000   88.30000    0.19700
    6.63000   95.90000    0.13700
    6.63000  103.20000    0.15800    9.00000
    6.63000  110.70000    0.12700    9.00000
    6.63000  117.50000    0.13000    8.00000
    6.63000  125.40000    0.13100   10.00000
    6.63000  132.30000    0.12800    7.00000
    6.63000  140.50000    0.15100    9.00000
    6.63000  147.40000    0.15600    8.00000
    6.63000  155.30000    0.15600    8.00000
    6.63000  162.70000    0.15000    7.00000
    6.63000  170.20000    0.12000   10.00000
    6.73000   10.80000   11.90000
    6.73000   18.80000    8.75000
    6.73000   27.00000    3.73000
    6.73000   34.00000    2.23000
    6.73000   42.40000    2.05000
    6.73000   57.30000    1.45000
    6.73000   65.50000    0.77600
    6.73000   73.00000    0.43400
    6.73000   80.50000    0.31800
    6.73000   88.50000    0.29900
    6.73000   93.30000    0.40300
    6.73000  100.30000    0.29600
    6.73000  108.20000    0.29800
    6.73000  115.60000    0.28000
    6.73000  123.10000    0.19200    8.00000
    6.73000  130.80000    0.29700    7.00000
    6.73000  137.70000    0.29200    8.00000
    6.73000  145.70000    0.23500    8.00000
    6.73000  152.60000    0.24200   10.00000
    6.73000  160.50000    0.18500    9.00000
    6.73000  167.60000    0.11900    7.00000
    6.73000  174.90000    0.14000    9.00000
    7.04000    4.20000    0.10800   18.00000
    7.04000   12.30000    0.22000   23.00000
    7.04000   19.50000    0.29000   21.00000
    7.04000   27.50000    0.21000   14.00000
    7.04000   34.70000    0.09400   22.00000
    7.04000   42.90000    0.13100   18.00000
    7.04000   51.20000    0.12800   18.00000
    7.04000   58.50000    0.16000   19.00000
    7.04000   66.80000    0.15000   17.00000
    7.04000   81.60000    0.12300   19.00000
    7.04000  101.50000    0.06200   21.00000
    7.04000  116.00000    0.09400    9.00000
    7.04000  123.90000    0.08800   17.00000
    7.04000  131.20000    0.09700   10.00000
    7.04000  138.00000    0.12000
    7.04000  145.40000    0.08800    9.00000
    7.04000  153.10000    0.13100
    7.04000  160.70000    0.07300   11.00000
    7.04000  167.40000    0.11000   10.00000
    7.04000  175.30000    0.09900    9.00000
    7.22000    0.80000    0.03300   18.00000
    7.22000    8.10000    0.07600   17.00000
    7.22000   15.90000    0.08300   19.00000
    7.22000   24.50000    0.12800   20.00000
    7.22000   31.50000    0.10100   19.00000
    7.22000   39.40000    0.08900   11.00000
    7.22000   47.40000    0.07500   12.00000
    7.22000   54.40000    0.05500   16.00000
    7.22000   62.30000    0.05300   15.00000
    7.22000   70.10000    0.05700   14.00000
    7.22000   77.80000    0.07100   13.00000
    7.22000  105.50000    0.04600   17.00000
    7.22000  112.50000    0.03800   18.00000
    7.22000  119.50000    0.06900   12.00000
    7.22000  127.20000    0.03900   21.00000
    7.22000  135.00000    0.04400   14.00000
    7.22000  141.90000    0.03600   17.00000
    7.22000  156.60000    0.03700   14.00000
    7.22000  163.40000    0.04100   17.00000
    7.22000  170.90000    0.03400   18.00000
    7.25000    7.30000    0.56000   18.00000
    7.25000   14.20000    0.38800
    7.25000   23.10000    0.36400
    7.25000   30.90000    0.35700
    7.25000   37.90000    0.17300
    7.25000   46.30000    0.11800    9.00000
    7.25000   54.20000    0.11100    9.00000
    7.25000   61.50000    0.11600
    7.25000   68.80000    0.12200   17.00000
    7.25000   76.70000    0.08700   10.00000
    7.25000   84.60000    0.10500   10.00000
    7.25000   92.00000    0.07500   12.00000
    7.25000  103.80000    0.04400   18.00000
    7.25000  111.20000    0.04700   17.00000
    7.25000  118.50000    0.04500   16.00000
    7.25000  125.80000    0.07600   11.00000
    7.25000  134.10000    0.08900   11.00000
    7.25000  141.00000    0.07300   10.00000
    7.25000  148.30000    0.07500   12.00000
    7.25000  155.70000    0.06600   11.00000
    7.25000  162.60000    0.06600   14.00000
    7.25000  170.40000    0.06500   11.00000
    7.25000  177.80000    0.05700    9.00000
    7.50000    4.10000   22.30000    9.00000
    7.50000   11.90000   25.30000   10.00000
    7.50000   20.00000   16.80000   10.00000
    7.50000   28.60000    7.80000    6.00000
    7.50000   43.20000    3.40000    9.00000
    7.50000   51.10000    3.41000    9.00000
    7.50000   58.60000    2.92000
    7.50000   66.20000    1.68000
    7.50000   74.30000    0.95000
    7.50000   82.30000    0.72400
    7.50000   89.20000    0.66600
    7.50000   94.10000    0.75300
    7.50000  102.10000    0.54900
    7.50000  109.10000    0.42900
    7.50000  130.80000    0.46200
    7.50000  138.70000    0.45700
    7.50000  146.60000    0.44000
    7.50000  153.00000    0.46500
    7.50000  161.40000    0.41900
    7.50000  168.80000    0.45400
    7.50000  175.70000    0.50300
    7.66000    4.50000    1.03000
    7.66000   12.30000    1.13000
    7.66000   20.70000    0.92000
    7.66000   27.60000    0.68400
    7.66000   36.00000    0.62400
    7.66000   44.00000    0.32800
    7.66000   59.00000    0.13400    7.00000
    7.66000   66.90000    0.12800
    7.66000   74.60000    0.16500    8.00000
    7.66000   82.60000    0.11400    9.00000
    7.66000   88.90000    0.11700    8.00000
    7.66000   94.30000    0.13700    7.00000
    7.66000  101.70000    0.09100   10.00000
    7.66000  109.10000    0.09300    8.00000
    7.66000  116.50000    0.08300    7.00000
    7.66000  124.40000    0.05100   14.00000
    7.66000  138.10000    0.06600   11.00000
    7.66000  145.80000    0.08500    8.00000
    7.66000  152.10000    0.09300    9.00000
    7.66000  159.90000    0.10700    7.00000
    7.66000  167.30000    0.08100   11.00000
    7.66000  174.60000    0.11700    9.00000
ENDDATA            319
ENDSUBENT          353
SUBENT        O1756005   20090707   20100128   20100120       O040
BIB                  7         25
REACTION   (14-SI-29(D,P)14-SI-30,PAR,DA) fig 5
EN-SEC     (E-LVL,14-SI-30)
SAMPLE     An enriched silicon target, Si-29 92.0%, Si-28 7.74%
           and Si-30 0.26%, the areal density of Si-29 in the
           target was deduced to be 20+-4 mug/cm**2.
FACILITY   (VDGT,3AULCBR) EN tandem Van de Graaff accelerator.
DETECTOR   (SIBAR) for 2 MeV deuterons the reaction products were
           detected with silicon surface barrier detector.
           (TELES) The outgoing protons were detected with
           semiconductor counter telescopes at lab angles of 27.5,
            35.0 and 42.5 degrees.
COMMENT    *By authors*.The supplementary measurements were made
           in a 50 cm diameter scattering chamber.
           Yields of several clearly defined proton groups from
           the magnetic spectrograph work were compared with the
           data obtained using semiconductor detector and the
           target of known thickness.The (d,p) angular
           distribution obtained with the magnetic spectrograph
           could then be expressed in absolute cross section units
           with an accuracy of approximately 25%. Because a beam
           of tritons was no longer available it was not possible
           to use the above technique to determine an absolute
           cross section scale for the (t,p) reaction.
ERR-ANALYS (DATA-ERR).The error is reported by authors on fig.
           (ERR-1).The uncertainty in target thickness.
ENDBIB              25
COMMON               4          3
EN         ERR-1      ERR-DIG    ANG-ERR-D
MEV        PER-CENT   PER-CENT   ADEG
10.        20.        3.0        0.7
ENDCOMMON            3
DATA                 5         69
E-LVL      E-LVL      ANG-CM     DATA-CM    DATA-ERR
MEV        MEV        ADEG       MB/SR      PER-CENT
    3.77000    3.79000    5.50000    9.60000
    3.77000    3.79000   12.60000    4.77000
    3.77000    3.79000   21.20000    2.22000
    3.77000    3.79000   27.60000    2.13000
    3.77000    3.79000   36.60000    1.91000
    3.77000    3.79000   43.60000    1.17000
    3.77000    3.79000   51.20000    0.56700
    3.77000    3.79000   59.20000    0.41500
    3.77000    3.79000   67.10000    0.47700
    3.77000    3.79000   74.50000    0.43800
    3.77000    3.79000   82.00000    0.37600
    3.77000    3.79000   89.50000    0.27500
    3.77000    3.79000   94.50000    0.19600
    3.77000    3.79000  102.00000    0.18400
    3.77000    3.79000  108.90000    0.18900
    3.77000    3.79000  116.30000    0.17800    7.00000
    3.77000    3.79000  123.70000    0.23400    7.00000
    3.77000    3.79000  130.70000    0.21500
    3.77000    3.79000  138.10000    0.22100
    3.77000    3.79000  146.10000    0.21200    8.00000
    3.77000    3.79000  153.50000    0.25600    7.00000
    3.77000    3.79000  159.40000    0.25100
    3.77000    3.79000  166.90000    0.22500    5.00000
    3.77000    3.79000  174.30000    0.21600    8.00000
    4.81000    4.83000    5.20000    0.28900   10.00000
    4.81000    4.83000   13.00000    0.46000   11.00000
    4.81000    4.83000   20.90000    0.62000    6.00000
    4.81000    4.83000   28.40000    0.66800
    4.81000    4.83000   36.40000    0.67300
    4.81000    4.83000   43.90000    0.38700
    4.81000    4.83000   52.00000    0.24400
    4.81000    4.83000   60.50000    0.18200    6.00000
    4.81000    4.83000   67.40000    0.20000    7.00000
    4.81000    4.83000   74.90000    0.18400    6.00000
    4.81000    4.83000   82.90000    0.15700    8.00000
    4.81000    4.83000   89.80000    0.17000    6.00000
    4.81000    4.83000   95.30000    0.15200    8.00000
    4.81000    4.83000  102.30000    0.17100
    4.81000    4.83000  109.70000    0.16500   12.00000
    4.81000    4.83000  117.20000    0.17400
    4.81000    4.83000  124.70000    0.17500
    4.81000    4.83000  131.20000    0.14600    8.00000
    4.81000    4.83000  138.60000    0.15000   11.00000
    4.81000    4.83000  146.60000    0.14800    7.00000
    4.81000    4.83000  153.50000    0.19200
    4.81000    4.83000  160.90000    0.23300    9.00000
    4.81000    4.83000  167.40000    0.28300
    4.81000    4.83000  175.30000    0.35100
    7.59000    7.61000    6.30000    3.07000
    7.59000    7.61000   13.90000    1.64000
    7.59000    7.61000   20.80000    1.10000
    7.59000    7.61000   29.80000    0.86100
    7.59000    7.61000   36.20000    0.73800
    7.59000    7.61000   44.60000    0.59200
    7.59000    7.61000   59.00000    0.31800
    7.59000    7.61000   67.90000    0.26700
    7.59000    7.61000   74.70000    0.37700
    7.59000    7.61000   82.60000    0.33800
    7.59000    7.61000   90.60000    0.27100    7.00000
    7.59000    7.61000   95.00000    0.25400
    7.59000    7.61000  103.40000    0.22900
    7.59000    7.61000  109.30000    0.24000   11.00000
    7.59000    7.61000  116.20000    0.22600
    7.59000    7.61000  138.90000    0.18300    9.00000
    7.59000    7.61000  146.70000    0.21100
    7.59000    7.61000  153.60000    0.20700
    7.59000    7.61000  161.00000    0.20900
    7.59000    7.61000  168.40000    0.19200    8.00000
    7.59000    7.61000  176.20000    0.24200
ENDDATA             71
ENDSUBENT          105
SUBENT        O1756006   20090707   20100128   20100120       O040
BIB                  5          9
REACTION   (14-SI-29(D,EL)14-SI-29,,DA,,RTH) fig 6
SAMPLE     An enriched silicon target, Si-29 92.0%, Si-28 7.74%
           and Si-30 0.26%, the areal density of Si-29 in the
           target was deduced to be 20+-4 mug/cm**2.
FACILITY   (VDGT,3AULCBR) EN tandem Van de Graaff accelerator.
DETECTOR   (SIBAR) for 2 MeV deuterons the reaction products were
           detected with silicon surface barrier detector.
ERR-ANALYS (DATA-ERR).The error is reported by authors on fig.
           (ERR-1).The uncertainty in target thickness.
ENDBIB               9
COMMON               4          3
EN         ERR-1      ERR-DIG    ANG-ERR-D
MEV        PER-CENT   NO-DIM     ADEG
10.        20.        0.017      0.7
ENDCOMMON            3
DATA                 3         17
ANG-CM     DATA       DATA-ERR
ADEG       NO-DIM     NO-DIM
        31.       0.58     6.E-02
       33.5       0.46    2.8E-02
       38.1      0.345
       43.1      0.345
       46.6      0.435    2.6E-02
       54.7      0.585    2.8E-02
       64.8      0.505    2.6E-02
       74.8       0.39    2.1E-02
       84.9      0.425
        95.       0.35     7.E-03
      104.5       0.21
      114.6      0.325    2.1E-02
      124.7       0.56     4.E-02
      133.7       0.58     4.E-02
      143.8       0.47     3.E-02
      152.4      0.245     3.E-02
       162.       0.29     3.E-02
ENDDATA             19
ENDSUBENT           37
ENDENTRY             6
