ENTRY            C1900   20120306   20120906   20120725       C116
SUBENT        C1900001   20120306   20120906   20120725       C116
BIB                 12         29
TITLE      Sub-Coulomb proton absorption for isotopes of
           zirconium and molybdenum
AUTHOR     (D.S.Flynn,R.L.Hershberger,F.Gabbard)
INSTITUTE  (1USAKTY)
REFERENCE  (J,PR/C,20,(5),1700,1979)
           #doi:10.1103/PhysRevC.20.1700
REL-REF    (I,,K.K.Sekharan+,J,NIM,133,253,1976)
           (M,,D.S.Flynn+,J,PR/C,18,1566,1978)
           (M,,F.Gabbard+,J,IRE,Ns26,1212,1979)
FACILITY   (VDG,1USAKTY)
INC-SOURCE 1.7-6.7 MeV proton beams.
SAMPLE     1 mg/cm2 self-supporting foils of isotopically
           enriched zirconium and molybdenum (the 92Zr foil was
           actually 0.5 mg/cm2).  The targets were expected to be
           less than 99% atomically pure and from 94 to 98%
           isotopically pure.
DETECTOR   (BF3,SOLST) Kentucky polyethylene-sphere neutron
           detector, for ancillary measurements surface-barrier
           proton detectors.
PART-DET   (N,P)
METHOD     (SITA) The cross section values are defined by number
           of incoming particles, target thickness and by the
           number of product particles. The foils were bombarded
           with 1.7-6.7 MeV proton beams. Target thickness was
           determined via elastically scattered protons with
           surface barrier detectors. Neutrons were measured with
           Kentucky polyethylene-sphere detectors. This
           information was used to deduce cross sections.
HISTORY    (20120306C) BP
ENDBIB              29
NOCOMMON             0          0
ENDSUBENT           32
SUBENT        C1900002   20120306   20120906   20120725       C116
BIB                  4         25
REACTION   (40-ZR-92(P,N)41-NB-92,,SIG)
STATUS     (TABLE) Data were obtained from the Physics Auxiliary
           Publication Service.  Document No: PAPS
           PRVCA-20-1700-6, Table 1.
CORRECTION Three corrections were made to the (p,n) yields.
           First, neutrons from sources other than the reaction
           of interest produced ~5% backgrounds at energies
           above the threshold. Second, corrections of 3-7% were
           made by parameterizing the cross section energy
           dependence. Third, electronics dead time caused a
           loss of ~1% of the pulses at the highest counting
           rates.
ERR-ANALYS (ERR-T) Except near threshold and at low energies
           where cross sections were small (< 1 mb), the (p,n)
           cross sections were estimated to be accurate within +-
           7%. This value was obtained by adding the following
           uncertainties in quadrature:
           (ERR-S,,1.) less than 1% due to counting statistics.
           (ERR-1) 5% target areal density.
           (ERR-2) 3% detector efficiency.
           (ERR-3) ~2% background subtraction.
           (ERR-4,,1.) less than 1% due to energy loss correction
           (ERR-5,,1.) less than 1% due to beam energy uncertainty
           (ERR-6,,1.) less than 1% due to beam integration.
           (ERR-7,,1.) less than 1% due to dead time correction.
ENDBIB              25
COMMON               3          3
ERR-1      ERR-2      ERR-3
PER-CENT   PER-CENT   PER-CENT
5.         3.         2.
ENDCOMMON            3
DATA                 3        209
EN         DATA       ERR-T
MEV        MB         PER-CENT
      2.917     0.0059      89.87
      2.937     0.0265      21.21
      2.956     0.2514       3.29
      2.956     0.2016       3.85
      2.956     0.2031       3.83
      2.976     0.3292       2.74
      2.996     0.3873       2.47
      3.006     0.4708       2.18
      3.016     0.4658       2.20
      3.036     0.6400       1.82
      3.055     1.0465       1.36
      3.055     0.9981       1.40
      3.075     1.1894       1.27
      3.095     1.5632       1.09
      3.105     1.5483       1.10
      3.115     1.4088       1.16
      3.134     1.4268       1.15
      3.154     1.7667       1.02
      3.154     1.7911       1.02
      3.175     1.6665       1.06
      3.194     1.8235       1.01
      3.204     2.1671       0.92
      3.204     2.0798       0.94
      3.204     2.1550       0.92
      3.214     2.0478       0.95
      3.233     2.1012       0.94
      3.254     2.1547       0.93
      3.273     2.4304       0.87
      3.293     2.3592       0.88
      3.312     2.5945       0.84
      3.332     2.4922       0.86
      3.352     2.7228       0.82
      3.373     2.9742       0.78
      3.392     3.2007       0.75
      3.412     3.4150       0.73
      3.432     3.6085       0.71
      3.451     3.9631       0.67
      3.471     3.9984       0.67
      3.490     4.1907       0.65
      3.511     4.0251       0.67
      3.531     4.4125       0.64
      3.550     4.4257       0.64
      3.570     5.1913       0.58
      3.590     5.4378       0.57
      3.610     5.2740       0.58
      3.629     5.7434       0.56
      3.634     5.6648       0.56
      3.669     5.8469       0.55
      3.689     5.8532       0.55
      3.709     6.4872       0.52
      3.728     6.4534       0.53
      3.748     6.8698       0.51
      3.768     7.4186       0.49
      3.787     7.1017       0.50
      3.807     7.9595       0.47
      3.828     7.8142       0.48
      3.847     7.9917       0.48
      3.867     8.1119       0.47
      3.887     8.8091       0.45
      3.906     9.1899       0.44
      3.926     9.1981       0.44
      3.946     8.8151       0.46
      3.966     8.9143       0.45
      3.986     9.9966       0.44
      4.005    10.3336       0.42
      4.024    10.7702       0.41
      4.045    11.4010       0.40
      4.064    12.6671       0.38
      4.085    11.7359       0.40
      4.104    12.5405       0.38
      4.124    13.3444       0.37
      4.144    14.0620       0.36
      4.164    15.5080       0.34
      4.183    14.9824       0.35
      4.203    15.1589       0.35
      4.223    15.9118       0.34
      4.243    17.2941       0.32
      4.263    16.3773       0.33
      4.282    17.1719       0.33
      4.302    18.7075       0.31
      4.322    18.9693       0.31
      4.342    18.9298       0.31
      4.360    21.1359       0.29
      4.381    20.6278       0.30
      4.401    20.9148       0.29
      4.420    22.4541       0.28
      4.439    22.7071       0.28
      4.460    23.9695       0.27
      4.479    25.3356       0.27
      4.499    24.2656       0.27
      4.518    26.6751       0.26
      4.539    29.8110       0.24
      4.558    28.4050       0.25
      4.578    28.6549       0.25
      4.598    28.7489       0.25
      4.618    29.5876       0.25
      4.638    31.9851       0.24
      4.657    33.5849       0.23
      4.676    33.8494       0.23
      4.697    34.0645       0.23
      4.717    34.7493       0.23
      4.736    35.8322       0.22
      4.756    36.1080       0.22
      4.776    38.8783       0.22
      4.795    41.4754       0.21
      4.815    41.5704       0.21
      4.835    40.7264       0.21
      4.855    42.1782       0.21
      4.875    46.1191       0.20
      4.893    46.7486       0.20
      4.914    46.2019       0.20
      4.933    47.5692       0.19
      4.953    52.8072       0.18
      4.974    55.7696       0.18
      4.983    58.4246       0.17
      4.988    60.5019       0.17
      4.993    62.3809       0.17
      4.998    64.5592       0.16
      5.003    68.4404       0.16
      5.008    74.2424       0.15
      5.013    84.5244       0.14
      5.017    97.5104       0.13
      5.022   119.2079       0.12
      5.028   156.8451       0.10
      5.032   175.3625       0.10
      5.037   173.9219       0.10
      5.042   162.5233       0.10
      5.047   128.2761       0.11
      5.052   104.6567       0.13
      5.057    91.0952       0.14
      5.062    80.0335       0.15
      5.067    70.4014       0.16
      5.072    67.1710       0.16
      5.076    63.5219       0.17
      5.082    61.4781       0.17
      5.086    60.1304       0.17
      5.092    57.7703       0.18
      5.097    56.4379       0.18
      5.102    56.4403       0.18
      5.106    56.2679       0.18
      5.112    57.3268       0.18
      5.116    57.5546       0.18
      5.121    59.3384       0.17
      5.126    59.2537       0.17
      5.131    58.9983       0.17
      5.140    57.4422       0.18
      5.150    58.2147       0.18
      5.160    61.0679       0.17
      5.171    65.1353       0.17
      5.180    66.4052       0.16
      5.191    64.7648       0.17
      5.200    64.7394       0.17
      5.210    64.4779       0.17
      5.220    66.6263       0.16
      5.230    66.9380       0.16
      5.239    63.8511       0.17
      5.250    64.8693       0.17
      5.259    66.4718       0.16
      5.280    69.2406       0.16
      5.299    70.1571       0.16
      5.319    74.0497       0.16
      5.339    75.9427       0.15
      5.358    78.2799       0.15
      5.378    80.6490       0.15
      5.397    81.5589       0.15
      5.417    77.6254       0.15
      5.437    86.8162       0.14
      5.437    86.4190       0.14
      5.467    85.7646       0.15
      5.480    89.0042       0.20
      5.505    87.6151       0.20
      5.531    93.8785       0.19
      5.556    95.2759       0.19
      5.581    98.1700       0.19
      5.607   101.4238       0.19
      5.632   104.5050       0.18
      5.658   107.3746       0.18
      5.683   112.1875       0.18
      5.709   116.3495       0.17
      5.735   118.0889       0.17
      5.761   123.6677       0.17
      5.786   126.6223       0.17
      5.812   132.5431       0.16
      5.838   138.0258       0.16
      5.864   146.5838       0.15
      5.890   155.9778       0.15
      5.917   165.3148       0.14
      5.943   187.9247       0.13
      5.969   209.1520       0.13
      5.995   198.0074       0.13
      6.021   159.8280       0.15
      6.048   146.6412       0.16
      6.075   142.0222       0.16
      6.101   143.8415       0.16
      6.127   152.8585       0.15
      6.154   159.1988       0.15
      6.181   154.0490       0.15
      6.208   160.6660       0.15
      6.234   162.9743       0.15
      6.261   168.8178       0.15
      6.288   173.2751       0.14
      6.315   180.8949       0.14
      6.342   180.0242       0.14
      6.369   186.5303       0.14
      6.396   194.5543       0.13
      6.424   203.7292       0.13
      6.451   213.0414       0.13
      6.479   238.1555       0.12
      6.506   287.1614       0.11
ENDDATA            211
ENDSUBENT          245
SUBENT        C1900003   20120306   20120906   20120725       C116
BIB                  4         25
REACTION   (40-ZR-94(P,N)41-NB-94,,SIG)
STATUS     (TABLE) Data were obtained from the Physics Auxiliary
           Publication Service.  Document No: PAPS
           PRVCA-20-1700-6, Table 2.
CORRECTION Three corrections were made to the (p,n) yields.
           First, neutrons from sources other than the reaction
           of interest produced ~5% backgrounds at energies
           above the threshold. Second, corrections of 3-7% were
           made by parameterizing the cross section energy
           dependence. Third, electronics dead time caused a
           loss of ~1% of the pulses at the highest counting
           rates.
ERR-ANALYS (ERR-T) Except near threshold and at low energies
           where cross sections were small (< 1 mb), the (p,n)
           cross sections were estimated to be accurate within +-
           7%. This value was obtained by adding the following
           uncertainties in quadrature:
           (ERR-S,,1.) less than 1% due to counting statistics.
           (ERR-1) 5% target areal density.
           (ERR-2) 3% detector efficiency.
           (ERR-3) ~2% background subtraction.
           (ERR-4,,1.) less than 1% due to energy loss correction
           (ERR-5,,1.) less than 1% due to beam energy uncertainty
           (ERR-6,,1.) less than 1% due to beam integration.
           (ERR-7,,1.) less than 1% due to dead time correction.
ENDBIB              25
COMMON               3          3
ERR-1      ERR-2      ERR-3
PER-CENT   PER-CENT   PER-CENT
5.         3.         2.
ENDCOMMON            3
DATA                 3        202
EN         DATA       ERR-T
MEV        MB         PER-CENT
      1.856     0.0025      36.46
      1.885     0.0042      23.36
      1.903     0.0056      63.53
      1.915     0.0058      17.82
      1.946     0.0075      14.48
      1.964     0.0120      34.22
      1.976     0.0114      10.40
      2.007     0.0149       8.46
      2.025     0.0123      34.70
      2.037     0.0178       7.46
      2.068     0.0248       5.82
      2.087     0.0317      16.90
      2.100     0.0298       5.14
      2.131     0.0357       4.54
      2.150     0.0408      14.36
      2.163     0.0414       4.11
      2.195     0.0656       3.01
      2.214     0.0513      12.42
      2.227     0.0729       2.83
      2.227     0.0676       2.97
      2.260     0.0722       2.86
      2.279     0.0807       9.24
      2.292     0.0919       2.46
      2.325     0.1038       2.28
      2.345     0.1018       8.03
      2.358     0.1227       2.53
      2.392     0.1533       2.21
      2.412     0.1650       5.99
      2.425     0.1872       1.97
      2.459     0.2046       1.87
      2.479     0.2006       5.36
      2.493     0.2182       1.81
      2.527     0.2855       4.40
      2.527     0.2822       1.56
      2.527     0.2758       1.59
      2.562     0.3168       1.47
      2.597     0.3398       1.42
      2.617     0.3287       4.13
      2.631     0.3676       1.37
      2.667     0.4259       1.60
      2.688     0.4753       3.37
      2.702     0.4795       1.50
      2.738     0.5428       1.41
      2.759     0.5616       3.09
      2.773     0.6327       1.29
      2.809     0.7090       1.36
      2.831     0.7353       2.68
      2.846     0.8471       1.24
      2.882     0.9006       1.20
      2.904     1.0252       2.24
      2.919     1.0315       1.58
      2.937     1.0587       1.10
      2.956     1.0854       1.54
      2.975     1.1987       1.03
      2.978     1.1451       2.12
      2.993     1.2899       1.40
      3.012     1.4210       0.94
      3.031     1.5330       1.28
      3.053     1.5300       1.82
      3.068     1.6233       1.25
      3.106     1.7789       1.20
      3.106     1.7748       1.20
      3.129     1.8480       1.66
      3.144     1.9360       1.15
      3.183     2.2759       1.05
      3.206     2.3461       1.47
      3.221     2.4660       1.01
      3.260     2.7219       1.36
      3.260     2.7075       1.36
      3.283     2.8718       1.32
      3.299     3.1861       1.25
      3.318     3.4367       1.21
      3.338     3.6274       1.17
      3.362     3.6664       1.17
      3.378     3.8849       1.13
      3.417     4.2613       1.08
      3.441     4.4132       1.06
      3.457     4.6681       1.03
      3.497     5.1579       0.98
      3.522     5.2029       0.98
      3.538     5.4961       0.95
      3.578     6.1474       0.90
      3.603     6.3399       0.88
      3.619     6.7175       0.86
      3.660     7.2537       0.83
      3.685     7.3131       0.82
      3.701     8.0994       0.78
      3.743     9.0056       0.74
      3.768     9.0288       0.74
      3.785     9.7155       0.71
      3.827    10.0564       0.70
      3.852    10.4746       0.69
      3.869    11.2612       0.66
      3.911    12.3861       0.63
      3.937    12.5417       0.63
      3.954    13.4328       0.61
      3.997    14.6368       0.58
      4.023    14.9259       0.58
      4.040    15.5259       0.57
      4.083    16.8136       0.54
      4.109    17.4459       0.53
      4.127    18.3692       0.52
      4.170    20.1395       0.50
      4.197    20.8795       0.49
      4.214    22.4016       0.47
      4.259    23.3048       0.46
      4.285    24.2939       0.45
      4.303    25.2184       0.44
      4.348    27.4643       0.42
      4.375    28.2356       0.42
      4.392    29.5615       0.41
      4.438    32.2219       0.39
      4.465    32.8541       0.39
      4.483    34.2673       0.38
      4.529    36.7051       0.37
      4.556    37.9277       0.36
      4.574    39.3711       0.35
      4.620    41.9084       0.34
      4.648    43.8569       0.34
      4.677    45.5534       0.33
      4.713    48.5315       0.32
      4.741    50.9162       0.31
      4.760    51.5083       0.31
      4.807    54.4762       0.30
      4.835    57.7176       0.29
      4.854    58.4392       0.29
      4.901    62.5001       0.28
      4.930    64.8589       0.28
      4.949    66.1855       0.27
      4.997    70.6750       0.26
      5.025    73.7629       0.26
      5.045    75.4154       0.26
      5.093    81.3981       0.25
      5.122    86.3681       0.24
      5.141    91.4953       0.23
      5.141    90.7058       0.23
      5.153    96.4219       0.23
      5.166   116.7050       0.20
      5.166   111.9658       0.21
      5.178   144.2228       0.18
      5.178   139.2724       0.19
      5.190   145.5698       0.18
      5.190   146.0841       0.18
      5.190   148.0884       0.18
      5.202   133.8346       0.19
      5.202   137.4772       0.19
      5.215   116.3179       0.20
      5.220   104.0605       0.22
      5.227   103.1086       0.22
      5.239    97.3310       0.23
      5.239    98.1824       0.22
      5.261    97.5666       0.22
      5.264    98.2401       0.22
      5.288    99.2748       0.22
      5.318   101.3495       0.22
      5.338   103.5515       0.22
      5.387   111.2044       0.21
      5.417   116.0218       0.21
      5.437   117.8144       0.20
      5.487   123.2662       0.20
      5.517   128.7091       0.20
      5.537   130.3947       0.19
      5.563   135.0718       0.19
      5.588   137.4189       0.19
      5.613   141.5339       0.19
      5.639   146.2858       0.18
      5.664   149.9321       0.18
      5.690   153.6266       0.18
      5.715   158.4032       0.18
      5.720   161.5848       0.17
      5.741   164.7486       0.17
      5.792   173.1112       0.17
      5.823   176.8860       0.17
      5.844   182.2408       0.16
      5.896   190.8854       0.16
      5.927   197.3691       0.16
      5.948   204.7988       0.15
      6.000   222.4856       0.15
      6.027   231.1945       0.15
      6.032   232.7697       0.15
      6.053   248.4809       0.14
      6.079   268.9067       0.13
      6.106   283.8730       0.13
      6.132   262.4822       0.14
      6.137   256.0981       0.14
      6.159   233.2216       0.15
      6.212   218.9927       0.15
      6.212   222.5403       0.15
      6.244   229.5935       0.15
      6.265   231.2237       0.15
      6.319   240.5512       0.14
      6.351   249.7037       0.14
      6.373   250.9514       0.14
      6.427   260.7678       0.14
      6.460   269.1626       0.14
      6.481   274.6604       0.13
      6.536   283.9675       0.13
      6.569   287.5522       0.13
      6.591   294.0840       0.13
      6.646   309.4404       0.13
      6.679   310.1741       0.13
      6.679   310.1223       0.13
ENDDATA            204
ENDSUBENT          238
SUBENT        C1900004   20120306   20120906   20120725       C116
BIB                  4         25
REACTION   (42-MO-94(P,N)43-TC-94,,SIG)
STATUS     (TABLE) Data were obtained from the Physics Auxiliary
           Publication Service.  Document No: PAPS
           PRVCA-20-1700-6, Table 3.
CORRECTION Three corrections were made to the (p,n) yields.
           First, neutrons from sources other than the reaction
           of interest produced ~5% backgrounds at energies
           above the threshold. Second, corrections of 3-7% were
           made by parameterizing the cross section energy
           dependence. Third, electronics dead time caused a
           loss of ~1% of the pulses at the highest counting
           rates.
ERR-ANALYS (ERR-T) Except near threshold and at low energies
           where cross sections were small (< 1 mb), the (p,n)
           cross sections were estimated to be accurate within +-
           7%. This value was obtained by adding the following
           uncertainties in quadrature:
           (ERR-S,,1.) less than 1% due to counting statistics.
           (ERR-1) 5% target areal density.
           (ERR-2) 3% detector efficiency.
           (ERR-3) ~2% background subtraction.
           (ERR-4,,1.) less than 1% due to energy loss correction
           (ERR-5,,1.) less than 1% due to beam energy uncertainty
           (ERR-6,,1.) less than 1% due to beam integration.
           (ERR-7,,1.) less than 1% due to dead time correction.
ENDBIB              25
COMMON               3          3
ERR-1      ERR-2      ERR-3
PER-CENT   PER-CENT   PER-CENT
5.         3.         2.
ENDCOMMON            3
DATA                 3         90
EN         DATA       ERR-T
MEV        MB         PER-CENT
      5.102     0.0792      48.59
      5.126     0.3290      12.15
      5.150     0.5626       7.36
      5.175     4.5760       1.13
      5.199    10.9201       0.59
      5.224    16.0273       0.46
      5.224    16.6459       0.45
      5.249    18.4213       0.59
      5.273    21.3761       0.54
      5.298    23.9021       0.51
      5.323    27.4457       0.47
      5.348    27.8926       0.46
      5.373    29.9163       0.45
      5.398    30.7864       0.44
      5.423    32.1710       0.43
      5.448    36.9346       0.40
      5.473    41.6022       0.37
      5.498    47.0608       0.34
      5.524    50.3541       0.33
      5.549    51.3120       0.33
      5.574    55.2982       0.31
      5.600    59.9502       0.30
      5.625    64.1540       0.29
      5.651    68.6960       0.28
      5.677    74.3208       0.27
      5.702    82.4752       0.25
      5.728    89.2036       0.24
      5.754    86.6013       0.25
      5.780    90.9615       0.24
      5.793    99.7919       0.23
      5.806   110.5549       0.21
      5.819   107.7076       0.22
      5.832    95.2041       0.23
      5.845    81.1754       0.26
      5.858    79.7955       0.26
      5.871    80.0744       0.26
      5.884    81.5840       0.36
      5.897    83.0363       0.36
      5.910    84.1683       0.36
      5.923    86.0040       0.56
      5.936    85.5934       0.56
      5.949    90.7094       0.54
      5.962    98.6897       0.52
      5.976    95.5513       0.53
      5.989    95.4785       0.53
      6.002    98.1429       0.52
      6.015   105.4130       0.50
      6.028   113.6380       0.48
      6.041   116.0287       0.47
      6.055   113.7993       0.48
      6.068   107.8139       0.49
      6.081   101.4007       0.51
      6.095    99.1672       0.52
      6.108   100.4964       0.52
      6.121   102.8951       0.51
      6.134   102.5788       0.51
      6.148   105.9821       0.50
      6.161   107.7181       0.50
      6.174   106.7822       0.50
      6.188   109.8655       0.49
      6.201   113.9220       0.48
      6.215   116.2654       0.48
      6.228   116.6926       0.48
      6.242   116.4459       0.48
      6.255   117.4637       0.48
      6.268   122.1305       0.47
      6.282   123.8319       0.46
      6.309   127.4759       0.46
      6.322   127.3075       0.46
      6.336   131.5329       0.45
      6.350   135.9256       0.44
      6.363   136.8310       0.44
      6.377   137.9587       0.44
      6.390   138.4122       0.44
      6.404   137.6204       0.44
      6.418   137.2516       0.44
      6.431   139.6444       0.44
      6.445   139.5584       0.44
      6.458   138.0424       0.44
      6.472   140.4290       0.44
      6.486   141.7005       0.43
      6.500   138.7290       0.44
      6.513   142.8981       0.43
      6.527   146.3759       0.43
      6.541   151.2873       0.42
      6.554   153.4285       0.42
      6.568   155.8177       0.41
      6.582   164.2899       0.40
      6.596   180.4721       0.38
      6.609   187.9303       0.37
ENDDATA             92
ENDSUBENT          126
SUBENT        C1900005   20120306   20120906   20120725       C116
BIB                  4         25
REACTION   (42-MO-95(P,N)43-TC-95,,SIG)
STATUS     (TABLE) Data were obtained from the Physics Auxiliary
           Publication Service.  Document No: PAPS
           PRVCA-20-1700-6, Table 4.
CORRECTION Three corrections were made to the (p,n) yields.
           First, neutrons from sources other than the reaction
           of interest produced ~5% backgrounds at energies
           above the threshold. Second, corrections of 3-7% were
           made by parameterizing the cross section energy
           dependence. Third, electronics dead time caused a
           loss of ~1% of the pulses at the highest counting
           rates.
ERR-ANALYS (ERR-T) Except near threshold and at low energies
           where cross sections were small (< 1 mb), the (p,n)
           cross sections were estimated to be accurate within +-
           7%. This value was obtained by adding the following
           uncertainties in quadrature:
           (ERR-S,,1.) less than 1% due to counting statistics.
           (ERR-1) 5% target areal density.
           (ERR-2) 3% detector efficiency.
           (ERR-3) ~2% background subtraction.
           (ERR-4,,1.) less than 1% due to energy loss correction
           (ERR-5,,1.) less than 1% due to beam energy uncertainty
           (ERR-6,,1.) less than 1% due to beam integration.
           (ERR-7,,1.) less than 1% due to dead time correction.
ENDBIB              25
COMMON               3          3
ERR-1      ERR-2      ERR-3
PER-CENT   PER-CENT   PER-CENT
5.         3.         2.
ENDCOMMON            3
DATA                 3        219
EN         DATA       ERR-T
MEV        MB         PER-CENT
      2.508     0.0032      91.80
      2.527     0.0094      32.18
      2.547     0.0183      17.40
      2.567     0.0327      10.42
      2.587     0.0406       8.73
      2.607     0.0460       7.91
      2.627     0.0615       6.26
      2.646     0.0674       5.85
      2.666     0.0830       4.98
      2.686     0.0902       4.70
      2.707     0.1046       4.21
      2.726     0.1092       4.10
      2.746     0.1200       3.84
      2.766     0.1418       3.40
      2.785     0.1671       3.03
      2.805     0.1835       2.85
      2.825     0.2182       2.53
      2.845     0.2402       2.38
      2.865     0.2886       2.10
      2.885     0.3257       1.95
      2.905     0.3690       1.80
      2.925     0.4059       1.70
      2.945     0.4469       1.60
      2.965     0.4607       1.57
      2.984     0.5139       1.47
      3.004     0.5439       1.43
      3.024     0.5994       1.35
      3.044     0.6615       1.27
      3.063     0.7298       1.20
      3.084     0.8448       1.10
      3.104     0.9038       1.06
      3.123     0.9116       1.06
      3.142     0.9159       1.06
      3.163     0.9698       1.03
      3.182     1.0566       0.98
      3.203     1.1038       0.95
      3.223     1.2070       0.91
      3.242     1.3153       0.87
      3.262     1.4291       0.83
      3.281     1.5047       0.80
      3.302     1.5935       0.78
      3.322     1.6813       0.76
      3.341     1.7642       0.74
      3.361     1.8268       0.72
      3.381     1.9331       0.70
      3.401     2.1100       0.67
      3.421     2.2221       0.65
      3.440     2.3023       0.64
      3.460     2.4229       0.62
      3.480     2.4965       0.61
      3.500     2.6431       0.59
      3.519     2.8057       0.58
      3.540     3.0026       0.55
      3.559     3.1511       0.54
      3.579     3.2160       0.54
      3.599     3.4213       0.52
      3.618     3.5376       0.51
      3.638     3.7147       0.50
      3.638     3.7297       0.50
      3.659     3.9326       0.48
      3.677     4.0923       0.47
      3.698     4.1923       0.47
      3.718     4.3666       0.46
      3.737     4.5520       0.45
      3.757     4.6833       0.45
      3.777     4.9166       0.44
      3.797     5.3838       0.42
      3.817     5.4062       0.42
      3.837     5.7061       0.41
      3.857     6.2617       0.39
      3.876     7.8442       0.34
      3.896     8.8262       0.32
      3.916     8.2313       0.34
      3.936     7.2863       0.36
      3.956     7.1194       0.37
      3.975     7.2524       0.36
      3.995     7.5095       0.36
      4.015     7.8860       0.35
      4.035     8.1780       0.34
      4.055     8.4894       0.34
      4.074     8.7793       0.33
      4.094     9.2334       0.32
      4.114     9.5242       0.32
      4.134     9.8196       0.31
      4.153    10.1837       0.31
      4.173    10.6422       0.30
      4.194    11.0214       0.29
      4.213    11.4181       0.29
      4.252    12.6710       0.27
      4.272    13.4087       0.27
      4.292    13.7609       0.26
      4.312    13.8552       0.26
      4.332    14.2193       0.26
      4.332    14.2188       0.26
      4.351    14.6207       0.25
      4.371    15.1731       0.25
      4.391    15.7132       0.24
      4.411    16.1963       0.24
      4.430    16.5585       0.24
      4.450    17.4540       0.23
      4.470    18.0820       0.23
      4.489    18.6244       0.22
      4.509    19.4318       0.22
      4.530    19.7877       0.22
      4.549    20.3147       0.21
      4.569    21.0451       0.21
      4.589    22.1689       0.21
      4.609    23.8690       0.20
      4.628    24.6870       0.19
      4.648    24.8580       0.19
      4.668    25.4195       0.19
      4.688    26.0947       0.19
      4.707    26.8494       0.19
      4.727    28.2487       0.18
      4.747    31.0687       0.17
      4.767    33.0545       0.17
      4.786    32.5616       0.17
      4.806    32.0096       0.17
      4.826    32.3571       0.17
      4.846    33.1969       0.17
      4.866    35.2538       0.16
      4.885    36.7166       0.16
      4.905    39.8556       0.15
      4.925    48.5508       0.14
      4.945    59.9427       0.12
      4.965    55.3425       0.13
      4.984    45.6724       0.14
      5.004    42.9260       0.15
      5.024    43.0912       0.15
      5.043    43.7818       0.15
      5.063    44.8852       0.14
      5.083    45.8959       0.14
      5.103    48.1428       0.14
      5.122    51.3626       0.13
      5.142    51.5779       0.13
      5.162    51.9930       0.13
      5.182    58.0248       0.13
      5.202    61.4167       0.12
      5.221    58.7089       0.13
      5.241    56.3927       0.13
      5.261    57.0032       0.13
      5.281    58.7762       0.13
      5.300    60.3211       0.12
      5.320    62.1693       0.12
      5.340    64.5594       0.12
      5.359    69.8509       0.12
      5.379    71.5016       0.11
      5.399    70.0622       0.12
      5.419    69.9207       0.12
      5.438    71.8264       0.11
      5.458    74.0316       0.11
      5.477    75.5997       0.11
      5.497    78.5467       0.11
      5.518    83.6646       0.11
      5.537    92.7708       0.10
      5.557    93.6780       0.10
      5.576    89.2926       0.10
      5.596    93.3481       0.10
      5.596    94.1405       0.10
      5.616   100.7472       0.10
      5.636   108.5459       0.09
      5.655   104.2920       0.09
      5.675    96.7759       0.10
      5.695    94.0607       0.10
      5.700    93.8832       0.48
      5.700    93.8229       0.48
      5.714    95.5596       0.10
      5.726    99.3615       0.47
      5.734   102.0443       0.10
      5.751   105.3449       0.45
      5.754   104.8922       0.09
      5.774   107.8155       0.09
      5.777   110.7150       0.44
      5.790   116.2773       0.43
      5.794   115.9272       0.09
      5.803   124.4071       0.41
      5.814   133.7969       0.08
      5.816   137.7983       0.39
      5.829   142.6691       0.38
      5.833   141.7409       0.08
      5.842   135.5045       0.40
      5.853   124.6494       0.09
      5.855   122.5866       0.42
      5.868   115.8712       0.43
      5.872   112.6024       0.09
      5.881   114.0502       0.43
      5.892   113.1709       0.09
      5.908   114.8872       0.43
      5.934   117.8769       0.43
      5.960   120.1936       0.42
      5.986   121.3713       0.42
      6.013   124.3644       0.42
      6.039   129.5329       0.41
      6.066   134.4985       0.40
      6.092   143.1051       0.39
      6.119   157.2061       0.37
      6.145   171.2834       0.35
      6.172   172.0819       0.35
      6.199   174.6603       0.35
      6.226   160.1987       0.37
      6.253   156.3256       0.37
      6.280   157.0476       0.37
      6.307   168.9592       0.36
      6.334   168.7735       0.36
      6.361   169.7518       0.36
      6.388   177.4327       0.35
      6.415   178.4604       0.35
      6.442   180.9759       0.34
      6.470   191.9926       0.33
      6.497   194.3189       0.33
      6.525   188.9805       0.34
      6.552   195.4049       0.33
      6.580   209.4996       0.32
      6.608   212.5076       0.32
      6.635   211.9232       0.32
      6.663   208.6124       0.32
      6.691   208.0581       0.32
      6.719   211.5200       0.32
      6.746   214.9720       0.32
ENDDATA            221
ENDSUBENT          255
SUBENT        C1900006   20120306   20120906   20120725       C116
BIB                  4         25
REACTION   (42-MO-96(P,N)43-TC-96,,SIG)
STATUS     (TABLE) Data were obtained from the Physics Auxiliary
           Publication Service.  Document No: PAPS
           PRVCA-20-1700-6, Table 5.
CORRECTION Three corrections were made to the (p,n) yields.
           First, neutrons from sources other than the reaction
           of interest produced ~5% backgrounds at energies
           above the threshold. Second, corrections of 3-7% were
           made by parameterizing the cross section energy
           dependence. Third, electronics dead time caused a
           loss of ~1% of the pulses at the highest counting
           rates.
ERR-ANALYS (ERR-T) Except near threshold and at low energies
           where cross sections were small (< 1 mb), the (p,n)
           cross sections were estimated to be accurate within +-
           7%. This value was obtained by adding the following
           uncertainties in quadrature:
           (ERR-S,,1.) less than 1% due to counting statistics.
           (ERR-1) 5% target areal density.
           (ERR-2) 3% detector efficiency.
           (ERR-3) ~2% background subtraction.
           (ERR-4,,1.) less than 1% due to energy loss correction
           (ERR-5,,1.) less than 1% due to beam energy uncertainty
           (ERR-6,,1.) less than 1% due to beam integration.
           (ERR-7,,1.) less than 1% due to dead time correction.
ENDBIB              25
COMMON               3          3
ERR-1      ERR-2      ERR-3
PER-CENT   PER-CENT   PER-CENT
5.         3.         2.
ENDCOMMON            3
DATA                 3        147
EN         DATA       ERR-T
MEV        MB         PER-CENT
      3.829     0.5706       2.06
      3.839     1.1067       1.24
      3.852     1.7513       0.90
      3.864     2.1824       0.78
      3.877     2.5081       0.72
      3.889     2.8864       0.66
      3.902     3.2008       0.62
      3.926     4.1515       0.53
      3.951     4.9797       0.48
      3.976     5.8248       0.43
      4.001     6.5774       0.41
      4.025     7.2506       0.39
      4.050     7.9392       0.37
      4.074     8.7675       0.35
      4.099     9.5796       0.33
      4.123    10.1398       0.32
      4.149    10.6419       0.31
      4.174    11.4461       0.30
      4.198    12.4754       0.29
      4.222    13.2910       0.28
      4.246    13.7236       0.27
      4.253    14.2910       0.27
      4.272    14.5779       0.27
      4.296    15.0147       0.26
      4.322    15.7076       0.26
      4.347    16.7894       0.25
      4.395    18.3561       0.24
      4.419    18.7665       0.23
      4.449    19.8755       0.23
      4.469    20.9493       0.22
      4.495    21.2964       0.22
      4.516    21.9987       0.21
      4.543    23.4008       0.21
      4.568    24.6284       0.20
      4.572    25.1509       0.20
      4.633    26.8428       0.19
      4.667    27.7108       0.19
      4.691    28.8842       0.19
      4.715    30.3544       0.18
      4.740    32.1531       0.18
      4.765    32.6599       0.18
      4.790    34.3136       0.17
      4.814    34.9316       0.17
      4.839    36.1093       0.17
      4.864    37.0827       0.17
      4.889    39.6261       0.16
      4.914    41.5648       0.15
      4.938    42.7594       0.15
      4.962    43.6146       0.15
      4.987    43.5766       0.15
      5.011    45.8883       0.15
      5.036    47.9740       0.14
      5.061    50.4443       0.14
      5.085    51.7755       0.14
      5.110    52.3212       0.14
      5.135    55.2955       0.13
      5.159    56.5536       0.13
      5.184    58.3204       0.13
      5.209    61.1564       0.13
      5.209    61.0710       0.13
      5.233    63.4161       0.13
      5.258    64.4904       0.12
      5.282    64.7351       0.12
      5.297    66.0267       0.12
      5.307    67.7625       0.12
      5.307    67.9784       0.12
      5.317    71.1733       0.12
      5.326    75.3879       0.11
      5.332    79.4970       0.11
      5.336    81.9304       0.11
      5.346    96.0489       0.10
      5.356   118.6845       0.09
      5.357   125.6954       0.09
      5.366   135.1763       0.08
      5.376   133.2626       0.08
      5.381   124.0777       0.09
      5.385   118.5263       0.09
      5.395    99.6657       0.10
      5.406    84.8065       0.11
      5.406    86.9634       0.11
      5.415    80.7408       0.11
      5.425    76.7908       0.11
      5.431    75.6089       0.12
      5.431    75.9070       0.11
      5.455    77.9886       0.11
      5.480    81.4304       0.11
      5.497    81.8044       0.53
      5.504    82.8756       0.11
      5.504    83.0902       0.11
      5.522    83.9009       0.53
      5.528    84.1613       0.11
      5.548    86.8556       0.52
      5.553    86.2347       0.11
      5.573    89.9864       0.51
      5.578    90.3539       0.11
      5.599    92.9624       0.50
      5.602    91.4258       0.10
      5.602    91.2889       0.10
      5.624    93.8292       0.50
      5.650    97.3798       0.49
      5.675   100.6761       0.48
      5.701   101.2624       0.48
      5.727   100.6876       0.48
      5.753   104.9247       0.47
      5.778   109.3607       0.46
      5.804   113.1498       0.45
      5.830   119.6026       0.44
      5.856   120.4724       0.44
      5.882   126.5512       0.43
      5.909   129.6056       0.42
      5.935   134.5641       0.41
      5.961   146.7380       0.40
      5.987   162.6120       0.37
      6.001   172.1030       0.36
      6.014   186.7519       0.35
      6.027   200.5476       0.34
      6.040   206.4935       0.33
      6.054   197.8469       0.34
      6.067   182.2776       0.35
      6.080   167.7962       0.37
      6.093   157.8080       0.38
      6.107   154.3366       0.39
      6.120   162.4624       0.38
      6.133   186.5124       0.35
      6.146   204.4565       0.33
      6.160   189.5356       0.35
      6.173   162.0962       0.38
      6.187   152.0042       0.39
      6.200   148.0866       0.40
      6.227   148.9541       0.40
      6.254   155.7204       0.39
      6.281   155.7242       0.39
      6.281   156.6324       0.39
      6.308   162.9636       0.38
      6.335   164.3143       0.38
      6.362   165.0995       0.38
      6.389   169.4398       0.37
      6.416   173.7655       0.37
      6.444   179.7319       0.36
      6.471   184.2416       0.36
      6.498   185.4389       0.35
      6.526   193.3613       0.35
      6.553   198.5373       0.34
      6.581   205.4629       0.34
      6.608   211.3279       0.33
      6.636   220.4216       0.32
      6.664   240.9213       0.31
ENDDATA            149
ENDSUBENT          183
SUBENT        C1900007   20120306   20120906   20120725       C116
BIB                  4         25
REACTION   (42-MO-98(P,N)43-TC-98,,SIG)
STATUS     (TABLE) Data were obtained from the Physics Auxiliary
           Publication Service.  Document No: PAPS
           PRVCA-20-1700-6, Table 6.
CORRECTION Three corrections were made to the (p,n) yields.
           First, neutrons from sources other than the reaction
           of interest produced ~5% backgrounds at energies
           above the threshold. Second, corrections of 3-7% were
           made by parameterizing the cross section energy
           dependence. Third, electronics dead time caused a
           loss of ~1% of the pulses at the highest counting
           rates.
ERR-ANALYS (ERR-T) Except near threshold and at low energies
           where cross sections were small (< 1 mb), the (p,n)
           cross sections were estimated to be accurate within +-
           7%. This value was obtained by adding the following
           uncertainties in quadrature:
           (ERR-S,,1.) less than 1% due to counting statistics.
           (ERR-1) 5% target areal density.
           (ERR-2) 3% detector efficiency.
           (ERR-3) ~2% background subtraction.
           (ERR-4,,1.) less than 1% due to energy loss correction
           (ERR-5,,1.) less than 1% due to beam energy uncertainty
           (ERR-6,,1.) less than 1% due to beam integration.
           (ERR-7,,1.) less than 1% due to dead time correction.
ENDBIB              25
COMMON               3          3
ERR-1      ERR-2      ERR-3
PER-CENT   PER-CENT   PER-CENT
5.         3.         2.
ENDCOMMON            3
DATA                 3        232
EN         DATA       ERR-T
MEV        MB         PER-CENT
      2.523     0.0030      62.78
      2.543     0.0052      37.77
      2.563     0.0190      12.36
      2.573     0.0367       7.46
      2.583     0.0519       5.84
      2.592     0.0727       4.66
      2.602     0.0943       3.95
      2.622     0.1302       3.25
      2.642     0.1563       2.92
      2.662     0.1903       2.61
      2.682     0.2144       2.44
      2.702     0.2472       2.25
      2.721     0.2855       2.08
      2.741     0.3177       1.96
      2.761     0.3344       1.91
      2.780     0.3665       1.82
      2.801     0.3929       1.75
      2.820     0.4279       1.67
      2.840     0.4766       1.58
      2.860     0.4896       1.56
      2.880     0.5088       1.53
      2.899     0.5693       1.44
      2.919     0.6260       1.37
      2.939     0.6713       1.32
      2.958     0.7185       1.27
      2.978     0.7781       1.22
      2.998     0.8290       1.18
      3.037     0.9598       1.09
      3.057     1.0535       1.04
      3.077     1.1080       1.02
      3.097     1.1199       1.01
      3.116     1.1102       1.02
      3.136     1.2196       0.97
      3.156     1.3231       0.93
      3.176     1.3885       0.91
      3.196     1.4986       0.87
      3.215     1.6110       0.84
      3.235     1.7059       0.82
      3.255     1.8360       0.79
      3.274     1.8942       0.77
      3.294     2.0156       0.75
      3.314     2.1652       0.72
      3.333     2.2983       0.70
      3.354     2.4036       0.69
      3.373     2.5733       0.66
      3.393     2.7701       0.64
      3.413     2.8828       0.62
      3.432     3.0771       0.60
      3.452     3.2276       0.59
      3.472     3.2815       0.58
      3.492     3.4968       0.57
      3.512     3.6538       0.55
      3.531     3.8093       0.54
      3.531     4.1115       0.52
      3.591     4.5343       0.50
      3.610     4.7427       0.49
      3.630     4.9456       0.48
      3.650     5.1813       0.46
      3.669     5.4721       0.45
      3.689     5.7381       0.44
      3.709     6.0526       0.43
      3.729     6.2222       0.42
      3.748     6.5236       0.41
      3.768     6.7945       0.41
      3.788     7.2467       0.39
      3.807     7.5381       0.39
      3.827     7.7738       0.38
      3.847     8.0480       0.37
      3.867     8.4005       0.37
      3.886     8.8573       0.36
      3.906     9.1620       0.35
      3.926     9.5557       0.34
      3.946    10.0605       0.33
      3.965    10.4095       0.33
      3.985    10.8415       0.32
      4.004    11.2322       0.32
      4.024    11.7896       0.31
      4.044    12.2589       0.30
      4.063    12.7567       0.30
      4.084    13.2896       0.29
      4.104    13.9814       0.28
      4.123    14.4705       0.28
      4.142    14.9277       0.27
      4.162    15.8231       0.27
      4.182    16.3653       0.26
      4.202    16.7839       0.26
      4.221    17.4638       0.25
      4.241    18.1395       0.25
      4.261    18.6586       0.25
      4.280    18.9309       0.24
      4.300    19.9398       0.24
      4.320    20.7657       0.23
      4.340    21.6177       0.23
      4.359    22.0486       0.23
      4.380    22.9435       0.22
      4.399    23.7661       0.22
      4.418    24.5212       0.21
      4.438    25.4583       0.21
      4.458    26.3332       0.21
      4.479    26.9593       0.20
      4.497    28.1841       0.20
      4.517    28.4498       0.19
      4.536    30.3979       0.19
      4.557    31.2350       0.19
      4.577    32.0960       0.19
      4.596    33.2190       0.18
      4.616    34.7129       0.18
      4.635    35.4679       0.18
      4.655    35.9061       0.18
      4.675    37.6144       0.17
      4.694    38.8689       0.17
      4.714    40.2560       0.17
      4.734    41.8583       0.16
      4.753    42.6730       0.16
      4.773    43.3558       0.16
      4.792    44.8082       0.16
      4.813    46.0514       0.16
      4.833    48.5167       0.15
      4.852    50.1120       0.15
      4.872    50.4191       0.15
      4.891    51.7629       0.15
      4.910    53.6615       0.14
      4.930    54.9475       0.14
      4.950    56.5466       0.14
      4.970    57.6548       0.14
      4.990    59.1066       0.14
      5.008    60.9939       0.14
      5.028    62.8570       0.13
      5.048    63.9673       0.13
      5.069    65.4049       0.13
      5.088    66.8449       0.13
      5.107    67.7999       0.13
      5.128    70.7967       0.13
      5.147    73.1237       0.12
      5.167    74.8500       0.12
      5.187    76.9634       0.12
      5.207    79.0699       0.12
      5.226    81.0500       0.12
      5.245    81.2536       0.12
      5.265    83.9697       0.12
      5.285    86.4679       0.11
      5.305    88.5284       0.11
      5.324    91.1852       0.11
      5.344    92.9083       0.11
      5.363    94.9028       0.11
      5.383    98.4012       0.11
      5.399    99.3792       0.51
      5.403   100.1764       0.11
      5.411   101.0230       0.51
      5.424   101.6557       0.50
      5.449   104.7854       0.50
      5.474   107.6697       0.49
      5.499   110.6610       0.48
      5.525   113.8963       0.48
      5.550   117.8187       0.47
      5.575   121.2674       0.46
      5.601   122.9930       0.46
      5.626   125.2130       0.45
      5.652   130.4480       0.44
      5.658   127.8318       0.45
      5.671   129.8461       0.45
      5.677   133.8560       0.44
      5.690   132.0719       0.44
      5.703   133.0285       0.44
      5.716   136.6276       0.43
      5.729   139.8791       0.43
      5.755   143.6041       0.42
      5.781   149.1456       0.42
      5.806   154.1116       0.41
      5.832   155.5214       0.41
      5.858   157.5837       0.40
      5.885   164.2176       0.40
      5.911   169.0398       0.39
      5.937   173.9727       0.38
      5.963   181.0978       0.38
      5.989   188.1473       0.37
      6.016   195.7775       0.36
      6.016   195.3022       0.36
      6.026   196.8226       0.36
      6.037   200.9498       0.36
      6.047   207.1728       0.35
      6.056   211.6734       0.35
      6.058   211.4532       0.35
      6.059   216.9073       0.34
      6.079   227.3723       0.34
      6.082   225.9919       0.34
      6.090   231.5711       0.33
      6.101   244.3585       0.32
      6.109   252.4573       0.32
      6.111   255.9428       0.32
      6.122   262.0881       0.31
      6.133   260.6803       0.31
      6.135   261.9026       0.31
      6.143   248.6392       0.32
      6.154   236.3777       0.33
      6.162   228.0289       0.34
      6.164   224.3064       0.34
      6.175   215.8112       0.35
      6.202   206.2994       0.35
      6.229   204.6198       0.36
      6.256   212.0990       0.35
      6.269   218.2925       0.34
      6.283   234.4337       0.33
      6.296   259.6382       0.31
      6.310   278.2742       0.30
      6.323   259.5322       0.31
      6.337   234.6386       0.33
      6.350   222.1978       0.34
      6.364   224.7084       0.34
      6.391   234.2716       0.33
      6.418   239.7887       0.33
      6.445   249.4641       0.32
      6.473   249.3340       0.32
      6.500   251.9654       0.32
      6.514   255.6695       0.32
      6.528   262.0461       0.31
      6.541   269.1956       0.31
      6.555   285.3376       0.30
      6.569   301.6040       0.29
      6.583   298.8750       0.29
      6.597   286.1187       0.30
      6.610   275.3567       0.31
      6.624   273.3362       0.31
      6.638   273.5181       0.31
      6.666   280.9875       0.30
      6.694   289.3042       0.30
      6.708   310.7695       0.29
      6.721   322.5793       0.28
      6.735   336.8281       0.28
      6.749   374.1560       0.26
      6.777   325.1399       0.28
      6.805   292.8286       0.43
ENDDATA            234
ENDSUBENT          268
ENDENTRY             7
