ENTRY            11413     820813
SUBENT        11413001     820813
BIB                  6          9
INSTITUTE  (1USAANL)
REFERENCE  (J,PR,122,1235,61)
           (W,HIBDON,6406) TABULATED DATA.
AUTHOR     (C.T.HIBDON)
TITLE      NUCLEAR ENERGY LEVELS OF NA23 IN THE REGION FROM 350 TO
           630 KEV.
STATUS     (SCSRS)
HISTORY    (760715T) TRANSLATED FROM SCISRS
           (820813A) CONVERTED TO REACTION FORMALISM
ENDBIB               9
NOCOMMON             0          0
ENDSUBENT           12
SUBENT        11413002     820813
BIB                  2          2
REACTION   (11-NA-23(N,TOT),,SIG)
COMMENT    FLAT DETECTION.
ENDBIB               2
NOCOMMON             0          0
DATA                 2        346
EN         DATA
MEV        B
 3.500  -01 2.93   +00
 3.510  -01 3.05   +00
 3.520  -01 3.37   +00
 3.530  -01 3.38   +00
 3.540  -01 3.17   +00
 3.550  -01 3.19   +00
 3.560  -01 3.42   +00
 3.570  -01 3.17   +00
 3.580  -01 2.94   +00
 3.585  -01 3.00   +00
 3.590  -01 3.33   +00
 3.595  -01 3.63   +00
 3.600  -01 3.33   +00
 3.605  -01 3.14   +00
 3.610  -01 3.39   +00
 3.620  -01 3.74   +00
 3.630  -01 3.33   +00
 3.640  -01 3.68   +00
 3.650  -01 3.17   +00
 3.660  -01 3.08   +00
 3.670  -01 3.32   +00
 3.675  -01 3.54   +00
 3.680  -01 3.70   +00
 3.685  -01 3.47   +00
 3.690  -01 3.13   +00
 3.700  -01 3.33   +00
 3.710  -01 3.34   +00
 3.720  -01 3.90   +00
 3.730  -01 3.52   +00
 3.740  -01 3.69   +00
 3.750  -01 3.84   +00
 3.760  -01 3.60   +00
 3.770  -01 3.45   +00
 3.780  -01 3.89   +00
 3.785  -01 4.09   +00
 3.790  -01 4.27   +00
 3.795  -01 4.18   +00
 3.800  -01 4.07   +00
 3.805  -01 3.85   +00
 3.810  -01 3.78   +00
 3.820  -01 4.45   +00
 3.830  -01 4.27   +00
 3.840  -01 4.05   +00
 3.845  -01 4.21   +00
 3.850  -01 4.71   +00
 3.855  -01 4.73   +00
 3.860  -01 4.34   +00
 3.865  -01 4.11   +00
 3.870  -01 4.15   +00
 3.880  -01 4.61   +00
 3.890  -01 5.19   +00
 3.900  -01 4.08   +00
 3.905  -01 4.11   +00
 3.910  -01 4.71   +00
 3.915  -01 4.75   +00
 3.920  -01 4.48   +00
 3.925  -01 4.11   +00
 3.930  -01 4.39   +00
 3.935  -01 4.62   +00
 3.940  -01 4.86   +00
 3.945  -01 4.84   +00
 3.950  -01 4.39   +00
 3.955  -01 4.20   +00
 3.960  -01 4.44   +00
 3.970  -01 4.97   +00
 3.980  -01 5.31   +00
 3.990  -01 4.65   +00
 4.000  -01 5.09   +00
 4.010  -01 5.00   +00
 4.020  -01 3.98   +00
 4.020  -01 4.00   +00
 4.025  -01 4.13   +00
 4.030  -01 4.77   +00
 4.040  -01 4.60   +00
 4.045  -01 3.70   +00
 4.050  -01 3.84   +00
 4.060  -01 4.50   +00
 4.070  -01 4.00   +00
 4.080  -01 3.50   +00
 4.090  -01 3.28   +00
 4.100  -01 3.68   +00
 4.110  -01 4.00   +00
 4.120  -01 3.83   +00
 4.130  -01 3.52   +00
 4.140  -01 3.75   +00
 4.150  -01 3.57   +00
 4.160  -01 3.56   +00
 4.170  -01 3.77   +00
 4.180  -01 3.17   +00
 4.185  -01 3.15   +00
 4.190  -01 3.34   +00
 4.195  -01 3.65   +00
 4.200  -01 2.68   +00
 4.205  -01 2.55   +00
 4.210  -01 2.68   +00
 4.220  -01 3.76   +00
 4.230  -01 3.95   +00
 4.240  -01 3.25   +00
 4.250  -01 3.05   +00
 4.260  -01 3.60   +00
 4.270  -01 3.25   +00
 4.280  -01 3.45   +00
 4.290  -01 3.14   +00
 4.300  -01 3.55   +00
 4.310  -01 3.58   +00
 4.320  -01 3.87   +00
 4.330  -01 3.50   +00
 4.340  -01 3.28   +00
 4.350  -01 3.12   +00
 4.360  -01 3.33   +00
 4.370  -01 3.34   +00
 4.380  -01 3.15   +00
 4.385  -01 3.48   +00
 4.390  -01 3.99   +00
 4.395  -01 3.68   +00
 4.400  -01 3.37   +00
 4.410  -01 3.27   +00
 4.420  -01 3.50   +00
 4.430  -01 4.09   +00
 4.440  -01 3.82   +00
 4.450  -01 3.82   +00
 4.455  -01 4.18   +00
 4.460  -01 4.67   +00
 4.460  -01 4.60   +00
 4.465  -01 4.61   +00
 4.470  -01 4.17   +00
 4.480  -01 4.67   +00
 4.490  -01 5.55   +00
 4.495  -01 5.92   +00
 4.500  -01 6.08   +00
 4.505  -01 5.61   +00
 4.510  -01 4.90   +00
 4.520  -01 5.67   +00
 4.530  -01 5.24   +00
 4.540  -01 4.63   +00
 4.550  -01 3.89   +00
 4.560  -01 4.38   +00
 4.570  -01 3.83   +00
 4.580  -01 2.92   +00
 4.590  -01 2.94   +00
 4.595  -01 3.18   +00
 4.600  -01 3.40   +00
 4.605  -01 3.06   +00
 4.610  -01 2.71   +00
 4.620  -01 2.87   +00
 4.630  -01 3.18   +00
 4.640  -01 2.75   +00
 4.650  -01 2.20   +00
 4.660  -01 3.12   +00
 4.670  -01 3.76   +00
 4.680  -01 3.16   +00
 4.690  -01 2.93   +00
 4.700  -01 2.70   +00
 4.710  -01 3.02   +00
 4.720  -01 2.75   +00
 4.730  -01 2.53   +00
 4.740  -01 2.52   +00
 4.750  -01 2.81   +00
 4.760  -01 3.21   +00
 4.770  -01 3.17   +00
 4.780  -01 2.60   +00
 4.790  -01 2.35   +00
 4.800  -01 2.34   +00
 4.810  -01 2.90   +00
 4.820  -01 2.55   +00
 4.830  -01 2.36   +00
 4.840  -01 2.25   +00
 4.850  -01 2.16   +00
 4.860  -01 2.37   +00
 4.870  -01 2.92   +00
 4.880  -01 2.75   +00
 4.890  -01 2.35   +00
 4.900  -01 2.16   +00
 4.900  -01 2.12   +00
 4.910  -01 2.16   +00
 4.910  -01 2.11   +00
 4.915  -01 2.19   +00
 4.920  -01 2.28   +00
 4.920  -01 2.17   +00
 4.930  -01 2.42   +00
 4.940  -01 3.02   +00
 4.940  -01 2.92   +00
 4.950  -01 2.48   +00
 4.950  -01 2.41   +00
 4.960  -01 2.37   +00
 4.960  -01 2.36   +00
 4.970  -01 2.35   +00
 4.970  -01 2.27   +00
 4.980  -01 2.30   +00
 4.980  -01 2.25   +00
 4.990  -01 2.26   +00
 4.990  -01 2.21   +00
 5.000  -01 2.32   +00
 5.000  -01 2.25   +00
 5.010  -01 2.29   +00
 5.010  -01 2.22   +00
 5.020  -01 2.27   +00
 5.020  -01 2.19   +00
 5.030  -01 2.27   +00
 5.030  -01 2.22   +00
 5.040  -01 2.29   +00
 5.040  -01 2.21   +00
 5.050  -01 2.29   +00
 5.050  -01 2.28   +00
 5.060  -01 2.19   +00
 5.070  -01 2.18   +00
 5.080  -01 2.19   +00
 5.090  -01 2.28   +00
 5.100  -01 2.62   +00
 5.105  -01 2.95   +00
 5.110  -01 3.15   +00
 5.115  -01 2.89   +00
 5.120  -01 2.53   +00
 5.130  -01 2.19   +00
 5.140  -01 2.16   +00
 5.150  -01 2.11   +00
 5.160  -01 2.00   +00
 5.170  -01 1.97   +00
 5.180  -01 1.99   +00
 5.190  -01 1.95   +00
 5.200  -01 1.89   +00
 5.210  -01 1.87   +00
 5.220  -01 1.76   +00
 5.230  -01 1.81   +00
 5.240  -01 1.87   +00
 5.240  -01 1.83   +00
 5.250  -01 1.86   +00
 5.260  -01 1.89   +00
 5.270  -01 1.97   +00
 5.280  -01 2.07   +00
 5.290  -01 2.36   +00
 5.290  -01 2.33   +00
 5.300  -01 2.85   +00
 5.310  -01 2.19   +00
 5.320  -01 2.79   +00
 5.330  -01 3.11   +00
 5.340  -01 2.53   +00
 5.350  -01 2.85   +00
 5.360  -01 3.35   +00
 5.370  -01 2.80   +00
 5.380  -01 2.87   +00
 5.385  -01 3.05   +00
 5.390  -01 3.47   +00
 5.400  -01 4.03   +00
 5.410  -01 4.28   +00
 5.420  -01 3.89   +00
 5.430  -01 3.67   +00
 5.440  -01 3.72   +00
 5.450  -01 4.04   +00
 5.460  -01 3.65   +00
 5.470  -01 3.38   +00
 5.480  -01 3.59   +00
 5.490  -01 4.12   +00
 5.500  -01 4.37   +00
 5.510  -01 3.63   +00
 5.520  -01 3.80   +00
 5.530  -01 4.25   +00
 5.540  -01 4.02   +00
 5.550  -01 3.85   +00
 5.560  -01 3.77   +00
 5.570  -01 4.20   +00
 5.580  -01 3.48   +00
 5.590  -01 3.55   +00
 5.600  -01 3.76   +00
 5.610  -01 4.35   +00
 5.620  -01 3.94   +00
 5.630  -01 3.56   +00
 5.640  -01 3.89   +00
 5.650  -01 4.50   +00
 5.660  -01 3.91   +00
 5.670  -01 3.55   +00
 5.680  -01 4.03   +00
 5.690  -01 3.56   +00
 5.700  -01 4.12   +00
 5.710  -01 4.10   +00
 5.720  -01 3.61   +00
 5.730  -01 3.55   +00
 5.740  -01 3.96   +00
 5.750  -01 4.46   +00
 5.760  -01 3.80   +00
 5.770  -01 3.37   +00
 5.780  -01 3.93   +00
 5.790  -01 4.27   +00
 5.800  -01 3.66   +00
 5.810  -01 3.37   +00
 5.820  -01 4.30   +00
 5.820  -01 4.25   +00
 5.830  -01 4.31   +00
 5.830  -01 4.13   +00
 5.840  -01 3.89   +00
 5.850  -01 3.57   +00
 5.850  -01 3.48   +00
 5.860  -01 4.17   +00
 5.860  -01 4.13   +00
 5.870  -01 4.66   +00
 5.880  -01 4.24   +00
 5.890  -01 4.10   +00
 5.900  -01 4.26   +00
 5.910  -01 4.34   +00
 5.920  -01 4.61   +00
 5.930  -01 5.25   +00
 5.940  -01 4.51   +00
 5.950  -01 5.27   +00
 5.960  -01 5.45   +00
 5.970  -01 4.67   +00
 5.980  -01 4.83   +00
 5.990  -01 5.26   +00
 5.990  -01 5.17   +00
 6.000  -01 5.76   +00
 6.000  -01 5.69   +00
 6.005  -01 6.16   +00
 6.010  -01 6.85   +00
 6.020  -01 5.30   +00
 6.020  -01 5.52   +00
 6.030  -01 5.00   +00
 6.040  -01 4.83   +00
 6.050  -01 5.32   +00
 6.060  -01 4.85   +00
 6.070  -01 4.55   +00
 6.080  -01 5.30   +00
 6.090  -01 4.64   +00
 6.100  -01 4.37   +00
 6.110  -01 5.00   +00
 6.120  -01 4.69   +00
 6.130  -01 4.07   +00
 6.140  -01 4.17   +00
 6.150  -01 4.98   +00
 6.155  -01 4.76   +00
 6.160  -01 4.25   +00
 6.170  -01 3.97   +00
 6.180  -01 4.28   +00
 6.190  -01 4.43   +00
 6.200  -01 4.03   +00
 6.205  -01 4.25   +00
 6.210  -01 4.57   +00
 6.215  -01 4.28   +00
 6.220  -01 4.05   +00
 6.230  -01 4.50   +00
 6.240  -01 3.88   +00
 6.245  -01 3.86   +00
 6.250  -01 4.36   +00
 6.260  -01 4.92   +00
 6.265  -01 5.00   +00
 6.270  -01 4.57   +00
 6.280  -01 3.95   +00
 6.290  -01 4.18   +00
ENDDATA            348
ENDSUBENT          355
SUBENT        11413003     820813
BIB                  2          2
REACTION   (11-NA-23(N,TOT),,SIG)
COMMENT    SELF DETECTION.
ENDBIB               2
NOCOMMON             0          0
DATA                 2        458
EN         DATA
MEV        B
 3.500  -01 2.82   +00
 3.510  -01 3.00   +00
 3.520  -01 3.63   +00
 3.525  -01 4.00   +00
 3.530  -01 3.54   +00
 3.530  -01 3.48   +00
 3.540  -01 2.93   +00
 3.550  -01 2.90   +00
 3.555  -01 3.37   +00
 3.560  -01 3.94   +00
 3.565  -01 3.85   +00
 3.570  -01 3.24   +00
 3.580  -01 2.83   +00
 3.585  -01 2.92   +00
 3.590  -01 3.50   +00
 3.590  -01 3.39   +00
 3.595  -01 4.25   +00
 3.600  -01 3.41   +00
 3.605  -01 2.60   +00
 3.610  -01 3.47   +00
 3.615  -01 4.02   +00
 3.620  -01 4.35   +00
 3.625  -01 3.83   +00
 3.630  -01 3.00   +00
 3.630  -01 2.86   +00
 3.635  -01 3.06   +00
 3.635  -01 3.14   +00
 3.640  -01 4.02   +00
 3.645  -01 3.66   +00
 3.650  -01 3.35   +00
 3.660  -01 2.82   +00
 3.670  -01 3.11   +00
 3.675  -01 3.78   +00
 3.680  -01 4.08   +00
 3.685  -01 3.90   +00
 3.690  -01 2.87   +00
 3.700  -01 2.72   +00
 3.710  -01 3.63   +00
 3.715  -01 4.21   +00
 3.720  -01 4.52   +00
 3.725  -01 4.14   +00
 3.730  -01 3.17   +00
 3.735  -01 3.44   +00
 3.740  -01 4.00   +00
 3.745  -01 4.32   +00
 3.745  -01 4.50   +00
 3.750  -01 4.75   +00
 3.755  -01 3.99   +00
 3.760  -01 3.28   +00
 3.770  -01 2.97   +00
 3.780  -01 3.75   +00
 3.785  -01 3.73   +00
 3.790  -01 5.15   +00
 3.795  -01 4.69   +00
 3.800  -01 3.90   +00
 3.805  -01 3.64   +00
 3.810  -01 3.33   +00
 3.815  -01 4.00   +00
 3.820  -01 4.85   +00
 3.825  -01 6.03   +00
 3.830  -01 4.32   +00
 3.835  -01 3.58   +00
 3.840  -01 3.56   +00
 3.845  -01 4.71   +00
 3.850  -01 5.50   +00
 3.855  -01 5.48   +00
 3.860  -01 4.64   +00
 3.865  -01 3.62   +00
 3.870  -01 3.64   +00
 3.875  -01 3.97   +00
 3.880  -01 4.88   +00
 3.885  -01 6.06   +00
 3.885  -01 6.27   +00
 3.890  -01 5.34   +00
 3.895  -01 4.60   +00
 3.900  -01 3.50   +00
 3.905  -01 3.76   +00
 3.910  -01 5.45   +00
 3.915  -01 5.97   +00
 3.920  -01 4.62   +00
 3.925  -01 3.10   +00
 3.930  -01 3.82   +00
 3.935  -01 5.03   +00
 3.940  -01 6.25   +00
 3.945  -01 5.93   +00
 3.950  -01 3.78   +00
 3.955  -01 3.85   +00
 3.960  -01 4.06   +00
 3.965  -01 4.60   +00
 3.970  -01 5.34   +00
 3.975  -01 6.50   +00
 3.980  -01 5.79   +00
 3.985  -01 4.52   +00
 3.990  -01 4.30   +00
 3.995  -01 4.79   +00
 4.000  -01 5.52   +00
 4.005  -01 5.98   +00
 4.010  -01 5.25   +00
 4.015  -01 4.37   +00
 4.020  -01 3.76   +00
 4.025  -01 4.25   +00
 4.030  -01 5.08   +00
 4.035  -01 5.61   +00
 4.040  -01 5.30   +00
 4.045  -01 3.99   +00
 4.050  -01 3.66   +00
 4.055  -01 3.92   +00
 4.060  -01 4.70   +00
 4.065  -01 5.00   +00
 4.070  -01 4.27   +00
 4.080  -01 3.60   +00
 4.090  -01 3.18   +00
 4.100  -01 3.49   +00
 4.105  -01 4.40   +00
 4.110  -01 5.18   +00
 4.115  -01 4.84   +00
 4.120  -01 3.95   +00
 4.125  -01 3.47   +00
 4.125  -01 3.65   +00
 4.130  -01 3.11   +00
 4.140  -01 4.25   +00
 4.145  -01 5.00   +00
 4.150  -01 3.67   +00
 4.155  -01 3.43   +00
 4.160  -01 3.67   +00
 4.170  -01 4.40   +00
 4.180  -01 3.36   +00
 4.185  -01 3.00   +00
 4.190  -01 3.85   +00
 4.195  -01 4.58   +00
 4.195  -01 4.48   +00
 4.200  -01 2.99   +00
 4.205  -01 2.47   +00
 4.210  -01 2.63   +00
 4.215  -01 3.12   +00
 4.220  -01 4.15   +00
 4.220  -01 3.95   +00
 4.225  -01 4.49   +00
 4.225  -01 4.56   +00
 4.235  -01 3.52   +00
 4.240  -01 3.33   +00
 4.240  -01 3.16   +00
 4.245  -01 3.00   +00
 4.250  -01 2.86   +00
 4.255  -01 3.50   +00
 4.260  -01 4.05   +00
 4.265  -01 3.45   +00
 4.270  -01 3.13   +00
 4.275  -01 3.21   +00
 4.280  -01 4.47   +00
 4.285  -01 3.83   +00
 4.290  -01 3.00   +00
 4.295  -01 3.34   +00
 4.300  -01 4.18   +00
 4.305  -01 4.07   +00
 4.310  -01 3.14   +00
 4.310  -01 3.36   +00
 4.315  -01 3.66   +00
 4.320  -01 4.45   +00
 4.320  -01 4.37   +00
 4.325  -01 3.82   +00
 4.330  -01 3.56   +00
 4.335  -01 3.20   +00
 4.340  -01 3.19   +00
 4.345  -01 3.10   +00
 4.350  -01 2.99   +00
 4.355  -01 3.33   +00
 4.360  -01 4.11   +00
 4.365  -01 4.60   +00
 4.370  -01 3.55   +00
 4.375  -01 2.69   +00
 4.380  -01 3.08   +00
 4.385  -01 3.75   +00
 4.385  -01 3.66   +00
 4.390  -01 4.78   +00
 4.395  -01 4.10   +00
 4.400  -01 3.66   +00
 4.400  -01 3.15   +00
 4.410  -01 3.07   +00
 4.415  -01 3.38   +00
 4.420  -01 3.64   +00
 4.425  -01 3.85   +00
 4.430  -01 4.89   +00
 4.435  -01 4.52   +00
 4.445  -01 3.45   +00
 4.450  -01 3.98   +00
 4.455  -01 4.60   +00
 4.460  -01 5.38   +00
 4.465  -01 5.55   +00
 4.465  -01 5.40   +00
 4.470  -01 4.30   +00
 4.470  -01 4.06   +00
 4.475  -01 3.89   +00
 4.480  -01 4.61   +00
 4.485  -01 5.06   +00
 4.485  -01 5.21   +00
 4.490  -01 5.61   +00
 4.490  -01 5.78   +00
 4.495  -01 6.20   +00
 4.495  -01 6.38   +00
 4.500  -01 6.61   +00
 4.500  -01 6.70   +00
 4.505  -01 5.85   +00
 4.505  -01 5.68   +00
 4.510  -01 5.02   +00
 4.515  -01 5.37   +00
 4.515  -01 5.48   +00
 4.520  -01 5.74   +00
 4.520  -01 5.62   +00
 4.525  -01 5.91   +00
 4.525  -01 5.85   +00
 4.530  -01 5.50   +00
 4.535  -01 5.02   +00
 4.535  -01 4.89   +00
 4.540  -01 4.57   +00
 4.540  -01 4.50   +00
 4.545  -01 4.13   +00
 4.545  -01 4.28   +00
 4.550  -01 3.84   +00
 4.550  -01 3.94   +00
 4.555  -01 3.88   +00
 4.555  -01 3.91   +00
 4.560  -01 4.56   +00
 4.560  -01 4.62   +00
 4.565  -01 4.98   +00
 4.565  -01 5.07   +00
 4.570  -01 3.71   +00
 4.570  -01 3.66   +00
 4.575  -01 3.08   +00
 4.580  -01 2.86   +00
 4.585  -01 2.67   +00
 4.585  -01 2.76   +00
 4.590  -01 3.39   +00
 4.590  -01 3.17   +00
 4.595  -01 3.78   +00
 4.595  -01 3.63   +00
 4.600  -01 4.27   +00
 4.600  -01 4.16   +00
 4.605  -01 3.40   +00
 4.610  -01 2.87   +00
 4.610  -01 2.68   +00
 4.615  -01 3.48   +00
 4.615  -01 3.57   +00
 4.620  -01 3.91   +00
 4.620  -01 3.16   +00
 4.625  -01 3.62   +00
 4.625  -01 3.69   +00
 4.630  -01 3.86   +00
 4.630  -01 3.93   +00
 4.635  -01 3.14   +00
 4.635  -01 3.07   +00
 4.640  -01 2.87   +00
 4.640  -01 2.66   +00
 4.645  -01 2.32   +00
 4.645  -01 2.48   +00
 4.650  -01 2.05   +00
 4.650  -01 2.12   +00
 4.655  -01 2.53   +00
 4.655  -01 2.63   +00
 4.660  -01 3.17   +00
 4.660  -01 3.03   +00
 4.665  -01 4.53   +00
 4.670  -01 3.96   +00
 4.670  -01 4.07   +00
 4.675  -01 3.62   +00
 4.675  -01 3.55   +00
 4.680  -01 3.03   +00
 4.680  -01 3.08   +00
 4.685  -01 2.98   +00
 4.685  -01 2.92   +00
 4.690  -01 2.83   +00
 4.690  -01 2.88   +00
 4.695  -01 2.67   +00
 4.695  -01 2.76   +00
 4.700  -01 2.61   +00
 4.700  -01 2.55   +00
 4.705  -01 2.76   +00
 4.705  -01 2.61   +00
 4.710  -01 3.18   +00
 4.715  -01 3.52   +00
 4.720  -01 3.25   +00
 4.730  -01 2.34   +00
 4.740  -01 2.37   +00
 4.750  -01 2.70   +00
 4.755  -01 3.08   +00
 4.760  -01 3.49   +00
 4.765  -01 3.71   +00
 4.770  -01 3.21   +00
 4.780  -01 2.34   +00
 4.790  -01 2.28   +00
 4.800  -01 2.39   +00
 4.805  -01 2.55   +00
 4.810  -01 3.06   +00
 4.815  -01 3.42   +00
 4.820  -01 2.73   +00
 4.825  -01 2.38   +00
 4.830  -01 2.30   +00
 4.840  -01 2.18   +00
 4.850  -01 2.11   +00
 4.860  -01 2.32   +00
 4.865  -01 2.63   +00
 4.870  -01 3.21   +00
 4.875  -01 3.50   +00
 4.880  -01 2.86   +00
 4.885  -01 2.54   +00
 4.890  -01 2.42   +00
 4.900  -01 2.30   +00
 4.920  -01 2.25   +00
 4.930  -01 2.57   +00
 4.940  -01 3.52   +00
 4.940  -01 3.45   +00
 4.945  -01 2.82   +00
 4.950  -01 2.36   +00
 4.950  -01 2.52   +00
 5.080  -01 2.30   +00
 5.090  -01 2.37   +00
 5.100  -01 2.76   +00
 5.105  -01 3.37   +00
 5.110  -01 4.01   +00
 5.115  -01 3.36   +00
 5.120  -01 2.46   +00
 5.120  -01 2.67   +00
 5.130  -01 2.12   +00
 5.140  -01 2.19   +00
 5.150  -01 2.14   +00
 5.280  -01 2.03   +00
 5.290  -01 2.42   +00
 5.295  -01 2.94   +00
 5.300  -01 3.53   +00
 5.305  -01 2.51   +00
 5.310  -01 1.89   +00
 5.315  -01 2.40   +00
 5.320  -01 3.11   +00
 5.325  -01 3.69   +00
 5.330  -01 3.39   +00
 5.335  -01 2.28   +00
 5.335  -01 2.57   +00
 5.340  -01 2.03   +00
 5.345  -01 2.74   +00
 5.350  -01 3.25   +00
 5.355  -01 3.75   +00
 5.360  -01 4.08   +00
 5.365  -01 3.18   +00
 5.370  -01 2.67   +00
 5.375  -01 2.66   +00
 5.380  -01 2.76   +00
 5.385  -01 3.09   +00
 5.390  -01 3.39   +00
 5.400  -01 4.12   +00
 5.410  -01 4.37   +00
 5.420  -01 3.83   +00
 5.430  -01 3.54   +00
 5.440  -01 3.84   +00
 5.445  -01 4.17   +00
 5.450  -01 4.39   +00
 5.455  -01 3.87   +00
 5.460  -01 3.52   +00
 5.465  -01 3.27   +00
 5.470  -01 3.28   +00
 5.480  -01 3.64   +00
 5.490  -01 3.94   +00
 5.495  -01 4.35   +00
 5.500  -01 4.94   +00
 5.510  -01 3.48   +00
 5.515  -01 3.33   +00
 5.520  -01 3.94   +00
 5.530  -01 4.69   +00
 5.540  -01 4.06   +00
 5.550  -01 3.55   +00
 5.560  -01 3.85   +00
 5.570  -01 4.88   +00
 5.580  -01 3.55   +00
 5.590  -01 3.25   +00
 5.600  -01 3.87   +00
 5.610  -01 4.87   +00
 5.620  -01 3.88   +00
 5.630  -01 3.25   +00
 5.640  -01 3.40   +00
 5.650  -01 4.94   +00
 5.660  -01 3.98   +00
 5.670  -01 3.39   +00
 5.680  -01 4.35   +00
 5.690  -01 3.40   +00
 5.700  -01 3.98   +00
 5.705  -01 4.47   +00
 5.710  -01 3.97   +00
 5.720  -01 3.38   +00
 5.730  -01 3.24   +00
 5.740  -01 3.87   +00
 5.750  -01 4.99   +00
 5.760  -01 3.87   +00
 5.770  -01 3.26   +00
 5.780  -01 3.80   +00
 5.790  -01 4.48   +00
 5.800  -01 3.69   +00
 5.810  -01 3.25   +00
 5.820  -01 4.53   +00
 5.830  -01 4.17   +00
 5.840  -01 3.77   +00
 5.850  -01 3.17   +00
 5.860  -01 4.06   +00
 5.870  -01 4.90   +00
 5.880  -01 4.32   +00
 5.890  -01 4.02   +00
 5.900  -01 4.18   +00
 5.910  -01 4.27   +00
 5.920  -01 4.68   +00
 5.930  -01 5.50   +00
 5.940  -01 4.06   +00
 5.950  -01 5.68   +00
 5.960  -01 5.17   +00
 5.970  -01 4.52   +00
 5.980  -01 4.67   +00
 5.990  -01 5.06   +00
 6.000  -01 5.84   +00
 6.010  -01 6.90   +00
 6.010  -01 7.00   +00
 6.020  -01 5.38   +00
 6.025  -01 4.77   +00
 6.030  -01 4.80   +00
 6.030  -01 4.70   +00
 6.035  -01 4.66   +00
 6.040  -01 5.02   +00
 6.050  -01 5.57   +00
 6.060  -01 4.61   +00
 6.070  -01 4.41   +00
 6.070  -01 4.24   +00
 6.080  -01 5.48   +00
 6.085  -01 5.86   +00
 6.090  -01 4.29   +00
 6.095  -01 4.02   +00
 6.100  -01 4.15   +00
 6.110  -01 5.14   +00
 6.115  -01 5.36   +00
 6.130  -01 3.82   +00
 6.140  -01 4.04   +00
 6.150  -01 5.41   +00
 6.155  -01 5.68   +00
 6.160  -01 4.37   +00
 6.170  -01 3.89   +00
 6.180  -01 4.13   +00
 6.185  -01 5.08   +00
 6.190  -01 4.56   +00
 6.200  -01 3.89   +00
 6.205  -01 4.68   +00
 6.210  -01 5.19   +00
 6.215  -01 4.74   +00
 6.220  -01 4.11   +00
 6.230  -01 4.85   +00
 6.240  -01 3.96   +00
 6.250  -01 4.24   +00
 6.260  -01 5.06   +00
 6.265  -01 5.47   +00
 6.270  -01 5.33   +00
 6.280  -01 5.06   +00
 6.285  -01 3.85   +00
 6.290  -01 4.02   +00
 6.295  -01 4.88   +00
ENDDATA            460
ENDSUBENT          467
SUBENT        11413004     820813
BIB                  3          6
REACTION  1(11-NA-23(N,0),,EN)
          2(11-NA-23(N,0),,J)
          3(11-NA-23(N,0),,L)
          4(11-NA-23(N,EL),,WID)
FLAG       (1.) L VALUE UNCERTAIN
HISTORY    (820514A) SUBENTRIES 4,5 COMBINED
ENDBIB               6
NOCOMMON             0          0
DATA                 5         71
DATA      1DATA      2DATA      3FLAG       DATA      4
MEV        NO-DIM     NO-DIM     NO-DIM     KEV
 3.526  -01 1.     +00 1.                    1.6
 3.559  -01 1.     +00 1.                    1.5
 3.597  -01 2.         2.                    0.9
 3.620  -01 2.         2.                    1.0
 3.638  -01 2.         2.                    0.8
 3.680  -01 1.     +00 1.                    1.6
 3.722  -01 2.     +00 1.                    0.9
 3.750  -01 2.     +00 1.                    1.5
 3.789  -01 2.     +00 1.                    1.6
 3.827  -01 3.     +00 3.         1.         0.9
 3.847  -01 2.     +00 1.                    1.5
 3.888  -01 3.     +00 3.         1.         1.4
 3.912  -01 3.     +00 3.         1.         0.7
 3.936  -01 3.     +00 3.         1.         0.8
 3.979  -01 4.         2.                    1.3
 4.005  -01 4.         2.                    1.4
 4.030  -01 4.         2.         1.         1.1
 4.058  -01 2.     +00 0.                    3.0
 4.112  -01 2.         2.                    1.5
 4.146  -01 3.     +00 3.         1.         0.9
 4.170  -01 2.     +00 3.         1.         1.2
 4.191  -01 3.     +00 3.         1.         0.9
 4.216  -01 2.     +00 0.                    1.9
 4.265  -01 1.     +00 3.         1.         0.9
 4.284  -01 2.     +00 3.                    0.6
 4.304  -01 2.     +00 3.                    0.7
 4.322  -01 2.     +00 3.                    0.9
 4.365  -01 3.     +00 3.                    0.7
 4.390  -01 3.     +00 3.         1.         1.1
 4.430  -01 3.         2.         1.         1.3
 4.462  -01 4.     +00 3.         1.         1.2
 4.496  -01 4.         2.         1.         1.9
 4.512  -01 2.     +00 0.                    3.7
 4.566  -01 2.     +00 3.         1.         0.8
 4.597  -01 2.     +00 3.         1.         0.6
 4.632  -01 2.         2.         1.         1.1
 4.657  -01 2.     +00 0.                    0.70
 4.715  -01 2.     +00 3.         1.         0.70
 4.765  -01 2.         2.                    1.3
 4.813  -01 2.     +00 3.         1.         0.75
 4.872  -01 2.     +00 3.                    1.1
 4.939  -01 2.     +00 3.                    0.75
 5.110  -01 2.     +00 3.                    1.0
 5.303  -01 3.     +00 3.                    0.75
 5.327  -01 3.     +00 3.                    1.0
 5.354  -01 3.     +00 3.                    1.1
 5.388  -01 2.     +00 0.                    4.5
 5.450  -01 2.     +00 3.                    0.6
 5.499  -01 2.         2.                    1.4
 5.528  -01 2.         2.                    1.4
 5.570  -01 3.     +00 3.         1.         0.8
 5.612  -01 3.         2.         1.         1.3
 5.648  -01 3.         2.         1.         1.3
 5.683  -01 3.     +00 3.         1.         0.6
 5.704  -01 3.     +00 3.         1.         0.9
 5.753  -01 3.         2.                    1.5
 5.787  -01 2.         2.                    2.0
 5.829  -01 3.         2.         1.         1.6
 5.866  -01 3.         2.         1.         1.6
 5.900  -01 1.         2.                    1.6
 5.928  -01 4.     +00 3.                    1.6
 5.953  -01 4.     +00 3.                    1.2
 6.010  -01 4.         2.                    1.3
 6.050  -01 3.     +00 3.                    3.5
 6.083  -01 4.     +00 3.                    1.7
 6.113  -01 3.     +00 3.                    1.0
 6.152  -01 4.     +00 3.                    1.7
 6.188  -01 3.     +00 3.                    1.1
 6.210  -01 4.     +00 3.                    1.7
 6.230  -01 4.     +00 3.                    0.8
 6.262  -01 3.         2.                    0.8
ENDDATA             73
ENDSUBENT           84
NOSUBENT      11413005     820812
ENDENTRY             5
