ENTRY            11414   19820813              20050926       0000
SUBENT        11414001   19820813              20050926       0000
BIB                  6          9
INSTITUTE  (1USAANL)
REFERENCE  (J,PR,124,500,61)
           (W,HIBDON,6406) TABULATED DATA.
AUTHOR     (C.T.HIBDON)
TITLE      NUCLEAR ENERGY LEVELS OF NA24 IN THE REGION FROM 630 TO
           860 KEV.
STATUS     (SCSRS)
HISTORY    (760715T) TRANSLATED FROM SCISRS
           (820813A) CONVERTED TO REACTION FORMALISM
ENDBIB               9
NOCOMMON             0          0
ENDSUBENT           12
SUBENT        11414002   19820813              20050926       0000
BIB                  2          2
REACTION   (11-NA-23(N,TOT),,SIG)
COMMENT    FLAT DETECTION.
ENDBIB               2
NOCOMMON             0          0
DATA                 2        252
EN         DATA
MEV        B
 6.300  -01 5.05   +00
 6.310  -01 4.18   +00
 6.320  -01 4.55   +00
 6.330  -01 4.38   +00
 6.340  -01 4.00   +00
 6.350  -01 4.53   +00
 6.360  -01 3.90   +00
 6.370  -01 4.32   +00
 6.380  -01 4.75   +00
 6.390  -01 4.25   +00
 6.400  -01 3.95   +00
 6.410  -01 3.87   +00
 6.420  -01 4.68   +00
 6.430  -01 4.57   +00
 6.430  -01 4.53   +00
 6.440  -01 4.25   +00
 6.450  -01 4.70   +00
 6.460  -01 4.47   +00
 6.470  -01 4.65   +00
 6.480  -01 4.55   +00
 6.490  -01 4.03   +00
 6.500  -01 4.01   +00
 6.510  -01 4.55   +00
 6.520  -01 4.67   +00
 6.530  -01 4.37   +00
 6.540  -01 4.68   +00
 6.550  -01 5.06   +00
 6.560  -01 5.01   +00
 6.570  -01 4.80   +00
 6.580  -01 5.03   +00
 6.590  -01 5.16   +00
 6.600  -01 4.76   +00
 6.610  -01 5.03   +00
 6.620  -01 5.34   +00
 6.630  -01 4.98   +00
 6.640  -01 4.69   +00
 6.650  -01 5.34   +00
 6.660  -01 5.70   +00
 6.670  -01 5.14   +00
 6.670  -01 5.06   +00
 6.680  -01 5.25   +00
 6.680  -01 5.18   +00
 6.685  -01 5.56   +00
 6.690  -01 5.76   +00
 6.690  -01 5.71   +00
 6.700  -01 5.50   +00
 6.710  -01 5.75   +00
 6.720  -01 5.71   +00
 6.730  -01 5.56   +00
 6.740  -01 5.70   +00
 6.750  -01 5.66   +00
 6.760  -01 5.85   +00
 6.770  -01 6.28   +00
 6.780  -01 5.95   +00
 6.790  -01 5.85   +00
 6.800  -01 6.34   +00
 6.810  -01 6.38   +00
 6.820  -01 6.78   +00
 6.830  -01 6.34   +00
 6.840  -01 6.62   +00
 6.850  -01 7.44   +00
 6.860  -01 7.64   +00
 6.870  -01 5.97   +00
 6.880  -01 5.98   +00
 6.890  -01 7.44   +00
 6.900  -01 6.90   +00
 6.910  -01 6.97   +00
 6.920  -01 7.75   +00
 6.930  -01 7.52   +00
 6.940  -01 7.33   +00
 6.950  -01 7.25   +00
 6.960  -01 7.72   +00
 6.970  -01 7.57   +00
 6.980  -01 7.33   +00
 6.990  -01 7.66   +00
 7.000  -01 8.00   +00
 7.010  -01 8.17   +00
 7.020  -01 7.56   +00
 7.030  -01 8.00   +00
 7.040  -01 8.30   +00
 7.050  -01 8.13   +00
 7.060  -01 7.75   +00
 7.070  -01 8.74   +00
 7.080  -01 8.02   +00
 7.090  -01 8.37   +00
 7.100  -01 8.39   +00
 7.110  -01 8.39   +00
 7.120  -01 9.21   +00
 7.130  -01 8.75   +00
 7.140  -01 8.15   +00
 7.150  -01 8.64   +00
 7.160  -01 9.66   +00
 7.170  -01 8.83   +00
 7.180  -01 8.03   +00
 7.190  -01 8.71   +00
 7.200  -01 8.28   +00
 7.210  -01 8.82   +00
 7.220  -01 8.50   +00
 7.230  -01 7.85   +00
 7.240  -01 8.38   +00
 7.250  -01 8.00   +00
 7.260  -01 7.55   +00
 7.270  -01 7.36   +00
 7.280  -01 7.71   +00
 7.290  -01 7.21   +00
 7.300  -01 7.14   +00
 7.310  -01 7.63   +00
 7.320  -01 7.06   +00
 7.330  -01 6.47   +00
 7.340  -01 7.39   +00
 7.350  -01 6.54   +00
 7.360  -01 7.03   +00
 7.370  -01 6.52   +00
 7.380  -01 6.31   +00
 7.390  -01 6.05   +00
 7.390  -01 5.94   +00
 7.400  -01 6.42   +00
 7.410  -01 6.39   +00
 7.420  -01 5.69   +00
 7.430  -01 5.20   +00
 7.440  -01 5.65   +00
 7.450  -01 5.13   +00
 7.460  -01 5.00   +00
 7.470  -01 5.39   +00
 7.480  -01 4.76   +00
 7.490  -01 4.94   +00
 7.500  -01 5.07   +00
 7.510  -01 4.75   +00
 7.520  -01 4.93   +00
 7.530  -01 4.44   +00
 7.540  -01 4.13   +00
 7.550  -01 4.19   +00
 7.560  -01 4.47   +00
 7.570  -01 4.63   +00
 7.580  -01 4.09   +00
 7.590  -01 4.05   +00
 7.600  -01 4.48   +00
 7.610  -01 4.14   +00
 7.620  -01 4.17   +00
 7.630  -01 4.82   +00
 7.640  -01 4.53   +00
 7.650  -01 4.60   +00
 7.660  -01 4.88   +00
 7.665  -01 5.42   +00
 7.670  -01 5.95   +00
 7.680  -01 5.68   +00
 7.680  -01 5.71   +00
 7.690  -01 6.02   +00
 7.700  -01 5.69   +00
 7.710  -01 6.44   +00
 7.720  -01 6.85   +00
 7.730  -01 6.97   +00
 7.740  -01 6.56   +00
 7.750  -01 6.35   +00
 7.750  -01 6.27   +00
 7.760  -01 6.41   +00
 7.760  -01 6.33   +00
 7.770  -01 6.56   +00
 7.770  -01 6.45   +00
 7.780  -01 7.01   +00
 7.780  -01 6.89   +00
 7.790  -01 7.21   +00
 7.790  -01 7.16   +00
 7.800  -01 7.02   +00
 7.810  -01 6.69   +00
 7.820  -01 6.85   +00
 7.830  -01 6.76   +00
 7.840  -01 6.47   +00
 7.850  -01 6.53   +00
 7.860  -01 7.39   +00
 7.870  -01 7.06   +00
 7.880  -01 6.35   +00
 7.890  -01 6.28   +00
 7.900  -01 6.16   +00
 7.910  -01 6.68   +00
 7.920  -01 7.00   +00
 7.930  -01 6.09   +00
 7.940  -01 5.95   +00
 7.950  -01 6.00   +00
 7.960  -01 6.45   +00
 7.970  -01 5.77   +00
 7.980  -01 6.10   +00
 7.980  -01 6.00   +00
 7.990  -01 6.44   +00
 7.990  -01 6.38   +00
 8.000  -01 6.09   +00
 8.000  -01 6.06   +00
 8.010  -01 6.07   +00
 8.010  -01 6.03   +00
 8.020  -01 5.72   +00
 8.020  -01 5.68   +00
 8.030  -01 5.60   +00
 8.030  -01 5.54   +00
 8.040  -01 5.47   +00
 8.040  -01 5.35   +00
 8.050  -01 5.66   +00
 8.050  -01 5.57   +00
 8.060  -01 5.71   +00
 8.070  -01 5.75   +00
 8.080  -01 5.39   +00
 8.090  -01 5.28   +00
 8.100  -01 5.06   +00
 8.110  -01 5.00   +00
 8.120  -01 5.12   +00
 8.130  -01 5.60   +00
 8.140  -01 5.50   +00
 8.150  -01 5.03   +00
 8.160  -01 4.66   +00
 8.170  -01 4.68   +00
 8.180  -01 5.10   +00
 8.190  -01 4.89   +00
 8.200  -01 4.68   +00
 8.210  -01 5.08   +00
 8.220  -01 5.30   +00
 8.230  -01 4.85   +00
 8.240  -01 4.97   +00
 8.250  -01 4.80   +00
 8.260  -01 4.97   +00
 8.270  -01 4.28   +00
 8.280  -01 4.06   +00
 8.290  -01 4.17   +00
 8.300  -01 4.98   +00
 8.310  -01 4.46   +00
 8.320  -01 4.66   +00
 8.330  -01 4.68   +00
 8.340  -01 4.31   +00
 8.350  -01 4.44   +00
 8.360  -01 4.30   +00
 8.370  -01 4.40   +00
 8.380  -01 3.88   +00
 8.390  -01 3.97   +00
 8.400  -01 4.30   +00
 8.410  -01 4.27   +00
 8.420  -01 4.15   +00
 8.430  -01 4.30   +00
 8.440  -01 4.41   +00
 8.450  -01 3.79   +00
 8.460  -01 3.56   +00
 8.470  -01 3.67   +00
 8.480  -01 4.00   +00
 8.490  -01 3.56   +00
 8.500  -01 3.68   +00
 8.510  -01 3.85   +00
 8.520  -01 4.13   +00
 8.530  -01 4.00   +00
 8.540  -01 3.62   +00
 8.550  -01 3.76   +00
 8.560  -01 3.45   +00
 8.570  -01 4.07   +00
 8.580  -01 4.17   +00
 8.590  -01 3.69   +00
 8.600  -01 3.46   +00
ENDDATA            254
ENDSUBENT          261
SUBENT        11414003   19820813              20050926       0000
BIB                  2          2
REACTION   (11-NA-23(N,TOT),,SIG)
COMMENT    SELF DETECTION.
ENDBIB               2
NOCOMMON             0          0
DATA                 2        321
EN         DATA
MEV        B
 6.300  -01 5.43   +00
 6.305  -01 4.45   +00
 6.310  -01 4.00   +00
 6.315  -01 3.95   +00
 6.320  -01 4.63   +00
 6.325  -01 5.11   +00
 6.330  -01 4.46   +00
 6.335  -01 3.61   +00
 6.340  -01 3.83   +00
 6.345  -01 4.57   +00
 6.350  -01 5.26   +00
 6.355  -01 4.25   +00
 6.360  -01 3.87   +00
 6.365  -01 3.74   +00
 6.375  -01 4.95   +00
 6.380  -01 5.28   +00
 6.385  -01 4.60   +00
 6.385  -01 4.67   +00
 6.415  -01 4.50   +00
 6.420  -01 4.86   +00
 6.425  -01 5.21   +00
 6.430  -01 4.66   +00
 6.440  -01 3.78   +00
 6.445  -01 4.50   +00
 6.450  -01 5.03   +00
 6.455  -01 5.01   +00
 6.460  -01 4.52   +00
 6.465  -01 4.19   +00
 6.470  -01 4.78   +00
 6.475  -01 5.30   +00
 6.480  -01 4.88   +00
 6.485  -01 4.15   +00
 6.490  -01 3.87   +00
 6.505  -01 4.44   +00
 6.510  -01 4.95   +00
 6.515  -01 5.27   +00
 6.525  -01 4.58   +00
 6.530  -01 4.19   +00
 6.535  -01 4.45   +00
 6.540  -01 4.55   +00
 6.545  -01 4.87   +00
 6.550  -01 5.25   +00
 6.555  -01 5.47   +00
 6.560  -01 5.14   +00
 6.570  -01 4.45   +00
 6.580  -01 5.11   +00
 6.585  -01 5.50   +00
 6.590  -01 5.11   +00
 6.600  -01 4.50   +00
 6.610  -01 4.90   +00
 6.615  -01 5.64   +00
 6.620  -01 5.50   +00
 6.640  -01 4.50   +00
 6.650  -01 5.30   +00
 6.655  -01 5.86   +00
 6.660  -01 6.14   +00
 6.665  -01 5.30   +00
 6.680  -01 4.95   +00
 6.690  -01 5.88   +00
 6.695  -01 6.06   +00
 6.700  -01 5.40   +00
 6.705  -01 5.34   +00
 6.710  -01 5.67   +00
 6.715  -01 6.25   +00
 6.720  -01 5.78   +00
 6.725  -01 5.30   +00
 6.730  -01 5.51   +00
 6.735  -01 5.76   +00
 6.740  -01 5.93   +00
 6.745  -01 5.61   +00
 6.750  -01 5.50   +00
 6.755  -01 5.37   +00
 6.765  -01 6.21   +00
 6.770  -01 6.61   +00
 6.775  -01 6.21   +00
 6.785  -01 5.66   +00
 6.790  -01 5.60   +00
 6.795  -01 6.34   +00
 6.800  -01 6.75   +00
 6.805  -01 6.86   +00
 6.810  -01 6.31   +00
 6.815  -01 6.25   +00
 6.820  -01 6.97   +00
 6.825  -01 7.28   +00
 6.830  -01 6.57   +00
 6.835  -01 6.03   +00
 6.840  -01 6.72   +00
 6.850  -01 7.62   +00
 6.855  -01 8.47   +00
 6.855  -01 8.22   +00
 6.860  -01 7.78   +00
 6.865  -01 6.55   +00
 6.865  -01 6.39   +00
 6.870  -01 5.53   +00
 6.870  -01 5.58   +00
 6.875  -01 5.17   +00
 6.880  -01 6.42   +00
 6.885  -01 7.36   +00
 6.890  -01 8.33   +00
 6.895  -01 8.00   +00
 6.900  -01 7.13   +00
 6.905  -01 6.61   +00
 6.910  -01 6.82   +00
 6.915  -01 7.40   +00
 6.920  -01 7.68   +00
 6.925  -01 8.16   +00
 6.930  -01 7.46   +00
 6.940  -01 7.18   +00
 6.950  -01 7.16   +00
 6.955  -01 7.67   +00
 6.960  -01 8.12   +00
 6.965  -01 7.90   +00
 6.970  -01 7.51   +00
 6.980  -01 7.18   +00
 6.990  -01 7.55   +00
 6.995  -01 7.89   +00
 7.000  -01 8.39   +00
 7.005  -01 8.61   +00
 7.010  -01 8.31   +00
 7.020  -01 7.43   +00
 7.030  -01 8.07   +00
 7.035  -01 8.56   +00
 7.040  -01 8.63   +00
 7.050  -01 7.89   +00
 7.060  -01 7.43   +00
 7.065  -01 8.57   +00
 7.070  -01 9.23   +00
 7.070  -01 9.10   +00
 7.075  -01 8.30   +00
 7.075  -01 8.43   +00
 7.080  -01 7.96   +00
 7.085  -01 7.64   +00
 7.090  -01 8.08   +00
 7.095  -01 8.75   +00
 7.105  -01 8.04   +00
 7.110  -01 8.50   +00
 7.115  -01 9.45   +00
 7.120  -01 9.60   +00
 7.125  -01 9.05   +00
 7.130  -01 8.68   +00
 7.140  -01 8.01   +00
 7.150  -01 8.87   +00
 7.155  -01 9.62   +00
 7.160  -01 1.012  +01
 7.165  -01 9.25   +00
 7.175  -01 8.50   +00
 7.180  -01 7.58   +00
 7.190  -01 8.95   +00
 7.200  -01 8.63   +00
 7.200  -01 8.48   +00
 7.205  -01 7.79   +00
 7.210  -01 8.36   +00
 7.215  -01 9.19   +00
 7.220  -01 8.46   +00
 7.230  -01 7.60   +00
 7.235  -01 7.67   +00
 7.240  -01 8.33   +00
 7.245  -01 8.90   +00
 7.250  -01 8.09   +00
 7.260  -01 7.21   +00
 7.270  -01 7.08   +00
 7.275  -01 7.88   +00
 7.280  -01 8.21   +00
 7.285  -01 7.67   +00
 7.295  -01 6.85   +00
 7.300  -01 6.73   +00
 7.305  -01 7.52   +00
 7.310  -01 8.07   +00
 7.315  -01 7.25   +00
 7.320  -01 6.78   +00
 7.330  -01 6.32   +00
 7.340  -01 7.83   +00
 7.350  -01 6.15   +00
 7.360  -01 7.50   +00
 7.365  -01 7.17   +00
 7.370  -01 6.26   +00
 7.380  -01 6.36   +00
 7.390  -01 5.79   +00
 7.395  -01 6.05   +00
 7.400  -01 6.32   +00
 7.405  -01 6.70   +00
 7.410  -01 6.55   +00
 7.415  -01 5.95   +00
 7.420  -01 5.82   +00
 7.435  -01 5.41   +00
 7.440  -01 5.97   +00
 7.445  -01 5.55   +00
 7.450  -01 5.17   +00
 7.460  -01 4.95   +00
 7.470  -01 5.67   +00
 7.480  -01 4.56   +00
 7.490  -01 5.02   +00
 7.500  -01 5.44   +00
 7.505  -01 4.95   +00
 7.510  -01 4.61   +00
 7.520  -01 5.30   +00
 7.530  -01 4.47   +00
 7.540  -01 4.00   +00
 7.550  -01 4.11   +00
 7.560  -01 4.59   +00
 7.565  -01 4.95   +00
 7.570  -01 4.94   +00
 7.575  -01 4.39   +00
 7.580  -01 4.01   +00
 7.590  -01 3.95   +00
 7.595  -01 4.51   +00
 7.600  -01 4.69   +00
 7.605  -01 4.52   +00
 7.610  -01 3.83   +00
 7.625  -01 4.61   +00
 7.625  -01 4.50   +00
 7.630  -01 5.19   +00
 7.635  -01 4.53   +00
 7.640  -01 4.37   +00
 7.645  -01 4.25   +00
 7.650  -01 4.34   +00
 7.656  -01 4.71   +00
 7.660  -01 5.16   +00
 7.665  -01 6.21   +00
 7.665  -01 6.32   +00
 7.670  -01 6.47   +00
 7.675  -01 6.00   +00
 7.675  -01 5.84   +00
 7.680  -01 5.51   +00
 7.685  -01 6.29   +00
 7.690  -01 6.27   +00
 7.700  -01 5.56   +00
 7.710  -01 6.27   +00
 7.720  -01 6.88   +00
 7.730  -01 6.90   +00
 7.740  -01 6.50   +00
 7.750  -01 6.32   +00
 7.760  -01 6.37   +00
 7.770  -01 6.50   +00
 7.780  -01 7.06   +00
 7.790  -01 7.34   +00
 7.800  -01 6.97   +00
 7.800  -01 6.85   +00
 7.810  -01 6.56   +00
 7.820  -01 6.75   +00
 7.820  -01 7.01   +00
 7.830  -01 7.15   +00
 7.840  -01 6.37   +00
 7.850  -01 6.68   +00
 7.860  -01 7.56   +00
 7.865  -01 7.68   +00
 7.870  -01 7.30   +00
 7.880  -01 6.10   +00
 7.890  -01 6.45   +00
 7.900  -01 6.27   +00
 7.910  -01 6.95   +00
 7.920  -01 6.93   +00
 7.930  -01 5.97   +00
 7.940  -01 5.87   +00
 7.950  -01 6.12   +00
 7.960  -01 6.96   +00
 7.970  -01 5.60   +00
 7.980  -01 5.91   +00
 7.990  -01 6.71   +00
 8.000  -01 5.97   +00
 8.010  -01 6.28   +00
 8.020  -01 6.04   +00
 8.030  -01 5.46   +00
 8.040  -01 5.44   +00
 8.050  -01 5.69   +00
 8.060  -01 5.95   +00
 8.070  -01 5.91   +00
 8.080  -01 5.34   +00
 8.090  -01 5.52   +00
 8.100  -01 5.12   +00
 8.110  -01 4.88   +00
 8.120  -01 5.08   +00
 8.130  -01 5.89   +00
 8.140  -01 5.33   +00
 8.150  -01 4.94   +00
 8.160  -01 4.50   +00
 8.170  -01 4.60   +00
 8.180  -01 5.60   +00
 8.190  -01 4.85   +00
 8.200  -01 4.55   +00
 8.210  -01 5.60   +00
 8.220  -01 5.48   +00
 8.230  -01 4.36   +00
 8.240  -01 5.33   +00
 8.250  -01 4.46   +00
 8.260  -01 5.36   +00
 8.270  -01 4.39   +00
 8.280  -01 3.92   +00
 8.290  -01 4.28   +00
 8.300  -01 5.26   +00
 8.310  -01 4.53   +00
 8.320  -01 4.76   +00
 8.325  -01 5.08   +00
 8.330  -01 4.51   +00
 8.340  -01 4.14   +00
 8.350  -01 4.78   +00
 8.360  -01 4.05   +00
 8.370  -01 4.85   +00
 8.380  -01 3.83   +00
 8.390  -01 3.91   +00
 8.400  -01 4.56   +00
 8.410  -01 4.06   +00
 8.420  -01 3.95   +00
 8.430  -01 4.15   +00
 8.440  -01 4.72   +00
 8.450  -01 3.88   +00
 8.460  -01 3.44   +00
 8.470  -01 3.62   +00
 8.480  -01 4.18   +00
 8.490  -01 3.39   +00
 8.500  -01 3.64   +00
 8.510  -01 4.11   +00
 8.520  -01 4.17   +00
 8.530  -01 3.96   +00
 8.540  -01 3.46   +00
 8.550  -01 4.03   +00
 8.560  -01 3.25   +00
 8.570  -01 4.32   +00
 8.580  -01 4.30   +00
 8.590  -01 3.88   +00
 8.600  -01 3.34   +00
ENDDATA            323
ENDSUBENT          330
SUBENT        11414004   19820813              20050926       0000
BIB                  1          4
REACTION  1(11-NA-23(N,0),,EN)
          2(11-NA-23(N,0),,J)
          3(11-NA-23(N,0),,L)
          4(11-NA-23(N,TOT),,WID)
ENDBIB               4
NOCOMMON             0          0
DATA                 4         73
DATA      1DATA      2DATA      3DATA      4
KEV        NO-DIM     NO-DIM     KEV
 629.8      3.         2.         1.80
 632.9      2.         3.         1.00
 634.8      2.         3.         1.20
 638.0      3.         2.         2.20
 642.2      2.         3.         1.70
 645.1      2.         3.         1.40
 647.9      3.         3.         1.20
 651.5      3.         3.         1.90
 655.6      3.         2.         2.30
 658.1      3.         3.         1.60
 661.4      3.         2.         2.30
 665.8      4.         2.         2.00
 669.3      2.         2.         2.40
 672.0      3.         2.         1.80
 674.1      2.         2.         2.80
 676.6      3.         2.         2.60
 679.7      2.         2.         2.10
 682.4      4.         3.         1.70
 685.6      6.         4.         1.90
 688.8      6.         4.         1.70
 692.4      5.         4.         2.60
 696.5      4.         2.         3.40
 700.3      5.         3.         4.10
 703.3      4.         2.         2.50
 707.3      6.         4.         1.80
 709.5      6.         5.         1.60
 712.1      6.         4.         2.40
 716.0      7.         5.         3.00
 719.3      4.         3.         2.30
 721.6      6.         5.         2.20
 724.8      6.         4.         2.70
 727.9      4.         3.         2.70
 731.0      6.         4.         2.10
 734.0      6.         5.         1.70
 736.8      4.         2.         2.50
 740.5      5.         3.         3.00
 744.2      2.         2.         2.50
 747.0      3.         2.         2.50
 749.8      2.         2.         2.60
 752.4      1.         2.         2.20
 756.3      3.         2.         3.40
 759.8      1.         2.         1.90
 763.4      3.         2.         2.00
 766.7      5.         4.         1.80
 768.6      3.         2.         1.90
 773.3      5.         3.         3.20
 776.0      1.         2.         1.30
 778.2      5.         3.         2.90
 782.4      3.         2.         3.60
 786.3      6.         4.         2.60
 789.2      1.         2.         2.10
 792.4      5.         3.         2.90
 795.8      5.         4.         2.10
 798.7      5.         3.         2.40
 801.0      3.         2.         2.00
 802.7      1.         2.         2.10
 806.9      4.         2.         3.40
 809.0      1.         2.         2.20
 812.6      4.         2.         4.00
 818.0      2.         3.         2.00
 821.0      4.         3.         2.00
 824.0      3.         3.         2.00
 826.4      2.         3.         2.20
 830.1      4.         3.         2.10
 832.5      3.         3.         1.50
 835.0      2.         2.         2.30
 836.8      2.         3.         1.50
 841.2      3.         3.         2.20
 843.8      4.         3.         1.70
 847.7      3.         3.         2.30
 852.0      2.         2.         2.80
 854.5      1.         2.         2.60
 857.5      2.         2.         3.00
ENDDATA             75
ENDSUBENT           84
ENDENTRY             4
