ENTRY            C0635   20000510   20000621
SUBENT        C0635001   20000510   20000621
BIB                  9         12
INSTITUTE  (1USAGEO) + Armstrong College, Savannah, GA.
REFERENCE  (J,NP/A,357,9,1981)
AUTHOR     (A.SCOTT,F.T.BAKER,W.G.LOVE,J.D.WIGGINS JR,M.L.WHITEN)
TITLE      Comparison of the 92Mo(p,p') and 90Zr(p,p') reactions
            at 61.2 MeV
FACILITY   (ISOCY,1USAORL)
DETECTOR   (TRD) Ilford emulsions on image surface of broad-range
            spectrograph.
ERR-ANALYS (DATA-ERR) No information on source of uncertainties.
STATUS     (APRVD) Approved by F.T. Baker, 8 May 2000
           Tabulated data received from F.T.Baker, 7 April 2000.
HISTORY    (20000417C) VM
ENDBIB              12
COMMON               1          3
EN
MEV
 61.2
ENDCOMMON            3
ENDSUBENT           19
SUBENT        C0635002   20000510   20000621
BIB                  3          9
REACTION   (42-MO-92(P,INL)42-MO-92,PAR,DA)
SAMPLE     Target enriched to 98.27% 92Mo. Areal density 5.45
            mg/cm2.
LEVEL-PROP (42-MO-92,E-LVL=1.51,SPIN=2.,PARITY=+1.)
           (42-MO-92,E-LVL=2.28,SPIN=4.,PARITY=+1.)
           (42-MO-92,E-LVL=2.53,SPIN=5.,PARITY=-1.)
           (42-MO-92,E-LVL=2.61,SPIN=6.,PARITY=+1.)
           (42-MO-92,E-LVL=2.76,SPIN=8.,PARITY=+1.)
           (42-MO-92,E-LVL=2.85,SPIN=3.,PARITY=-1.)
ENDBIB               9
NOCOMMON             0          0
DATA                 4        193
E-LVL      ANG-CM     DATA-CM    DATA-ERR
MEV        ADEG       MB/SR      MB/SR
  1.51      16.2        6.27       0.21
  1.51      18.2        5.98       0.20
  1.51      19.2        5.29       0.12
  1.51      20.2        4.82       0.14
  1.51      22.2        3.53       0.09
  1.51      24.3        2.37       0.07
  1.51      26.3        1.27       0.05
  1.51      28.3        0.735      0.033
  1.51      30.3        0.707      0.032
  1.51      32.3        1.11       0.07
  1.51      34.4        1.41       0.08
  1.51      36.4        1.42       0.05
  1.51      38.4        1.38       0.04
  1.51      40.4        1.098      0.039
  1.51      42.4        0.810      0.020
  1.51      44.4        0.559      0.012
  1.51      46.5        0.339      0.012
  1.51      48.5        0.325      0.008
  1.51      50.5        0.338      0.011
  1.51      52.5        0.379      0.016
  1.51      53.5        0.418      0.012
  1.51      56.5        0.420      0.012
  1.51      58.5        0.354      0.007
  1.51      60.5        0.298      0.039
  1.51      63.1        0.185      0.007
  1.51      65.6        0.1228     0.0036
  1.51      68.1        0.1017     0.0051
  1.51      70.6        0.1175     0.0034
  1.51      73.1        0.1194     0.0034
  1.51      76.1        0.1079     0.0033
  1.51      78.1        0.0919     0.0047
  1.51      83.1        0.0459     0.0032
  1.51      88.1        0.0223     0.0013
  1.51      93.1        0.0324     0.0055
  2.28      15.2        0.806      0.035
  2.28      16.2        0.992      0.091
  2.28      17.2        0.905      0.036
  2.28      18.2        1.187      0.085
  2.28      19.2        1.072      0.037
  2.28      20.2        1.126      0.037
  2.28      22.2        1.121      0.037
  2.28      24.3        1.250      0.042
  2.28      26.3        1.294      0.045
  2.28      28.3        1.156      0.043
  2.28      30.3        1.120      0.042
  2.28      32.3        0.899      0.036
  2.28      34.3        0.745      0.025
  2.28      36.4        0.565      0.021
  2.28      38.4        0.426      0.018
  2.28      40.4        0.320      0.009
  2.28      42.4        0.270      0.016
  2.28      44.4        0.254      0.007
  2.28      46.5        0.206      0.009
  2.28      48.5        0.219      0.006
  2.28      50.5        0.183      0.012
  2.28      52.5        0.168      0.008
  2.28      53.5        0.152      0.006
  2.28      54.5        0.141      0.006
  2.28      56.5        0.101      0.005
  2.28      58.5        0.0770     0.0027
  2.28      60.5        0.0703     0.0042
  2.28      63.1        0.0576     0.0036
  2.28      65.6        0.0535     0.0025
  2.28      68.1        0.0540     0.0036
  2.28      70.6        0.0439     0.0019
  2.28      73.1        0.0312     0.0016
  2.28      75.6        0.0221     0.0013
  2.28      78.1        0.0184     0.0012
  2.28      83.1        0.0106     0.0015
  2.28      88.1        0.0092     0.00085
  2.28      93.1        0.0122     0.0016
  2.28      95.6        0.00722    0.00104
  2.53      15.2        0.573      0.054
  2.53      16.2        0.663      0.074
  2.53      17.2        0.657      0.038
  2.53      18.2        0.830      0.068
  2.53      19.2        0.741      0.030
  2.53      20.2        0.877      0.028
  2.53      22.2        0.865      0.036
  2.53      24.3        0.901      0.041
  2.53      25.3        0.848      0.040
  2.53      26.3        1.013      0.042
  2.53      28.3        0.998      0.042
  2.53      30.3        1.065      0.041
  2.53      32.3        1.089      0.043
  2.53      34.4        0.995      0.035
  2.53      36.4        0.990      0.032
  2.53      38.4        0.853      0.031
  2.53      40.4        0.699      0.019
  2.53      42.4        0.588      0.016
  2.53      44.4        0.491      0.021
  2.53      46.5        0.322      0.022
  2.53      48.5        0.280      0.008
  2.53      50.5        0.216      0.012
  2.53      52.5        0.187      0.010
  2.53      53.5        0.172      0.009
  2.53      54.5        0.153      0.009
  2.53      56.5        0.139      0.008
  2.53      58.5        0.110      0.004
  2.53      60.6        0.0992     0.0061
  2.53      63.1        0.0811     0.0051
  2.53      65.6        0.0505     0.0028
  2.53      68.1        0.0523     0.0041
  2.53      70.6        0.0527     0.0025
  2.53      73.1        0.0444     0.0022
  2.53      75.6        0.0452     0.0020
  2.53      78.1        0.0445     0.0033
  2.53      83.1        0.0310     0.0029
  2.53      88.1        0.0099     0.0009
  2.53      93.1        0.0073     0.0012
  2.53      95.6        0.0032     0.0007
  2.61      15.2        0.018      0.012
  2.61      16.2        0.094      0.047
  2.61      17.2        0.0807     0.0176
  2.61      18.2        0.177      0.049
  2.61      19.2        0.0754     0.0129
  2.61      20.2        0.0726     0.0119
  2.61      22.2        0.0635     0.0216
  2.61      24.3        0.145      0.026
  2.61      25.3        0.114      0.013
  2.61      28.3        0.0928     0.0137
  2.61      30.3        0.131      0.011
  2.61      32.3        0.104      0.011
  2.61      34.4        0.150      0.012
  2.61      36.4        0.126      0.009
  2.61      38.4        0.150      0.010
  2.61      40.4        0.149      0.008
  2.61      42.4        0.148      0.008
  2.61      44.4        0.159      0.009
  2.61      46.5        0.121      0.016
  2.61      48.5        0.0979     0.0051
  2.61      50.5        0.0779     0.0088
  2.61      52.5        0.0727     0.0073
  2.61      53.5        0.0794     0.0064
  2.61      54.5        0.0710     0.0071
  2.61      56.5        0.0524     0.0055
  2.61      58.5        0.0407     0.0025
  2.61      60.6        0.0237     0.0037
  2.61      63.1        0.0205     0.0031
  2.61      65.6        0.0132     0.0015
  2.61      68.1        0.0140     0.0030
  2.61      70.6        0.00783    0.00124
  2.61      73.1        0.00494    0.00093
  2.61      75.6        0.00480    0.00099
  2.61      78.1        0.00444    0.00121
  2.61      83.1        0.00639    0.00171
  2.61      88.1        0.00230    0.00052
  2.61      93.1        0.0016     0.0007
  2.61      95.6        0.00083    0.00042
  2.76      44.4        0.0364     0.0065
  2.76      48.5        0.0352     0.0059
  2.76      52.5        0.0219     0.0035
  2.76      53.5        0.0298     0.0038
  2.76      58.5        0.0254     0.0033
  2.76      60.6        0.0269     0.0051
  2.76      63.1        0.0203     0.0049
  2.76      65.6        0.0280     0.0030
  2.76      68.1        0.0244     0.0033
  2.76      70.6        0.0198     0.0017
  2.76      73.1        0.0144     0.0018
  2.76      75.6        0.0082     0.0011
  2.76      78.1        0.0066     0.0022
  2.76      83.1        0.0014     0.0011
  2.76      88.1        0.0011     0.0003
  2.76      93.1        0.0010     0.0007
  2.76      95.6        0.00069    0.00034
  2.85      16.18      11.66       0.32
  2.85      18.20      11.82       0.32
  2.85      20.22      10.81       0.57
  2.85      30.32       3.799      0.098
  2.85      32.34       2.528      0.072
  2.85      34.36       1.874      0.049
  2.85      36.38       1.564      0.043
  2.85      38.40       1.660      0.045
  2.85      40.41       1.758      0.045
  2.85      42.43       1.941      0.049
  2.85      48.48       1.285      0.032
  2.85      50.49       0.9521     0.0242
  2.85      52.51       0.7285     0.0195
  2.85      54.52       0.5566     0.0157
  2.85      56.53       0.4783     0.0178
  2.85      58.55       0.5213     0.0181
  2.85      60.56       0.5698     0.0168
  2.85      63.07       0.4995     0.0146
  2.85      65.58       0.4070     0.0152
  2.85      68.10       0.3049     0.0109
  2.85      70.60       0.2118     0.0083
  2.85      73.11       0.1510     0.0066
  2.85      75.62       0.1552     0.0066
  2.85      78.13       0.1549     0.0068
  2.85      83.14       0.1546     0.0064
  2.85      88.14       0.09803    0.00491
  2.85      93.14       0.03419    0.00272
ENDDATA            195
ENDSUBENT          209
ENDENTRY             2
