ENTRY            O0107     950523           D
SUBENT        O0107001     950523                     D       0000
BIB                 11         18
TITLE      MASS OF ZN-59.
AUTHOR     (B.SHERRILL,K.BEARD,W.BENENSON,B.A.BROWN,E.KASHY,
           W.E.ORMAND,H.NANN,J.J.KEHAYIAS,A.D.BACHER,T.E.WARD)
INSTITUTE  (1USAMSU)
           (1USAINU)
REFERENCE  (J,PR/C,28,1712,83)
HISTORY    (950519C)
           (950904A). DATA-SECTION OF SUBENT 2 HAVE BEEN CHANGED.
           (950906U). LAST CHECKING HAS BEEN DONE.
SAMPLE     NI-58,THICKNESS 28.5 MG/CM**2,WAS USED.
ADD-RES    MASS OF ZN-59 WAS MEASURED. CALCULATED FT VALUES.
           STUDIED COULOMB ENERGY SYSTEMATICS.
DETECTOR   (MAGSP)
FACILITY   (CYCLO,1USAINU).THE QQSP SPECTROMETER SET AT 30 DEG
           WAS USED TO DETERMINED THE OUTGOING PION KINETIC
           ENERGY.
METHOD     (TOF,EDE,BCINT)
PART-DET   (PIN)
ENDBIB              18
COMMON               2          3
EN         ANG
MEV        ADEG
      190.8        30.
ENDCOMMON            3
ENDSUBENT           25
SUBENT        O0107002     950523              20050926       0000
BIB                  6         17
REACTION   (28-NI-58(P,PIN)30-ZN-59,IND,DA/DE,,REL,EXP)
EN-SEC     (E-EXC,30-ZN-59)
           (Q-VAL,30-ZN-59)
           (E-LVL,30-ZN-59)
ERR-ANALYS (Q-VAL-ERR).THE UNCERTAINTY IS REPORTED BY AUTHORS.
           (E-EXC-ERR). DATA-POINT READER UNCERTAINTY.
           INTERPOLATION UNCERTAINTY IS NOT INCLUDED.
MISC-COL   (MISC). AUTHORS DATA FOR POSITION (CHANNEL NUMBER).
STATUS     (CURVE).BY CAJAD.FROM FIG.2.
COMMENT    /BY AUTHORS/.THE Q-VALUE FOR THE NI-58(P,PIN)ZN-59
           REACTION WAS MEASURED TO BE Q=-144.735(40) MEV,WHICH
           GIVES A MASS EXCESS OF ME(ZN-59)=-47.256(40) MEV.
           * BY COMPILER * AUTHORS DATA FOR POSITION WERE
           RECALCULATED ACCORDING TO FORMULAE
           E-EXC = -0.039417*POSITION+6.251488
           THIS FORMULAE HAVE BEEN PRODUCED BY THE LEAST SQUARES
           METHOD.
ENDBIB              17
COMMON               4          3
Q-VAL      Q-VAL-ERR  E-EXC-ERR  DATA-ERR
MEV        MEV        MEV        ARB-UNITS
   -144.735      0.040      0.016       0.05
ENDCOMMON            3
DATA                 4        320
E-EXC      DATA       E-LVL      MISC
MEV        ARB-UNITS  MEV        NO-DIM
    6.23178    9.92000               0.50000
    6.22784    8.32000               0.60000
    6.22390    5.44000               0.70000
    6.21995    6.72000               0.80000
    6.20813    4.16000               1.10000
    6.20419    2.75000               1.20000
    6.16871    4.03000               2.10000
    6.16083    2.56000               2.30000
    6.15689    1.16000               2.40000
    6.10565    2.88000               3.70000
    6.10170    2.12000               3.80000
    6.09776    3.72000               3.90000
    6.09382    2.89000               4.00000
    6.07411    5.13000               4.50000
    5.98345    7.05000               6.80000
    5.97951    5.45000               6.90000
    5.97557    5.13000               7.00000
    5.97163    4.49000               7.10000
    5.96769    4.04000               7.20000
    5.92827    8.97000               8.20000
    5.91250    7.05000               8.60000
    5.90068   11.08000               8.90000
    5.88885    8.65000               9.20000
    5.88097    7.05000               9.40000
    5.87703    6.09000               9.50000
    5.87308    5.13000               9.60000
    5.82184    4.49000              10.90000
    5.81396    5.01000              11.10000
    5.81002    4.05000              11.20000
    5.77848    6.00000              12.00000
    5.77060    4.05000              12.20000
    5.72330    5.14000              13.40000
    5.71936    6.10000              13.50000
    5.71148    7.06000              13.70000
    5.67994    6.10000              14.50000
    5.67600    5.14000              14.60000
    5.67206    5.14000              14.70000
    5.66812    4.05000              14.80000
    5.66417    3.09000              14.90000
    5.60505    2.90000              16.40000
    5.59322    2.13000              16.70000
    5.58140    6.97000              17.00000
    5.57746    5.46000              17.10000
    5.56957    3.86000              17.30000
    5.56169    2.10000              17.50000
    5.51833    5.98000              18.60000
    5.51439    4.70000              18.70000
    5.51045    4.06000              18.80000
    5.47497    5.02000              19.70000
    5.41585    5.02000              21.20000
    5.40796    3.87000              21.40000
    5.40402    3.23000              21.50000
    5.40008    2.14000              21.60000
    5.36461    2.91000              22.50000
    5.30548    3.10000              24.00000
    5.27000    3.87000              24.90000
    5.21088    3.88000              26.40000
    5.19905    3.43000              26.70000
    5.18723    0.68000              27.00000
    5.16752    2.92000              27.50000
    5.16358    1.96000              27.60000
    5.15964    1.51000              27.70000
    5.12416    5.16000              28.60000
    5.11628    3.11000              28.80000
    5.08869    8.04000              29.50000
    5.08080    6.44000              29.70000
    5.07686    5.38000              29.80000
    5.07292    4.07000              29.90000
    5.06504    2.92000              30.10000
    5.06109    2.15000              30.20000
    5.00197    1.96000              31.70000
    4.99014    1.00000              32.00000
    4.95861    1.32000              32.80000
    4.95467       0.04              32.90000
    4.89948    0.91000              34.30000
    4.89554    0.27000              34.40000
    4.87189    3.89000              35.00000
    4.86795    2.80000              35.10000
    4.86401    1.97000              35.20000
    4.86007    1.01000              35.30000
    4.85218    1.65000              35.50000
    4.81671    2.48000              36.40000
    4.80883    3.12000              36.60000
    4.80094    1.01000              36.80000
    4.76547    1.97000              37.70000
    4.76153    1.97000              37.80000
    4.75758    1.01000              37.90000
    4.70634    2.93000              39.20000
    4.66692    2.93000              40.20000
    4.62357    7.09000              41.30000
    4.58415    7.10000              42.30000
    4.58021    6.14000              42.40000
    4.52108    6.01000              43.90000
    4.51714    5.18000              44.00000
    4.51320    4.09000              44.10000
    4.47378    3.90000              45.10000
    4.46984    3.45000              45.20000
    4.46590    2.94000              45.30000
    4.40677    2.94000              46.80000
    4.40283    1.98000              46.90000
    4.30429    1.99000              49.40000
    4.26881    2.95000              50.30000
    4.26487    2.50000              50.40000
    4.21757    2.95000              51.60000
    4.20180    1.03000              52.00000
    4.17027    2.95000              52.80000
    4.12297    3.59000              54.00000
    4.11114    3.91000              54.30000
    4.07567    4.55000              55.20000
    4.01654    5.07000              56.70000
    4.00078    1.04000              57.10000
    3.97319    4.11000              57.80000
    3.96136    1.04000              58.10000
    3.94165    8.08000              58.60000
    3.92983    5.20000              58.90000
    3.84705    5.20000              61.00000
    3.82340    4.11000              61.60000
    3.80369    2.00000              62.10000
    3.77216    3.92000              62.90000
    3.76428    2.00000              63.10000
    3.72092    5.94000              64.20000
    3.68150    6.04000              65.20000
    3.66967    2.97000              65.50000
    3.61843    5.08000              66.80000
    3.61055    3.16000              67.00000
    3.57902    5.08000              67.80000
    3.57113    3.13000              68.00000
    3.51201    2.97000              69.50000
    3.50806    6.04000              69.60000
    3.48047    5.85000              70.30000
    3.46865    2.97000              70.60000
    3.43317    1.22000              71.50000
    3.42135    2.98000              71.80000
    3.40952    2.85000              72.10000
    3.40558    2.02000              72.20000
    3.37011    2.53000              73.10000
    3.31886    4.90000              74.40000
    3.31492    3.94000              74.50000
    3.31098    2.02000              74.60000
    3.30704    2.98000              74.70000
    3.28339    6.05000              75.30000
    3.27945    5.86000              75.40000
    3.27550    5.09000              75.50000
    3.27156    4.90000              75.60000
    3.21638    3.94000              77.00000
    3.18090    4.90000              77.90000
    3.17696    5.10000              78.00000
    3.17302    3.18000              78.10000
    3.13755    7.02000              79.00000
    3.12966    7.02000              79.20000
    3.12178    5.10000              79.40000
    3.10995    3.18000              79.70000
    3.07054    2.99000              80.70000
    3.06659    2.03000              80.80000
    3.02324    5.87000              81.90000
    3.01535    4.27000              82.10000
    3.01141    2.99000              82.20000
    2.99170    7.98000              82.70000
    2.98776    7.02000              82.80000
    2.98382    5.87000              82.90000
    2.93652    8.94000              84.10000
    2.92469    8.11000              84.40000
    2.89710    8.94000              85.10000
    2.89316    7.99000              85.20000
    2.88922    7.47000              85.30000
    2.88528    7.06000              85.40000
    2.83798    7.06000              86.60000
    2.81038   11.96000              87.30000
    2.79856    9.72000              87.60000
    2.79462    8.12000              87.70000
    2.74732   11.00000              88.90000
    2.72761   16.12000              89.40000
    2.72367   16.02000              89.50000
    2.70396   11.00000              90.00000
    2.68819    7.16000              90.40000
    2.68425    7.16000              90.50000
    2.64877   11.96000              91.40000
    2.62118    5.24000              92.10000
    2.60936   11.96000              92.40000
    2.58177    5.24000              93.10000
    2.56994   26.04000    2.68000   93.40000
    2.51081   26.05000              94.90000
    2.50687   11.01000              95.00000
    2.50293   10.05000              95.10000
    2.49505    8.32000              95.30000
    2.43986    9.92000              96.70000
    2.42016    5.25000              97.20000
    2.39256    8.00000              97.90000
    2.38074    4.93000              98.20000
    2.37286    3.01000              98.40000
    2.31373    3.01000              99.90000
    2.28220    5.13000             100.70000
    2.27825    3.97000             100.80000
    2.21913    3.98000             102.30000
    2.20336    1.10000             102.70000
    2.19548    1.10000             102.90000
    2.17971    4.94000             103.30000
    2.17183    3.02000             103.50000
    2.16789    2.92000             103.60000
    2.12059    5.10000             104.80000
    2.07329    3.02000             106.00000
    1.97474    3.02000             108.50000
    1.97080    2.06000             108.60000
    1.91168    2.07000             110.10000
    1.90773    2.93000             110.20000
    1.87620    3.89000             111.00000
    1.87226    3.03000             111.10000
    1.82890    3.99000             112.20000
    1.82496    5.81000             112.30000
    1.78554    5.91000             113.30000
    1.77766    3.99000             113.50000
    1.77372    3.67000             113.60000
    1.76978    3.03000             113.70000
    1.71853    3.99000             115.00000
    1.71459    3.03000             115.10000
    1.68700    5.91000             115.80000
    1.68306    5.91000             115.90000
    1.62393    4.96000             117.40000
    1.61605    4.96000             117.60000
    1.61211    4.19000             117.70000
    1.58452    4.96000             118.40000
    1.58057    4.19000             118.50000
    1.54510    9.95000             119.40000
    1.51751    4.00000             120.10000
    1.50568    9.95000             120.40000
    1.48597    6.11000             120.90000
    1.44261   19.04000    1.32000  122.00000
    1.42685   15.20000             122.40000
    1.36772   16.00000             123.90000
    1.32830   16.04000             124.90000
    1.30465   10.09000             125.50000
    1.27706   15.21000             126.20000
    1.25735   15.05000             126.70000
    1.21400   12.01000             127.80000
    1.20611   10.09000             128.00000
    1.20217    9.00000             128.10000
    1.17064    2.09000             128.90000
    1.15093    8.81000             129.40000
    1.10757    1.01000             130.50000
    1.06421    0.17000             131.60000
    1.02479    4.98000             132.60000
    1.00114    2.10000             133.20000
    0.98538    4.88000             133.60000
    0.97749    2.93000             133.80000
    0.87501    3.06000             136.40000
    0.87107    2.10000             136.50000
    0.81588    2.74000             137.90000
    0.78041    4.02000             138.80000
    0.76464    0.06000             139.20000
    0.72128    2.11000             140.30000
    0.70552    0.19000             140.70000
    0.68187    4.03000             141.30000
    0.67398    2.11000             141.50000
    0.66610       0.06             141.70000
    0.62274    4.03000             142.80000
    0.61486    2.94000             143.00000
    0.60303       0.06             143.30000
    0.51631    2.95000             145.50000
    0.51237    2.11000             145.60000
    0.41777    2.95000             148.00000
    0.41383    2.12000             148.10000
    0.37441    2.12000             149.10000
    0.31529    2.95000             150.60000
    0.28770    5.00000             151.30000
    0.27193    1.80000             151.70000
    0.26799    1.03000             151.80000
    0.26405    0.20000             151.90000
    0.21280    2.00000             153.20000
    0.20886    1.07000             153.30000
    0.18521    4.91000             153.90000
    0.17339    2.12000             154.20000
    0.13003    5.84000             155.30000
    0.12609    5.01000             155.40000
    0.09455    6.93000             156.20000
    0.09061    5.97000             156.30000
    0.08273    4.05000             156.50000
    0.03149    4.05000             157.80000
   -0.00005    8.05000    0.00000  158.60000
   -0.00399    7.12000             158.70000
   -0.01187    5.20000             158.90000
   -0.08282    5.01000             160.70000
   -0.08677    3.09000             160.80000
   -0.11830    3.93000             161.60000
   -0.12224    2.97000             161.70000
   -0.13407    0.22000             162.00000
   -0.22078    2.97000             164.20000
   -0.23261    0.22000             164.50000
   -0.27991    2.97000             165.70000
   -0.28385    1.18000             165.80000
   -0.33115    0.86000             167.00000
   -0.39028    1.06000             168.50000
   -0.39422    0.22000             168.60000
   -0.42969    0.87000             169.50000
   -0.52035    2.98000             171.80000
   -0.52824    0.87000             172.00000
   -0.53218    0.13000             172.10000
   -0.59130    0.23000             173.60000
   -0.61890    2.98000             174.30000
   -0.62284    2.15000             174.40000
   -0.69379    1.83000             176.20000
   -0.69773    0.11000             176.30000
   -0.89481    0.8E-01             181.30000
   -0.93029    0.88000             182.20000
   -0.98153    0.12000             183.50000
   -1.03277    0.7E-01             184.80000
   -1.08402    1.85000             186.10000
   -1.09190    0.7E-01             186.30000
   -1.12343    1.85000             187.10000
   -1.18256    0.7E-01             188.60000
   -1.22592    1.85000             189.70000
   -1.22986    0.12000             189.80000
   -1.28110    2.17000             191.10000
   -1.32052    2.82000             192.10000
   -1.39147    0.13000             193.90000
   -1.41906    2.82000             194.60000
   -1.42694    0.16000             194.80000
   -1.43089    0.6E-01             194.90000
   -1.48607    0.90000             196.30000
   -1.52549    0.90000             197.30000
   -1.58067    0.14000             198.70000
ENDDATA            322
ENDSUBENT          348
SUBENT        O0107003     950523              20050926       0000
BIB                  3          5
REACTION   (28-NI-58(P,PIN)30-ZN-59,PAR,DA,,,EXP)
           DATA FROM FIGURE 3.
EN-SEC     (E-LVL,30-ZN-59)
ERR-ANALYS (DATA-ERR).THE UNCERTAINTY IS REPORTED BY AUTHORS.
           (E-LVL-ERR).THE UNCERTAINTY IS REPORTED BY AUTHORS.
ENDBIB               5
NOCOMMON             0          0
DATA                 4          6
E-LVL      E-LVL-ERR  DATA       DATA-ERR
MEV        MEV        NB/SR      NB/SR
       0.00                  0.08       0.02
       0.54       0.05       0.03       0.02
       0.90       0.05       0.04       0.02
       1.32       0.05       0.21       0.02
       1.74       0.06       0.06       0.02
       2.68       0.08       0.29       0.02
ENDDATA              8
ENDSUBENT           18
ENDENTRY             3
