ENTRY            D1018   20220918   20230116   20230116       D137
SUBENT        D1018001   20220918   20230116   20230116       D137
BIB                 10         16
TITLE      Energy levels of 19F from 16O(d,d) 16O
AUTHOR     (F.Machali,Z.A.Saleh,A.T.Baranik,F.Asfour,I.Bondouk,
           V.E.Storizhko)
INSTITUTE  (3EGYCAI)
REFERENCE  (J,ADP,21,1,1968)
FACILITY   (VDG,3EGYCAI)
DETECTOR   (SOLST) Four semiconductor ORTEC counters
SAMPLE     Thin layers of Be0 or SiO, on silver backings were
           used as targets. A typical l60 target was 15 keV
           thick for 1 MeV deuterons.
MONITOR    (47-AG-108(A,EL)47-AG-108,,DA,,RTH)
ERR-ANALYS Statistical errors in the number of counts considered
           as negligible.
           (DATA-ERR) The combined uncertainties are estimated
           to yield a probable error of 5%.
HISTORY    (20220918C) VS
ENDBIB              16
COMMON               2          3
EN-RSL     DATA-ERR
KEV        PER-CENT
        2.5         5.
ENDCOMMON            3
ENDSUBENT           23
SUBENT        D1018002   20220918   20230116   20230116       D137
BIB                  2          2
REACTION   (8-O-16(D,EL)8-O-16,,DA,,RTH)
STATUS     (CURVE) Fig.6 of Annalen der Phys. 21(1968)1
ENDBIB               2
NOCOMMON             0          0
DATA                 3        530
ANG        EN         DATA
ADEG       KEV        NO-DIM
      59.80     1172.0      0.911
      59.80     1210.0      0.996
      59.80     1228.0      0.913
      59.80     1250.0      0.976
      59.80     1271.0      1.029
      59.80     1283.0      0.893
      59.80     1315.0      1.019
      59.80     1344.0      1.072
      59.80     1365.0      1.053
      59.80     1386.0      1.147
      59.80     1407.0       0.96
      59.80     1433.0      0.961
      59.80     1452.0      1.065
      59.80     1475.0      0.993
      59.80     1487.0      1.182
      59.80     1500.0      1.077
      59.80     1523.0       1.11
      59.80     1540.0      1.099
      59.80     1559.0      1.079
      59.80     1578.0      1.027
      59.80     1601.0       1.07
      59.80     1616.0      1.101
      59.80     1641.0       1.05
      59.80     1660.0       1.01
      59.80     1683.0      1.072
      59.80     1700.0      1.031
      59.80     1717.0        1.0
      59.80     1738.0      0.939
      59.80     1763.0       0.95
      59.80     1784.0      0.898
      59.80     1799.0      0.941
      59.80     1816.0      0.899
      59.80     1843.0      0.858
      59.80     1862.0      0.943
      59.80     1883.0      0.953
      59.80     1902.0      0.902
      59.80     1919.0      0.996
      59.80     1944.0      1.018
      59.80     1963.0      1.019
      59.80     1978.0      0.967
      59.80     2001.0       1.03
      59.80     2024.0      0.948
      59.80     2045.0      0.969
      59.80     2062.0      1.042
      59.80     2085.0      1.011
      59.80     2102.0      1.033
      59.80     2121.0      1.075
      59.80     2138.0      1.107
      59.80     2157.0      1.055
      59.80     2178.0      1.077
      79.90     1020.0       0.99
      79.90     1043.0      1.053
      79.90     1058.0      1.073
      79.90     1075.0      1.003
      79.90     1098.0      1.034
      79.90     1102.0      0.932
      79.90     1138.0      0.923
      79.90     1155.0      1.056
      79.90     1175.0      1.058
      79.90     1198.0      1.058
      79.90     1218.0      0.947
      79.90     1234.0       1.07
      79.90     1251.0       1.01
      79.90     1278.0       1.02
      79.90     1299.0      1.011
      79.90     1316.0       0.94
      79.90     1343.0      0.942
      79.90     1371.0      0.942
      79.90     1413.0      0.913
      79.90     1432.0      0.985
      79.90     1472.0      0.884
      79.90     1495.0      0.926
      79.90     1521.0      0.876
      79.90     1556.0      0.887
      79.90     1578.0      0.858
      79.90     1618.0       0.89
      79.90     1641.0      0.932
      79.90     1660.0      0.871
      79.90     1712.0      0.843
      79.90     1734.0      0.792
      79.90     1759.0      0.804
      79.90     1782.0      0.753
      79.90     1812.0      0.734
      79.90     1837.0      0.775
      79.90     1862.0      0.879
      79.90     1879.0       0.94
      79.90     1939.0      1.035
      79.90     1956.0      0.994
      79.90     1981.0      1.066
      79.90     1994.0      1.006
      79.90     2040.0      0.977
      79.90     2076.0      1.019
      79.90     2114.0       1.03
      79.90     2139.0      1.021
      79.90     2156.0      1.134
      89.80     1015.0      0.936
      89.80     1038.0      0.863
      89.80     1074.0      1.003
      89.80     1089.0       0.94
      89.80     1114.0      1.069
      89.80     1156.0      1.028
      89.80     1183.0      1.007
      89.80     1194.0      0.902
      89.80     1240.0      0.925
      89.80     1249.0       1.02
      89.80     1272.0      1.021
      89.80     1312.0      1.001
      89.80     1350.0      0.992
      89.80     1373.0      1.004
      89.80     1392.0      0.887
      89.80     1411.0      0.983
      89.80     1447.0      0.964
      89.80     1466.0       0.88
      89.80     1508.0      0.871
      89.80     1533.0      0.988
      89.80     1552.0      0.968
      89.80     1576.0      0.905
      89.80     1595.0      0.981
      89.80     1609.0      0.842
      89.80     1628.0      0.907
      89.80     1654.0      0.865
      89.80     1672.0      0.983
      89.80     1696.0      0.771
      89.80     1716.0      0.814
      89.80     1730.0      0.624
      89.80     1748.0      0.784
      89.80     1772.0        0.7
      89.80     1792.0      0.828
      89.80     1804.0      0.966
      89.80     1815.0      1.127
      89.80     1834.0      1.032
      89.80     1874.0      1.278
      89.80     1895.0      1.289
      89.80     1912.0      1.195
      89.80     1935.0      1.195
      89.80     1958.0        1.1
      89.80     1975.0      1.069
      89.80     2030.0      1.093
      89.80     2053.0      0.955
      89.80     2072.0      1.008
      89.80     2100.0      0.978
      89.80     2108.0      1.095
      89.80     2135.0       0.98
      89.80     2152.0      1.033
      89.80     2173.0      1.077
      89.80     2192.0      1.024
      89.80     2265.0      0.995
      89.80     2316.0      0.922
      89.80     2347.0      0.892
      89.80     2371.0       0.85
      89.80     2390.0      0.809
      99.93     1038.0      0.971
      99.93     1055.0      1.053
      99.93     1070.0      0.942
      99.93     1095.0      0.993
      99.93     1116.0      0.984
      99.93     1137.0      1.005
      99.93     1156.0      0.873
      99.93     1175.0      1.017
      99.93     1192.0      0.956
      99.93     1215.0      1.008
      99.93     1226.0       1.09
      99.93     1249.0      1.102
      99.93     1266.0      1.112
      99.93     1287.0      1.061
      99.93     1313.0      1.124
      99.93     1331.0      0.991
      99.93     1350.0      1.003
      99.93     1366.0      0.993
      99.93     1389.0      1.005
      99.93     1408.0      1.025
      99.93     1429.0      0.964
      99.93     1448.0      0.996
      99.93     1469.0      1.017
      99.93     1488.0      1.018
      99.93     1512.0      0.937
      99.93     1535.0      0.918
      99.93     1552.0       0.99
      99.93     1577.0      1.021
      99.93     1592.0      0.909
      99.93     1613.0      0.859
      99.93     1627.0      0.962
      99.93     1651.0       0.85
      99.93     1678.0      0.739
      99.93     1697.0      0.811
      99.93     1718.0      0.853
      99.93     1735.0      0.761
      99.93     1754.0      0.773
      99.93     1777.0      0.773
      99.93     1796.0      0.896
      99.93     1804.0      1.142
      99.93     1838.0      1.092
      99.93     1859.0      1.134
      99.93     1881.0      1.318
      99.93     1890.0      1.523
      99.93     1928.0      1.268
      99.93     1955.0       1.28
      99.93     1976.0       1.26
      99.93     1981.0      1.128
      99.93     2006.0      1.098
      99.93     2031.0      1.242
      99.93     2056.0      1.212
      99.93     2071.0      1.008
      99.93     2092.0      1.111
      99.93     2099.0       1.04
      99.93     2113.0      1.346
      99.93     2130.0      1.195
      99.93     2153.0      1.205
      99.93     2175.0      1.115
      99.93     2191.0      1.258
      99.93     2204.0      1.023
      99.93     2240.0       1.27
      99.93     2253.0      1.137
      99.93     2274.0       1.23
      99.93     2291.0      0.935
      99.93     2312.0      0.956
      99.93     2333.0      1.008
      99.93     2371.0      1.101
      99.93     2409.0      1.021
      99.93     2428.0       0.96
      99.93     2447.0       0.91
      99.93     2471.0      0.962
      99.93     2472.0      0.819
     109.70     1019.0      1.125
     109.70     1055.0      1.044
     109.70     1077.0      1.159
     109.70     1100.0      1.066
     109.70     1117.0      1.171
     109.70     1136.0      1.067
     109.70     1157.0      1.202
     109.70     1178.0      1.152
     109.70     1195.0      1.058
     109.70     1214.0      1.038
     109.70     1235.0      1.029
     109.70     1256.0       1.05
     109.70     1280.0      1.071
     109.70     1299.0      1.135
     109.70     1313.0      1.031
     109.70     1334.0      1.031
     109.70     1349.0      0.937
     109.70     1377.0      1.022
     109.70     1396.0      1.116
     109.70     1421.0      1.023
     109.70     1436.0      0.899
     109.70     1462.0      0.962
     109.70     1477.0      1.056
     109.70     1496.0      1.057
     109.70     1515.0      0.995
     109.70     1540.0      0.975
     109.70     1555.0      1.058
     109.70     1576.0       1.07
     109.70     1599.0      1.049
     109.70     1618.0      1.133
     109.70     1635.0      0.978
     109.70     1656.0      0.895
     109.70     1673.0      0.833
     109.70     1698.0      0.876
     109.70     1715.0      0.782
     109.70     1736.0       0.73
     109.70     1785.0      0.857
     109.70     1801.0      1.003
     109.70     1811.0      1.441
     109.70     1832.0      1.442
     109.70     1859.0      1.484
     109.70     1876.0      1.307
     109.70     1897.0      1.235
     109.70     1918.0      1.403
     109.70     1938.0      1.101
     109.70     1952.0      0.997
     109.70     1982.0      1.186
     109.70     1988.0      1.072
     109.70     2018.0      0.978
     109.70     2032.0      1.093
     109.70     2051.0      0.938
     109.70     2066.0      0.907
     109.70     2092.0      0.918
     109.70     2112.0      0.992
     109.70     2137.0      1.065
     109.70     2156.0      1.097
     109.70     2175.0      0.963
     109.70     2198.0      1.067
     109.70     2210.0      1.307
     109.70     2236.0      1.078
     109.70     2255.0      0.923
     109.70     2274.0      0.809
     109.70     2293.0      0.861
     109.70     2304.0      0.779
     109.70     2322.0      0.915
     109.70     2329.0      0.707
     109.70     2335.0      0.821
     109.70     2350.0      0.769
     109.70     2354.0      0.853
     109.70     2375.0      0.688
     109.70     2379.0      0.865
     109.70     2403.0      0.646
     109.70     2405.0      0.823
     109.70     2408.0      1.094
     109.70     2429.0      1.147
     109.70     2442.0      1.033
     109.70     2465.0      1.096
     109.70     2477.0      1.315
     125.30     1058.0      1.012
     125.30     1075.0      1.158
     125.30     1094.0      1.117
     125.30     1117.0      1.014
     125.30     1140.0      1.108
     125.30     1159.0      0.973
     125.30     1174.0      1.109
     125.30     1193.0      1.047
     125.30     1214.0      1.162
     125.30     1233.0      1.121
     125.30     1248.0      1.049
     125.30     1311.0      1.092
     125.30     1349.0      1.104
     125.30     1370.0      1.094
     125.30     1391.0      1.168
     125.30     1403.0      1.012
     125.30     1428.0      0.981
     125.30     1451.0      1.117
     125.30     1468.0      1.024
     125.30     1491.0      1.212
     125.30     1508.0      1.119
     125.30     1527.0      1.068
     125.30     1555.0      1.048
     125.30     1569.0      1.163
     125.30     1594.0      1.184
     125.30     1637.0       1.04
     125.30     1649.0      1.175
     125.30     1668.0      1.186
     125.30     1696.0      0.958
     125.30     1717.0      1.021
     125.30     1736.0       1.24
     125.30     1759.0      1.262
     125.30     1776.0      1.419
     125.30     1792.0       1.69
     125.30     1794.0      2.065
     125.30     1815.0      1.607
     125.30     1827.0      2.087
     125.30     1853.0      2.077
     125.30     1878.0      1.963
     125.30     1895.0      2.245
     125.30     1910.0      2.089
     125.30     1954.0       1.82
     125.30     1975.0      1.768
     125.30     1997.0      1.675
     125.30     2010.0      1.332
     125.30     2018.0      1.468
     125.30     2037.0      1.052
     125.30     2059.0      1.208
     125.30     2076.0      1.126
     125.30     2098.0      1.043
     125.30     2119.0      1.127
     125.30     2135.0      1.242
     125.30     2160.0      1.409
     125.30     2179.0      1.441
     125.30     2196.0      1.327
     125.30     2217.0      1.369
     125.30     2228.0      1.297
     125.30     2251.0       1.36
     125.30     2272.0      1.163
     125.30     2294.0      0.965
     125.30     2317.0      1.216
     125.30     2329.0      1.394
     125.30     2354.0      0.853
     125.30     2355.0      1.217
     125.30     2375.0      0.688
     125.30     2379.0      0.865
     125.30     2394.0      1.343
     125.30     2403.0      0.646
     125.30     2405.0      0.823
     125.30     2408.0      1.094
     125.30     2415.0      1.417
     125.30     2429.0      1.147
     125.30     2430.0      1.959
     125.30     2442.0      1.033
     125.30     2450.0      2.095
     125.30     2465.0      1.096
     125.30     2477.0      1.315
     125.30     2480.0      2.346
     130.00     1047.0       0.98
     130.00     1068.0      1.096
     130.00     1087.0      1.096
     130.00     1110.0      1.097
     130.00     1129.0      1.077
     130.00     1148.0      1.129
     130.00     1171.0       1.12
     130.00     1190.0      1.078
     130.00     1211.0      1.121
     130.00     1226.0      1.173
     130.00     1249.0      1.174
     130.00     1270.0      1.143
     130.00     1292.0      1.196
     130.00     1317.0      1.072
     130.00     1342.0      1.218
     130.00     1363.0      1.063
     130.00     1389.0      1.178
     130.00     1393.0      1.043
     130.00     1413.0      1.054
     130.00     1434.0      1.117
     130.00     1455.0      1.118
     130.00     1472.0      1.035
     130.00     1474.0      1.066
     130.00     1495.0       1.14
     130.00     1516.0      1.171
     130.00     1535.0      1.203
     130.00     1550.0      1.131
     130.00     1573.0      1.007
     130.00     1590.0      1.132
     130.00     1611.0      1.174
     130.00     1630.0      1.154
     130.00     1651.0      1.103
     130.00     1679.0      1.083
     130.00     1694.0      0.958
     130.00     1715.0      0.979
     130.00     1731.0      1.095
     130.00     1754.0      1.189
     130.00     1777.0      1.315
     130.00     1798.0      1.419
     130.00     1813.0      1.649
     130.00     1829.0      1.899
     130.00     1855.0      1.817
     130.00     1874.0      1.932
     130.00     1893.0      1.974
     130.00     1910.0      1.891
     130.00     1929.0      1.757
     130.00     1956.0      1.643
     130.00     1973.0      1.425
     130.00     1999.0      1.425
     130.00     2014.0      1.332
     130.00     2033.0      1.208
     130.00     2037.0      1.249
     130.00     2052.0      1.135
     130.00     2072.0      1.073
     130.00     2091.0      1.001
     130.00     2114.0      1.096
     130.00     2135.0      1.107
     130.00     2154.0      1.013
     130.00     2173.0      1.118
     130.00     2192.0      1.202
     130.00     2215.0      1.276
     130.00     2232.0      1.141
     130.00     2253.0      1.152
     130.00     2270.0      1.059
     130.00     2291.0      1.028
     130.00     2310.0      1.112
     130.00     2335.0      1.258
     130.00     2354.0      1.113
     130.00     2392.0      1.479
     130.00     2408.0      1.844
     130.00     2431.0      2.157
     130.00     2452.0      2.293
     130.00     2458.0      2.241
     130.00     2473.0      2.616
     130.00     2490.0      2.356
     130.00     2513.0      2.597
     149.91     1022.0      0.948
     149.91     1049.0      1.074
     149.91     1068.0      1.127
     149.91     1089.0      1.064
     149.91     1108.0       1.18
     149.91     1127.0      1.117
     149.91     1150.0      1.285
     149.91     1169.0      1.222
     149.91     1182.0      1.055
     149.91     1207.0      1.045
     149.91     1224.0      1.182
     149.91     1245.0      1.109
     149.91     1266.0      1.224
     149.91     1291.0      1.057
     149.91     1302.0      1.141
     149.91     1323.0       1.11
     149.91     1346.0      1.079
     149.91     1371.0      1.059
     149.91     1394.0      1.185
     149.91     1405.0      1.091
     149.91     1430.0      1.039
     149.91     1449.0      1.123
     149.91     1468.0       1.06
     149.91     1493.0      1.113
     149.91     1512.0      1.281
     149.91     1527.0      1.354
     149.91     1548.0      1.417
     149.91     1567.0      1.407
     149.91     1586.0      1.366
     149.91     1611.0      1.439
     149.91     1632.0      1.555
     149.91     1645.0      1.492
     149.91     1666.0       1.43
     149.91     1689.0      1.367
     149.91     1712.0      1.305
     149.91     1725.0      1.514
     149.91     1743.0      1.922
     149.91     1764.0      2.027
     149.91     1787.0      1.965
     149.91     1808.0      2.237
     149.91     1825.0      2.718
     149.91     1848.0      2.844
     149.91     1869.0      2.928
     149.91     1888.0      2.761
     149.91     1907.0      2.542
     149.91     1926.0      2.835
     149.91     1951.0      2.731
     149.91     1968.0       2.48
     149.91     1987.0      1.874
     149.91     2011.0      1.781
     149.91     2024.0      1.175
     149.91     2047.0       1.29
     149.91     2070.0      1.102
     149.91     2087.0      0.956
     149.91     2106.0      1.061
     149.91     2123.0      1.354
     149.91     2143.0      1.522
     149.91     2167.0      1.146
     149.91     2188.0       1.23
     149.91     2209.0      1.303
     149.91     2224.0      1.178
     149.91     2238.0      1.157
     149.91     2247.0      1.335
     149.91     2270.0       1.43
     149.91     2306.0      1.483
     149.91     2328.0      1.891
     149.91     2344.0       1.42
     149.91     2367.0      1.588
     149.91     2385.0      2.529
     149.91     2396.0      3.961
     149.91     2415.0      4.265
     149.91     2440.0      4.757
     149.91     2461.0      4.548
     149.91     2480.0      4.444
     149.91     2503.0      4.549
ENDDATA            532
ENDSUBENT          539
ENDENTRY             2
