ENTRY            F0408   20220604   20221017   20221011       F091
SUBENT        F0408001   20220604   20221017   20221011       F091
BIB                 10         18
TITLE      Proton-induced reactions with 9Be between 6.5 and
           9.5 MeV.
AUTHOR     (L.W.J.Wild,G.B.Crinean)
INSTITUTE  (3AULAML)
REFERENCE  (J,AUJ,27,663,1974)
FACILITY   (CYCLO,3AULAML) Variable energy
SAMPLE     Self-supporting 9Be targets.
METHOD     (EXTB)
DETECTOR   (TELES,SIBAR)
REL-REF    (I,F0193001,G.M.Hudson+,J,NP/A,184,175,1972) - The
           experimental arrangement and particle identification
           system used have been reported.
HISTORY    (19860418C)
           (19990409A) CNPD: corrected 4-dig. year
           (20030606U) Reference corrected.
           (20060207A) Journal name was corrected.
           (20220604A) SD: Corrections in all Subents.
            EN-ERR -> EN-ERR-DIG.
ENDBIB              18
COMMON               1          3
EN-ERR-DIG
MEV
      0.010
ENDCOMMON            3
ENDSUBENT           25
SUBENT        F0408002   20220604   20221017   20221011       F091
BIB                  3          5
REACTION   (4-BE-9(P,EL)4-BE-9,,DA,,REL)
            No explanation of relative units is given.
STATUS     (CURVE) Fig.2(a) from Austral.J.Phys.,27(1974)663
HISTORY    (20220603A) SD: SF9=EXP deleted from REACTION code.
           DATA-ERR -> ERR-DIG.
ENDBIB               5
COMMON               1          3
ERR-DIG
ARB-UNITS
        5.2
ENDCOMMON            3
DATA                 3        171
ANG        EN         DATA
ADEG       MEV        ARB-UNITS
       105.      6.343     1252.0
       105.      6.399     1322.0
       105.      6.441     1322.0
       105.      6.469     1305.0
       105.      6.510     1322.0
       105.      6.552     1252.0
       105.      6.594     1147.0
       105.      6.636     1095.0
       105.      6.692     1112.0
       105.      6.719     1130.0
       105.      6.761     1182.0
       105.      6.803     1130.0
       105.      6.845     1148.0
       105.      6.887     1130.0
       105.      6.928     1183.0
       105.      6.956     1165.0
       105.      6.970     1200.0
       105.      7.012     1130.0
       105.      7.054     1113.0
       105.      7.109     1113.0
       105.      7.137     1148.0
       105.      7.179     1166.0
       105.      7.207     1183.0
       105.      7.263     1131.0
       105.      7.291     1113.0
       105.      7.332     1096.0
       105.      7.388     1114.0
       105.      7.430     1096.0
       105.      7.444     1114.0
       105.      7.472     1131.0
       105.      7.499     1114.0
       105.      7.527     1131.0
       105.      7.583     1114.0
       105.      7.611     1114.0
       105.      7.653     1114.0
       105.      7.708     1114.0
       105.      7.750     1132.0
       105.      7.778     1149.0
       105.      7.834     1114.0
       105.      7.862     1132.0
       105.      7.904     1115.0
       105.      7.945     1080.0
       105.      7.987     1097.0
       105.      8.029     1132.0
       105.      8.071     1168.0
       105.      8.112     1168.0
       105.      8.168     1150.0
       105.      8.196     1168.0
       105.      8.238     1185.0
       105.      8.280     1168.0
       105.      8.321     1186.0
       105.      8.349     1203.0
       105.      8.405     1186.0
       105.      8.433     1186.0
       105.      8.475     1133.0
       105.      8.516     1186.0
       105.      8.544     1221.0
       105.      8.586     1239.0
       105.      8.614     1204.0
       105.      8.684     1151.0
       105.      8.711     1204.0
       105.      8.739     1186.0
       105.      8.767     1204.0
       105.      8.809     1116.0
       105.      8.865     1152.0
       105.      8.906     1204.0
       105.      8.948     1187.0
       105.      8.990     1222.0
       105.      9.018     1187.0
       105.      9.046     1205.0
       105.      9.101     1222.0
       105.      9.143     1170.0
       105.      9.185     1187.0
       105.      9.227     1240.0
       105.      9.269     1223.0
       105.      9.297     1065.0
       105.      9.338     1170.0
       105.      9.394     1153.0
       105.      9.422     1135.0
       105.      9.464     1153.0
       140.      6.316      988.6
       140.      6.344      953.5
       140.      6.399      988.7
       140.      6.427      988.8
       140.      6.469     1004.0
       140.      6.511      989.0
       140.      6.525      901.3
       140.      6.567      918.9
       140.      6.581      813.7
       140.      6.595      796.2
       140.      6.609      726.0
       140.      6.622      743.6
       140.      6.636      708.5
       140.      6.664      708.6
       140.      6.664      691.0
       140.      6.706      691.1
       140.      6.720      743.8
       140.      6.734      708.7
       140.      6.748      761.4
       140.      6.790      743.9
       140.      6.831      744.0
       140.      6.859      814.2
       140.      6.873      796.7
       140.      6.915      796.8
       140.      6.915      841.4
       140.      6.957      796.9
       140.      6.984      796.9
       140.      7.026      779.5
       140.      7.054      779.5
       140.      7.096      762.1
       140.      7.124      779.7
       140.      7.180      762.2
       140.      7.205      779.8
       140.      7.263      709.8
       140.      7.305      762.5
       140.      7.333      745.0
       140.      7.361      745.1
       140.      7.389      745.1
       140.      7.416      762.7
       140.      7.430      762.7
       140.      7.472      727.7
       140.      7.500      727.8
       140.      7.542      745.4
       140.      7.584      728.0
       140.      7.611      745.6
       140.      7.667      728.1
       140.      7.695      745.7
       140.      7.751      728.3
       140.      7.779      763.4
       140.      7.820      728.4
       140.      7.862      711.0
       140.      7.904      693.5
       140.      7.932      711.1
       140.      7.974      711.2
       140.      8.016      711.3
       140.      8.071      729.0
       140.      8.113      676.4
       140.      8.155      676.5
       140.      8.183      676.5
       140.      8.224      694.2
       140.      8.252      694.2
       140.      8.308      659.3
       140.      8.336      676.8
       140.      8.378      659.4
       140.      8.433      642.0
       140.      8.475      659.6
       140.      8.503      642.1
       140.      8.545      659.7
       140.      8.587      659.8
       140.      8.615      624.8
       140.      8.656      607.3
       140.      8.698      607.4
       140.      8.754      590.0
       140.      8.810      590.1
       140.      8.837      572.6
       140.      8.879      572.7
       140.      8.921      572.8
       140.      8.949      572.8
       140.      8.991      590.5
       140.      9.033      555.5
       140.      9.074      555.5
       140.      9.116      555.6
       140.      9.144      555.7
       140.      9.200      538.3
       140.      9.241      538.3
       140.      9.269      555.9
       140.      9.311      520.9
       140.      9.353      503.5
       140.      9.395      468.5
       140.      9.437      503.6
       140.      9.465      486.1
ENDDATA            173
ENDSUBENT          187
SUBENT        F0408003   20220604   20221017   20221011       F091
BIB                  3          5
REACTION   (4-BE-9(P,INL)4-BE-9,PAR,DA,,REL)
            No explanation of relative units is given.
STATUS     (CURVE) Fig.2(c) from Austral.J.Phys.,27(1974)663
HISTORY    (20220603A) SD: SF9=EXP deleted from REACTION code.
           DATA-ERR -> ERR-DIG.
ENDBIB               5
COMMON               2          3
E-LVL      ERR-DIG
MEV        ARB-UNITS
       2.43        3.2
ENDCOMMON            3
DATA                 3        156
ANG        EN         DATA
ADEG       MEV        ARB-UNITS
       105.      6.321      428.4
       105.      6.391      428.2
       105.      6.446      435.3
       105.      6.474      449.5
       105.      6.530      442.3
       105.      6.571      435.1
       105.      6.599      442.2
       105.      6.641      456.4
       105.      6.669      470.6
       105.      6.724      456.3
       105.      6.752      477.6
       105.      6.808      463.3
       105.      6.835      463.2
       105.      6.891      448.8
       105.      6.919      477.4
       105.      6.947      470.2
       105.      6.974      470.1
       105.      7.030      470.0
       105.      7.058      448.6
       105.      7.099      455.6
       105.      7.141      455.6
       105.      7.183      469.8
       105.      7.225      476.9
       105.      7.252      476.8
       105.      7.294      448.2
       105.      7.328      454.6
       105.      7.335      441.0
       105.      7.377      440.9
       105.      7.419      426.5
       105.      7.446      447.9
       105.      7.502      455.0
       105.      7.530      483.5
       105.      7.572      476.3
       105.      7.613      461.9
       105.      7.669      447.5
       105.      7.710      440.3
       105.      7.794      454.5
       105.      7.822      454.4
       105.      7.849      440.1
       105.      7.905      454.3
       105.      7.932      418.5
       105.      7.988      432.7
       105.      8.016      439.8
       105.      8.044      454.1
       105.      8.085      439.7
       105.      8.127      439.6
       105.      8.169      461.0
       105.      8.210      446.6
       105.      8.252      453.7
       105.      8.294      453.6
       105.      8.335      453.6
       105.      8.363      446.4
       105.      8.419      439.1
       105.      8.446      446.3
       105.      8.488      439.0
       105.      8.530      474.7
       105.      8.572      460.3
       105.      8.613      446.0
       105.      8.655      445.9
       105.      8.696      438.7
       105.      8.724      452.9
       105.      8.780      460.0
       105.      8.821      438.5
       105.      8.863      438.4
       105.      8.905      459.8
       105.      8.933      445.4
       105.      8.974      459.7
       105.      9.002      452.5
       105.      9.058      466.7
       105.      9.099      480.9
       105.      9.127      452.3
       105.      9.169      452.2
       105.      9.210      466.4
       105.      9.252      459.2
       105.      9.280      423.4
       105.      9.335      444.8
       105.      9.363      444.7
       105.      9.405      437.5
       105.      9.433      466.0
       140.      6.362      256.9
       140.      6.404      256.8
       140.      6.445      256.7
       140.      6.487      256.6
       140.      6.529      256.6
       140.      6.570      249.4
       140.      6.612      242.1
       140.      6.654      249.2
       140.      6.695      249.1
       140.      6.737      256.2
       140.      6.765      249.0
       140.      6.806      263.3
       140.      6.834      277.5
       140.      6.876      277.4
       140.      6.932      291.6
       140.      6.987      277.2
       140.      7.029      291.5
       140.      7.070      291.4
       140.      7.112      291.3
       140.      7.140      291.3
       140.      7.182      298.3
       140.      7.223      298.3
       140.      7.265      276.8
       140.      7.307      283.9
       140.      7.348      276.6
       140.      7.376      305.2
       140.      7.418      283.7
       140.      7.459      283.6
       140.      7.501      290.7
       140.      7.543      290.6
       140.      7.584      304.8
       140.      7.626      297.6
       140.      7.668      304.7
       140.      7.695      290.4
       140.      7.737      297.4
       140.      7.793      283.0
       140.      7.820      283.0
       140.      7.848      268.7
       140.      7.904      275.7
       140.      7.932      275.7
       140.      7.987      282.7
       140.      8.015      268.4
       140.      8.070      268.3
       140.      8.112      268.2
       140.      8.140      275.3
       140.      8.168      275.3
       140.      8.223      275.2
       140.      8.265      275.1
       140.      8.307      282.2
       140.      8.348      275.0
       140.      8.390      282.0
       140.      8.404      267.7
       140.      8.459      281.9
       140.      8.501      274.7
       140.      8.515      296.1
       140.      8.570      274.6
       140.      8.626      274.5
       140.      8.695      274.4
       140.      8.723      288.6
       140.      8.737      281.5
       140.      8.765      302.9
       140.      8.779      274.3
       140.      8.793      302.8
       140.      8.835      295.6
       140.      8.876      302.7
       140.      8.918      302.6
       140.      8.946      309.7
       140.      8.987      302.5
       140.      9.029      302.4
       140.      9.071      302.3
       140.      9.112      323.7
       140.      9.168      316.5
       140.      9.196      316.4
       140.      9.237      294.9
       140.      9.279      302.0
       140.      9.307      302.0
       140.      9.349      316.2
ENDDATA            158
ENDSUBENT          172
SUBENT        F0408004   20220604   20221017   20221011       F091
BIB                  3          5
REACTION   (4-BE-9(P,D)4-BE-8,PAR,DA,,REL)
            No explanation of relative units is given.
STATUS     (CURVE) Fig.2(b) from Austral.J.Phys.,27(1974)663
HISTORY    (20220603A) SD: SF9=EXP deleted from REACTION code.
           DATA-ERR -> ERR-DIG.
ENDBIB               5
COMMON               2          3
E-LVL      ERR-DIG
MEV        ARB-UNITS
         0.        0.8
ENDCOMMON            3
DATA                 3        167
ANG        EN         DATA
ADEG       MEV        ARB-UNITS
       105.      6.334      156.3
       105.      6.362      147.6
       105.      6.418      158.0
       105.      6.446      158.0
       105.      6.488      151.1
       105.      6.516      156.2
       105.      6.558      149.3
       105.      6.628      152.7
       105.      6.642      151.0
       105.      6.698      154.4
       105.      6.740      157.9
       105.      6.782      157.9
       105.      6.824      156.1
       105.      6.852      154.4
       105.      6.908      156.1
       105.      6.936      159.6
       105.      6.964      164.7
       105.      6.992      157.8
       105.      7.034      150.9
       105.      7.076      145.7
       105.      7.118      156.1
       105.      7.146      156.1
       105.      7.202      150.9
       105.      7.244      159.5
       105.      7.286      143.9
       105.      7.328      147.4
       105.      7.370      147.4
       105.      7.412      142.2
       105.      7.454      142.2
       105.      7.482      150.8
       105.      7.524      147.3
       105.      7.566      145.6
       105.      7.608      147.3
       105.      7.664      145.6
       105.      7.692      142.1
       105.      7.734      142.1
       105.      7.762      140.4
       105.      7.818      140.4
       105.      7.860      135.2
       105.      7.902      136.9
       105.      7.930      131.7
       105.      7.972      123.1
       105.      8.014      124.8
       105.      8.056      126.5
       105.      8.098      126.5
       105.      8.140      126.5
       105.      8.168      128.2
       105.      8.224      123.0
       105.      8.252      119.6
       105.      8.307      117.8
       105.      8.349      121.3
       105.      8.378      124.7
       105.      8.419      116.1
       105.      8.461      116.1
       105.      8.503      114.3
       105.      8.573      117.8
       105.      8.629      114.3
       105.      8.657      110.8
       105.      8.713      110.8
       105.      8.741      105.7
       105.      8.783      107.4
       105.      8.825      109.1
       105.      8.853      105.6
       105.      8.909      105.6
       105.      8.951      109.0
       105.      8.993      107.3
       105.      9.035      107.3
       105.      9.063      105.6
       105.      9.105      109.0
       105.      9.147      110.7
       105.      9.189      100.4
       105.      9.231      102.1
       105.      9.273      109.0
       105.      9.315      105.5
       105.      9.357      103.8
       105.      9.399      102.0
       105.      9.427      102.0
       105.      9.469      100.3
       105.      9.511      103.7
       140.      6.319      106.3
       140.      6.347      101.1
       140.      6.403      104.5
       140.      6.431      101.1
       140.      6.487       97.6
       140.      6.529       95.8
       140.      6.543       83.8
       140.      6.557       92.4
       140.      6.571       87.3
       140.      6.585       82.1
       140.      6.613       80.4
       140.      6.645       90.7
       140.      6.655       80.3
       140.      6.683       85.5
       140.      6.711       83.8
       140.      6.725       80.3
       140.      6.753       82.0
       140.      6.767       80.3
       140.      6.795       83.8
       140.      6.865       80.3
       140.      6.893       82.0
       140.      6.949       80.3
       140.      6.991       82.0
       140.      7.033       78.5
       140.      7.075       69.9
       140.      7.117       73.3
       140.      7.159       73.3
       140.      7.187       73.3
       140.      7.229       71.6
       140.      7.271       66.4
       140.      7.313       66.4
       140.      7.355       68.1
       140.      7.397       66.4
       140.      7.425       64.6
       140.      7.439       66.3
       140.      7.453       64.6
       140.      7.481       64.6
       140.      7.495       62.9
       140.      7.509       62.9
       140.      7.551       66.3
       140.      7.578       62.9
       140.      7.635       61.1
       140.      7.676       59.4
       140.      7.719       61.1
       140.      7.760       61.1
       140.      7.802       61.1
       140.      7.845       59.4
       140.      7.886       59.3
       140.      7.915       59.3
       140.      7.970       55.9
       140.      7.998       59.3
       140.      8.054       55.9
       140.      8.096       54.1
       140.      8.138       55.8
       140.      8.180       54.1
       140.      8.222       55.8
       140.      8.250       55.8
       140.      8.292       54.1
       140.      8.334       57.5
       140.      8.376       54.0
       140.      8.404       55.8
       140.      8.460       50.6
       140.      8.488       54.0
       140.      8.544       52.3
       140.      8.586       54.0
       140.      8.614       55.7
       140.      8.656       52.2
       140.      8.698       52.2
       140.      8.740       50.5
       140.      8.782       52.2
       140.      8.824       53.9
       140.      8.852       53.9
       140.      8.908       53.9
       140.      8.950       53.9
       140.      8.992       53.9
       140.      9.034       52.1
       140.      9.062       53.9
       140.      9.104       55.6
       140.      9.146       57.3
       140.      9.188       53.8
       140.      9.244       55.5
       140.      9.272       55.5
       140.      9.300       55.5
       140.      9.356       57.2
       140.      9.398       55.5
       140.      9.426       57.2
       140.      9.454       53.8
       140.      9.496       55.5
ENDDATA            169
ENDSUBENT          183
ENDENTRY             4
