ENTRY            F0473   20220608   20230023   20221219       F093
SUBENT        F0473001   20220608   20230023   20221219       F093
BIB                  9         13
TITLE      10B(He3,particle) cross sections and the 26, 28
           and 32 MeV states of 13N
AUTHOR     (R.A.I.Bell,I.G.Graham,J.V.Thompson,E.W.Titterton)
INSTITUTE  (3AULCBR)
REFERENCE  (J,NP/A,193,385,1972)
FACILITY   (VDGT,3AULCBR)
SAMPLE     Self-supporting targets containing about
           100 ug/cm2 of 10B were prepared
METHOD     (PHD,BCINT)
ERR-ANALYS (ERR-1) Uncertainty in target thickness
           (ERR-2) Uncertainty in current integrator
HISTORY    (19920527C)
           (20220608A) SD: Corrections in all Subents.
ENDBIB              13
COMMON               2          3
ERR-1      ERR-2
PER-CENT   PER-CENT
     10.           2.
ENDCOMMON            3
ENDSUBENT           20
SUBENT        F0473002   20220608   20230023   20221219       F093
BIB                  5          8
REACTION   (5-B-10(HE3,P)6-C-12,PAR,DA)
DETECTOR   (SILI) Four detectors 2000 mu-m Si(Li)
ERR-ANALYS (ERR-T) Total error
           (ERR-3) Uncertainty in slit area
           (ERR-4) Uncertainty in target-slit distance
STATUS     (CURVE) Fig.3 from Nucl.Phys.,A193(1972)385
HISTORY    (20220608A) SD: SF9=EXP deleted from REACTION code.
           EN-ERR -> EN-ERR-DIG; DATA-ERR -> ERR-DIG.
ENDBIB               8
COMMON               5          3
ERR-T      EN-ERR-DIG ERR-DIG    ERR-3      ERR-4
PER-CENT   MEV        MB/SR      PER-CENT   PER-CENT
  13.       0.03        0.001           1.         1.
ENDCOMMON            3
DATA                 4        121
ANG        E-LVL      EN         DATA
ADEG       MEV        MEV        MB/SR
        90.         0.      11.58      0.020
        90.         0.      11.81      0.027
        90.         0.      11.99      0.021
        90.         0.      12.20      0.020
        90.         0.      12.41      0.020
        90.         0.      12.59      0.021
        90.         0.      12.80      0.018
        90.         0.      12.98      0.020
        90.         0.      13.18      0.019
        90.         0.      13.39      0.020
        90.         0.      13.59      0.018
        90.         0.      13.78      0.017
        90.         0.      13.98      0.018
        90.         0.      14.19      0.015
        90.         0.      14.42      0.016
        90.         0.      14.62      0.016
        90.         0.      14.81      0.014
        90.         0.      14.99      0.013
        90.         0.      15.19      0.013
        90.         0.      15.40      0.013
        90.         0.      15.60      0.011
        90.       4.43      11.62      0.167
        90.       4.43      11.81      0.151
        90.       4.43      11.99      0.146
        90.       4.43      12.20      0.140
        90.       4.43      12.38      0.140
        90.       4.43      12.59      0.144
        90.       4.43      12.82      0.137
        90.       4.43      13.00      0.131
        90.       4.43      13.21      0.129
        90.       4.43      13.40      0.114
        90.       4.43      13.60      0.116
        90.       4.43      13.78      0.115
        90.       4.43      13.99      0.108
        90.       4.43      14.20      0.107
        90.       4.43      14.43      0.098
        90.       4.43      14.64      0.096
        90.       4.43      14.84      0.095
        90.       4.43      15.02      0.094
        90.       4.43      15.23      0.089
        90.       4.43      15.41      0.086
        90.       4.43      15.62      0.083
        90.       4.43      15.83      0.084
        90.       4.43      16.01      0.073
        90.       4.43      16.22      0.076
        90.       4.43      16.38      0.067
        90.       4.43      16.61      0.073
        90.       4.43      16.79      0.069
        90.       4.43      17.00      0.073
        90.       4.43      17.25      0.068
        90.       4.43      17.43      0.066
        90.       4.43      17.64      0.067
        90.       4.43      17.84      0.065
        90.       4.43      18.03      0.062
        90.       4.43      18.23      0.062
        90.       4.43      18.42      0.059
        90.       4.43      18.60      0.058
       150.         0.      11.60      0.053
       150.         0.      11.80      0.051
       150.         0.      12.01      0.049
       150.         0.      12.19      0.051
       150.         0.      12.40      0.048
       150.         0.      12.58      0.047
       150.         0.      12.79      0.047
       150.         0.      12.97      0.045
       150.         0.      13.18      0.044
       150.         0.      13.36      0.039
       150.         0.      13.61      0.040
       150.         0.      13.82      0.035
       150.         0.      14.00      0.032
       150.         0.      14.21      0.033
       150.         0.      14.41      0.029
       150.         0.      14.60      0.029
       150.         0.      14.78      0.026
       150.         0.      15.01      0.025
       150.         0.      15.19      0.024
       150.         0.      15.40      0.024
       150.         0.      15.58      0.022
       150.         0.      15.76      0.022
       150.         0.      16.01      0.018
       150.         0.      16.22      0.017
       150.         0.      16.42      0.018
       150.         0.      16.61      0.014
       150.         0.      16.81      0.015
       150.         0.      17.02      0.016
       150.         0.      17.20      0.013
       150.         0.      17.41      0.014
       150.         0.      17.61      0.013
       150.         0.      17.80      0.012
       150.         0.      18.00      0.014
       150.         0.      18.21      0.013
       150.         0.      18.39      0.010
       150.         0.      18.62      0.012
       150.       4.43      11.67      0.210
       150.       4.43      11.86      0.195
       150.       4.43      12.04      0.189
       150.       4.43      12.23      0.180
       150.       4.43      12.41      0.174
       150.       4.43      12.60      0.163
       150.       4.43      12.81      0.161
       150.       4.43      13.02      0.147
       150.       4.43      13.23      0.143
       150.       4.43      13.41      0.133
       150.       4.43      13.62      0.131
       150.       4.43      13.80      0.131
       150.       4.43      14.01      0.124
       150.       4.43      14.19      0.121
       150.       4.43      14.40      0.125
       150.       4.43      14.60      0.125
       150.       4.43      14.78      0.124
       150.       4.43      15.04      0.122
       150.       4.43      15.22      0.125
       150.       4.43      15.43      0.119
       150.       4.43      15.61      0.117
       150.       4.43      15.79      0.118
       150.       4.43      16.02      0.120
       150.       4.43      16.20      0.113
       150.       4.43      16.41      0.119
       150.       4.43      16.61      0.112
       150.       4.43      16.82      0.114
       150.       4.43      17.00      0.109
ENDDATA            123
ENDSUBENT          140
SUBENT        F0473003   20220608   20230023   20221219       F093
BIB                  6         14
REACTION   (5-B-10(HE3,D)6-C-11,PAR,DA)
METHOD     (EDE)
DETECTOR   (TELES,SIBAR) Telescope consisting of a 32 um
           transmission counter backed by a 1000 um
           surface-barrier counter
ERR-ANALYS (ERR-4) The absolute cross-section scale uncertainty
           (ERR-3,5.,25.) Relative errors in the points, arising
           both from statistics and background, are +-15 to
           +-25% for the d1 and d3 curves, and +-5 to +-10% for
           the others.
STATUS     (CURVE) Fig.7 from Nucl.Phys.,A193(1972)385
HISTORY    (20220608A) SD: SF9=EXP deleted from REACTION code.
           EN-ERR -> EN-ERR-DIG; DATA-ERR -> ERR-DIG;
           DATA-ERR1 -> ERR-3; ERR-T -> ERR-4.
ENDBIB              14
COMMON               4          3
ANG        EN-ERR-DIG ERR-DIG    ERR-4
ADEG       MEV        MB/SR      PER-CENT
      150.0      0.01       0.001       15.0
ENDCOMMON            3
DATA                 3        232
E-LVL      EN         DATA
MEV        MEV        MB/SR
         0.      11.22      2.240
         0.      11.42      2.241
         0.      11.61      2.182
         0.      11.80      2.185
         0.      12.00      2.095
         0.      12.10      2.214
         0.      12.20      2.136
         0.      12.31      2.033
         0.      12.40      2.163
         0.      12.51      2.036
         0.      12.61      1.985
         0.      12.70      1.987
         0.      12.80      1.923
         0.      12.90      1.872
         0.      13.00      1.812
         0.      13.10      1.829
         0.      13.20      1.671
         0.      13.40      1.678
         0.      13.60      1.644
         0.      13.70      1.567
         0.      13.80      1.528
         0.      13.90      1.509
         0.      13.99      1.455
         0.      14.09      1.446
         0.      14.20      1.439
         0.      14.30      1.431
         0.      14.40      1.352
         0.      14.49      1.383
         0.      14.60      1.279
         0.      14.70      1.359
         0.      14.80      1.296
         0.      14.90      1.280
         0.      15.00      1.264
         0.      15.09      1.220
         0.      15.19      1.194
         0.      15.30      1.220
         0.      15.40      1.181
         0.      15.50      1.159
         0.      15.60      1.220
         0.      15.69      1.126
         0.      15.79      1.163
         0.      15.99      1.148
         0.      16.19      1.013
         0.      16.39      1.046
         0.      16.59      0.932
         0.      16.99      0.945
         0.      17.19      0.861
         0.      17.39      0.775
         0.      17.59      0.825
         0.      18.00      0.691
         0.      18.19      0.618
         0.      18.39      0.607
         0.      18.60      0.596
         0.      18.79      0.565
         0.      19.00      0.542
         2.      10.99      0.440
         2.      11.18      0.405
         2.      11.39      0.338
         2.      11.59      0.356
         2.      11.79      0.285
         2.      12.00      0.342
         2.      12.19      0.368
         2.      12.30      0.484
         2.      12.39      0.394
         2.      12.49      0.424
         2.      12.60      0.415
         2.      12.70      0.378
         2.      12.80      0.428
         2.      12.90      0.322
         2.      13.00      0.320
         2.      13.10      0.344
         2.      13.20      0.274
         2.      13.29      0.276
         2.      13.40      0.278
         2.      13.49      0.314
         2.      13.60      0.221
         2.      13.70      0.256
         2.      13.80      0.188
         2.      13.90      0.182
         2.      14.00      0.219
         2.      14.09      0.215
         2.      14.20      0.184
         2.      14.30      0.217
         2.      14.39      0.169
         2.      14.50      0.248
         2.      14.59      0.220
         2.      14.70      0.203
         2.      14.80      0.168
         2.      14.88      0.191
         2.      14.99      0.213
         2.      15.09      0.263
         2.      15.19      0.213
         2.      15.29      0.233
         2.      15.39      0.172
         2.      15.49      0.224
         2.      15.59      0.183
         2.      15.69      0.212
         2.      15.79      0.193
         2.      15.90      0.194
         2.      16.00      0.170
         2.      16.19      0.230
         2.      16.39      0.186
         2.      16.59      0.197
         2.      16.79      0.147
         2.      17.19      0.225
         2.      17.39      0.225
         2.      17.59      0.162
         2.      17.79      0.218
         2.      17.99      0.157
         2.      18.19      0.161
         2.      18.40      0.104
         2.      18.59      0.158
         2.      18.79      0.165
         2.      19.00      0.146
       4.32      10.99      1.846
       4.32      11.19      1.803
       4.32      11.39      1.560
       4.32      11.59      1.215
       4.32      11.79      1.169
       4.32      11.99      1.098
       4.32      12.09      1.110
       4.32      12.19      1.164
       4.32      12.29      1.045
       4.32      12.38      0.964
       4.32      12.49      1.069
       4.32      12.59      1.133
       4.32      12.69      1.205
       4.32      12.78      1.059
       4.32      12.89      1.094
       4.32      12.98      0.988
       4.32      12.99      0.988
       4.32      13.09      0.983
       4.32      13.19      0.920
       4.32      13.29      0.884
       4.32      13.39      0.859
       4.32      13.49      0.825
       4.32      13.60      0.814
       4.32      13.70      0.718
       4.32      13.79      0.751
       4.32      13.90      0.659
       4.32      13.99      0.680
       4.32      14.09      0.587
       4.32      14.20      0.675
       4.32      14.30      0.634
       4.32      14.39      0.721
       4.32      14.49      0.586
       4.32      14.59      0.634
       4.32      14.69      0.657
       4.32      14.79      0.650
       4.32      14.84      0.650
       4.32      14.89      0.651
       4.32      15.00      0.708
       4.32      15.19      0.655
       4.32      15.39      0.633
       4.32      15.60      0.549
       4.32      15.79      0.532
       4.32      15.99      0.542
       4.32      16.19      0.549
       4.32      16.40      0.481
       4.32      16.58      0.451
       4.32      16.79      0.457
       4.32      16.98      0.442
       4.32      17.19      0.421
       4.32      17.39      0.435
       4.32      17.59      0.462
       4.32      17.79      0.491
       4.32      18.00      0.491
       4.32      18.19      0.470
       4.32      18.40      0.410
       4.32      18.58      0.434
       4.32      18.80      0.381
       4.32      19.00      0.308
      4.804      10.99      0.561
      4.804      11.19      0.507
      4.804      11.39      0.535
      4.804      11.59      0.343
      4.804      11.79      0.355
      4.804      11.99      0.414
      4.804      12.09      0.330
      4.804      12.19      0.322
      4.804      12.29      0.319
      4.804      12.39      0.329
      4.804      12.49      0.318
      4.804      12.58      0.428
      4.804      12.69      0.442
      4.804      12.80      0.459
      4.804      12.89      0.409
      4.804      12.99      0.419
      4.804      13.09      0.429
      4.804      13.19      0.393
      4.804      13.30      0.478
      4.804      13.40      0.414
      4.804      13.49      0.453
      4.804      13.60      0.403
      4.804      13.69      0.473
      4.804      13.79      0.368
      4.804      13.89      0.399
      4.804      13.99      0.363
      4.804      14.09      0.392
      4.804      14.18      0.331
      4.804      14.30      0.455
      4.804      14.39      0.322
      4.804      14.49      0.357
      4.804      14.59      0.273
      4.804      14.69      0.386
      4.804      14.79      0.305
      4.804      14.89      0.384
      4.804      14.99      0.287
      4.804      15.10      0.343
      4.804      15.19      0.233
      4.804      15.24      0.322
      4.804      15.39      0.326
      4.804      15.49      0.283
      4.804      15.60      0.301
      4.804      15.69      0.281
      4.804      15.79      0.313
      4.804      15.99      0.279
      4.804      16.19      0.248
      4.804      16.39      0.202
      4.804      16.58      0.226
      4.804      16.79      0.210
      4.804      16.99      0.179
      4.804      17.18      0.195
      4.804      17.38      0.181
      4.804      17.58      0.180
      4.804      17.79      0.160
      4.804      17.98      0.165
      4.804      18.18      0.195
      4.804      18.39      0.236
      4.804      18.59      0.190
      4.804      18.78      0.194
      4.804      18.99      0.168
ENDDATA            234
ENDSUBENT          257
SUBENT        F0473004   20220608   20230023   20221219       F093
BIB                  6         14
REACTION   (5-B-10(HE3,D)6-C-11,PAR,DA)
METHOD     (EDE)
DETECTOR   (TELES,SIBAR) Telescope consisting of a 32 um
           transmission counter backed by a 1000 um
           surface-barrier counter
ERR-ANALYS (ERR-4) The absolute cross-section scale uncertainty
           (ERR-5,5.,25.) Relative errors in the points, arising
           both from statistics and background, are +-15 to
           +-25% for the d1 and d3 curves, and +-5 to +-10% for
           the others.
STATUS     (CURVE) Fig.7 from Nucl.Phys.,A193(1972)385
HISTORY    (20220608A) SD: SF9=EXP deleted from REACTION code.
           EN-ERR -> EN-ERR-DIG; DATA-ERR -> ERR-DIG;
           DATA-ERR1 -> ERR-3; ERR-T -> ERR-4.
ENDBIB              14
COMMON               6          3
E-LVL-MIN  E-LVL-MAX  ANG        EN-ERR-DIG ERR-DIG    ERR-4
MEV        MEV        ADEG       MEV        MB/SR      PER-CENT
  6.34       6.48       150.0       0.01      0.001       15.0
ENDCOMMON            3
DATA                 2         48
EN         DATA
MEV        MB/SR
      12.09      1.031
      12.19      1.102
      12.28      1.085
      12.39      1.081
      12.49      1.120
      12.59      1.119
      12.69      1.142
      12.79      1.072
      12.89      1.156
      12.98      1.121
      13.09      1.250
      13.18      1.233
      13.30      1.191
      13.39      1.316
      13.48      1.360
      13.60      1.355
      13.79      1.370
      13.88      1.237
      13.99      1.045
      14.08      1.083
      14.19      1.085
      14.29      1.016
      14.39      0.960
      14.48      1.083
      14.60      0.877
      14.69      0.899
      14.80      0.812
      14.89      0.817
      14.99      0.759
      15.19      0.737
      15.39      0.730
      15.59      0.747
      15.79      0.732
      16.00      0.767
      16.19      0.684
      16.39      0.724
      16.59      0.698
      16.78      0.694
      17.39      0.708
      17.59      0.699
      17.79      0.758
      17.99      0.709
      18.18      0.671
      18.39      0.659
      18.59      0.620
      18.80      0.638
      18.90      0.617
      18.99      0.563
ENDDATA             50
ENDSUBENT           73
SUBENT        F0473005   20220608   20230023   20221219       F093
BIB                  6         12
REACTION   (5-B-10(HE3,A)5-B-9,PAR,DA)
METHOD     (EDE)
DETECTOR   (TELES,SIBAR) Telescope consisting of a 32 um
           transmission counter backed by a 1000 um
           surface-barrier counter
ERR-ANALYS (ERR-3,10.,12.) The absolute cross-section scale
               uncertainty
           (ERR-S) Statistic errors
STATUS     (CURVE) Figs 8, 9 from Nucl.Phys.,A193(1972)385
HISTORY    (20220608A) SD: SF9=EXP deleted from REACTION code.
           EN-ERR -> EN-ERR-DIG; DATA-ERR -> ERR-DIG;
           DATA-ERR1 -> ERR-S.
ENDBIB              12
COMMON               2          3
EN-ERR-DIG ERR-DIG
MEV        MB/SR
 0.005      0.001
ENDCOMMON            3
DATA                 5        544
E-LVL      ANG        EN         DATA       ERR-S
MEV        ADEG       MEV        MB/SR      PER-CENT
         0.        30.      9.034      1.644         4.
         0.        30.      9.237      1.464         4.
         0.        30.      9.438      1.568         4.
         0.        30.      9.639      1.591         4.
         0.        30.      9.846      1.575         4.
         0.        30.     10.040      1.523         4.
         0.        30.     10.230      1.679         4.
         0.        30.     10.430      1.533         4.
         0.        30.     10.640      1.557         4.
         0.        30.     10.840      1.515         4.
         0.        30.     11.040      1.407         4.
         0.        30.     11.230      1.323         4.
         0.        30.     11.420      1.224         4.
         0.        30.     11.630      1.144         4.
         0.        30.     11.830      1.195         4.
         0.        30.     12.030      1.167         4.
         0.        30.     12.120      1.167         4.
         0.        30.     12.230      1.122         4.
         0.        30.     12.330      1.165         4.
         0.        30.     12.430      1.201         4.
         0.        30.     12.530      1.172         4.
         0.        30.     12.630      1.226         4.
         0.        30.     12.730      1.257         4.
         0.        30.     12.830      1.220         4.
         0.        30.     12.930      1.242         4.
         0.        30.     13.030      1.221         4.
         0.        30.     13.130      1.184         4.
         0.        30.     13.230      1.201         4.
         0.        30.     13.330      1.217         4.
         0.        30.     13.420      1.204         4.
         0.        30.     13.530      1.189         4.
         0.        30.     13.620      1.227         4.
         0.        30.     13.720      1.189         4.
         0.        30.     13.830      1.152         4.
         0.        30.     13.930      1.121         4.
         0.        30.     14.020      1.104         4.
         0.        30.     14.120      1.128         4.
         0.        30.     14.230      1.125         4.
         0.        30.     14.320      1.070         4.
         0.        30.     14.420      1.067         4.
         0.        30.     14.530      1.044         4.
         0.        30.     14.620      1.031         4.
         0.        30.     14.730      0.972         4.
         0.        30.     14.820      1.004         4.
         0.        30.     14.920      0.971         4.
         0.        30.     15.020      0.990         4.
         0.        30.     15.120      0.985         4.
         0.        30.     15.320      0.966         4.
         0.        30.     15.520      0.964         4.
         0.        30.     15.720      0.904         4.
         0.        30.     15.920      0.885         4.
         0.        30.     16.230      0.884         4.
         0.        30.     16.420      0.848         4.
         0.        30.     16.620      0.881         4.
         0.        30.     16.830      0.870         4.
         0.        30.     17.020      0.854         4.
         0.        30.     17.220      0.845         4.
         0.        30.     17.430      0.835         4.
         0.        30.     17.630      0.832         4.
         0.        30.     17.830      0.877         4.
         0.        30.     18.030      0.843         4.
         0.        30.     18.220      0.849         4.
         0.        30.     18.430      0.808         4.
         0.        30.     18.620      0.810         4.
         0.        30.     18.810      0.795         4.
         0.        30.     18.920      0.731         4.
         0.        30.     19.020      0.789         4.
         0.        60.      9.008      1.254         4.
         0.        60.      9.211      1.204         4.
         0.        60.      9.415      1.128         4.
         0.        60.      9.606      1.173         4.
         0.        60.      9.810      1.097         4.
         0.        60.     10.000      1.068         4.
         0.        60.     10.200      1.024         4.
         0.        60.     10.390      1.015         4.
         0.        60.     10.600      0.919         4.
         0.        60.     10.800      0.857         4.
         0.        60.     11.000      0.831         4.
         0.        60.     11.190      0.767         4.
         0.        60.     11.400      0.736         4.
         0.        60.     11.590      0.668         4.
         0.        60.     11.790      0.622         4.
         0.        60.     11.990      0.580         4.
         0.        60.     12.090      0.622         4.
         0.        60.     12.190      0.521         4.
         0.        60.     12.290      0.544         4.
         0.        60.     12.390      0.559         4.
         0.        60.     12.490      0.532         4.
         0.        60.     12.590      0.536         4.
         0.        60.     12.690      0.517         4.
         0.        60.     12.790      0.518         4.
         0.        60.     12.890      0.503         4.
         0.        60.     12.990      0.513         4.
         0.        60.     13.100      0.514         4.
         0.        60.     13.190      0.503         4.
         0.        60.     13.290      0.507         4.
         0.        60.     13.390      0.518         4.
         0.        60.     13.490      0.505         4.
         0.        60.     13.590      0.541         4.
         0.        60.     13.690      0.488         4.
         0.        60.     13.790      0.507         4.
         0.        60.     13.890      0.500         4.
         0.        60.     13.990      0.469         4.
         0.        60.     14.090      0.442         4.
         0.        60.     14.200      0.446         4.
         0.        60.     14.290      0.433         4.
         0.        60.     14.390      0.396         4.
         0.        60.     14.500      0.381         4.
         0.        60.     14.590      0.395         4.
         0.        60.     14.700      0.396         4.
         0.        60.     14.800      0.363         4.
         0.        60.     14.900      0.386         4.
         0.        60.     14.990      0.368         4.
         0.        60.     15.090      0.379         4.
         0.        60.     15.190      0.398         4.
         0.        60.     15.300      0.372         4.
         0.        60.     15.390      0.353         4.
         0.        60.     15.490      0.356         4.
         0.        60.     15.600      0.357         4.
         0.        60.     15.700      0.332         4.
         0.        60.     15.800      0.346         4.
         0.        60.     15.900      0.305         4.
         0.        60.     16.000      0.334         4.
         0.        60.     16.210      0.317         4.
         0.        60.     16.400      0.273         4.
         0.        60.     16.600      0.276         4.
         0.        60.     16.800      0.280         4.
         0.        60.     17.000      0.275         4.
         0.        60.     17.200      0.263         4.
         0.        60.     17.410      0.294         4.
         0.        60.     17.610      0.281         4.
         0.        60.     17.800      0.267         4.
         0.        60.     18.000      0.296         4.
         0.        60.     18.200      0.319         4.
         0.        90.      9.010      0.990         4.
         0.        90.      9.214      0.926         4.
         0.        90.      9.412      0.846         4.
         0.        90.      9.605      0.778         4.
         0.        90.      9.812      0.811         4.
         0.        90.     10.020      0.713         4.
         0.        90.     10.210      0.695         4.
         0.        90.     10.410      0.651         4.
         0.        90.     10.610      0.607         4.
         0.        90.     10.820      0.608         4.
         0.        90.     11.010      0.564         4.
         0.        90.     11.210      0.569         4.
         0.        90.     11.420      0.592         4.
         0.        90.     11.620      0.558         4.
         0.        90.     11.800      0.516         4.
         0.        90.     12.010      0.527         4.
         0.        90.     12.110      0.516         4.
         0.        90.     12.210      0.491         4.
         0.        90.     12.310      0.545         4.
         0.        90.     12.410      0.540         4.
         0.        90.     12.510      0.487         4.
         0.        90.     12.610      0.529         4.
         0.        90.     12.700      0.500         4.
         0.        90.     12.810      0.509         4.
         0.        90.     12.900      0.466         4.
         0.        90.     13.010      0.477         4.
         0.        90.     13.110      0.478         4.
         0.        90.     13.200      0.456         4.
         0.        90.     13.300      0.491         4.
         0.        90.     13.410      0.460         4.
         0.        90.     13.510      0.455         4.
         0.        90.     13.610      0.438         4.
         0.        90.     13.710      0.458         4.
         0.        90.     13.800      0.445         4.
         0.        90.     13.910      0.448         4.
         0.        90.     14.010      0.416         4.
         0.        90.     14.100      0.411         4.
         0.        90.     14.220      0.400         4.
         0.        90.     14.300      0.383         4.
         0.        90.     14.400      0.378         4.
         0.        90.     14.500      0.396         4.
         0.        90.     14.600      0.373         4.
         0.        90.     14.710      0.364         4.
         0.        90.     14.800      0.331         4.
         0.        90.     14.900      0.383         4.
         0.        90.     15.000      0.366         4.
         0.        90.     15.100      0.363         4.
         0.        90.     15.210      0.346         4.
         0.        90.     15.310      0.366         4.
         0.        90.     15.400      0.341         4.
         0.        90.     15.500      0.342         4.
         0.        90.     15.610      0.343         4.
         0.        90.     15.710      0.349         4.
         0.        90.     15.910      0.345         4.
         0.        90.     16.010      0.330         4.
         0.        90.     16.210      0.345         4.
         0.        90.     16.410      0.331         4.
         0.        90.     16.610      0.328         4.
         0.        90.     16.810      0.335         4.
         0.        90.     17.010      0.339         4.
         0.        90.     17.200      0.302         4.
         0.        90.     17.410      0.310         4.
         0.        90.     17.610      0.335         4.
         0.        90.     17.810      0.344         4.
         0.        90.     18.010      0.354         4.
         0.        90.     18.210      0.316         4.
         0.        90.     18.410      0.321         4.
         0.        90.     18.600      0.326         4.
         0.        90.     18.810      0.326         4.
         0.        90.     18.910      0.326         4.
         0.        90.     19.000      0.329         4.
         0.       150.      9.011      0.898         4.
         0.       150.      9.211      0.732         4.
         0.       150.      9.422      0.790         4.
         0.       150.      9.612      0.902         4.
         0.       150.     10.010      0.816         4.
         0.       150.     10.220      0.719         4.
         0.       150.     10.410      0.705         4.
         0.       150.     10.610      0.732         4.
         0.       150.     10.820      0.745         4.
         0.       150.     11.010      0.788         4.
         0.       150.     11.210      0.840         4.
         0.       150.     11.420      0.816         4.
         0.       150.     11.610      0.766         4.
         0.       150.     11.810      0.752         4.
         0.       150.     12.010      0.738         4.
         0.       150.     12.120      0.738         4.
         0.       150.     12.200      0.698         4.
         0.       150.     12.310      0.718         4.
         0.       150.     12.410      0.752         4.
         0.       150.     12.520      0.741         4.
         0.       150.     12.610      0.722         4.
         0.       150.     12.720      0.721         4.
         0.       150.     12.810      0.712         4.
         0.       150.     12.920      0.703         4.
         0.       150.     13.010      0.666         4.
         0.       150.     13.110      0.670         4.
         0.       150.     13.210      0.663         4.
         0.       150.     13.310      0.662         4.
         0.       150.     13.410      0.631         4.
         0.       150.     13.510      0.667         4.
         0.       150.     13.620      0.627         4.
         0.       150.     13.710      0.643         4.
         0.       150.     13.810      0.640         4.
         0.       150.     13.910      0.643         4.
         0.       150.     14.020      0.637         4.
         0.       150.     14.110      0.589         4.
         0.       150.     14.210      0.586         4.
         0.       150.     14.310      0.590         4.
         0.       150.     14.410      0.559         4.
         0.       150.     14.510      0.588         4.
         0.       150.     14.600      0.539         4.
         0.       150.     14.720      0.562         4.
         0.       150.     14.810      0.471         4.
         0.       150.     14.900      0.447         4.
         0.       150.     15.010      0.430         4.
         0.       150.     15.110      0.436         4.
         0.       150.     15.210      0.396         4.
         0.       150.     15.310      0.388         4.
         0.       150.     15.400      0.389         4.
         0.       150.     15.500      0.388         4.
         0.       150.     15.610      0.394         4.
         0.       150.     15.710      0.429         4.
         0.       150.     15.800      0.374         4.
         0.       150.     15.900      0.400         4.
         0.       150.     16.010      0.405         4.
         0.       150.     16.210      0.432         4.
         0.       150.     16.410      0.438         4.
         0.       150.     16.600      0.439         4.
         0.       150.     16.810      0.419         4.
         0.       150.     17.010      0.430         4.
         0.       150.     17.210      0.406         4.
         0.       150.     17.410      0.419         4.
         0.       150.     17.610      0.408         4.
         0.       150.     17.810      0.406         4.
         0.       150.     18.000      0.392         4.
         0.       150.     18.190      0.391         4.
         0.       150.     18.400      0.379         4.
         0.       150.     18.600      0.386         4.
         0.       150.     18.810      0.372         4.
         0.       150.     18.900      0.354         4.
         0.       150.     18.990      0.373         4.
       2.33        30.      8.950      2.416         8.
       2.33        30.      9.145      2.550         8.
       2.33        30.      9.345      2.619         8.
       2.33        30.      9.543      2.466         8.
       2.33        30.      9.739      2.457         8.
       2.33        30.      9.941      2.350         8.
       2.33        30.     10.150      2.293         8.
       2.33        30.     10.340      2.115         8.
       2.33        30.     10.540      1.890         8.
       2.33        30.     10.750      1.852         8.
       2.33        30.     10.940      1.764         8.
       2.33        30.     11.140      1.587         8.
       2.33        30.     11.340      1.551         8.
       2.33        30.     11.530      1.461         8.
       2.33        30.     11.740      1.490         8.
       2.33        30.     11.940      1.448         8.
       2.33        30.     12.040      1.327         8.
       2.33        30.     12.150      1.356         8.
       2.33        30.     12.240      1.358         8.
       2.33        30.     12.350      1.375         8.
       2.33        30.     12.450      1.411         8.
       2.33        30.     12.540      1.333         8.
       2.33        30.     12.550      1.313         8.
       2.33        30.     12.650      1.347         8.
       2.33        30.     12.750      1.396         8.
       2.33        30.     12.850      1.427         8.
       2.33        30.     12.940      1.366         8.
       2.33        30.     13.140      1.385         8.
       2.33        30.     13.170      1.444         8.
       2.33        30.     13.240      1.456         8.
       2.33        30.     13.330      1.606         8.
       2.33        30.     13.450      1.511         8.
       2.33        30.     13.550      1.683         8.
       2.33        30.     13.640      1.637         8.
       2.33        30.     13.750      1.679         8.
       2.33        30.     13.850      1.678         8.
       2.33        30.     13.950      1.658         8.
       2.33        30.     14.050      1.670         8.
       2.33        30.     14.140      1.590         8.
       2.33        30.     14.240      1.723         8.
       2.33        30.     14.350      1.540         8.
       2.33        30.     14.450      1.591         8.
       2.33        30.     14.550      1.557         8.
       2.33        30.     14.650      1.591         8.
       2.33        30.     14.750      1.573         8.
       2.33        30.     14.840      1.598         8.
       2.33        30.     14.950      1.582         8.
       2.33        30.     15.050      1.606         8.
       2.33        30.     15.240      1.720         8.
       2.33        30.     15.450      1.722         8.
       2.33        30.     15.650      1.776         8.
       2.33        30.     15.850      1.843         8.
       2.33        30.     16.150      1.832         8.
       2.33        30.     16.350      1.731         8.
       2.33        30.     16.550      1.592         8.
       2.33        30.     16.750      1.557         8.
       2.33        30.     16.960      1.517         8.
       2.33        30.     17.150      1.493         8.
       2.33        30.     17.350      1.524         8.
       2.33        30.     17.560      1.470         8.
       2.33        30.     17.750      1.481         8.
       2.33        30.     17.960      1.415         8.
       2.33        30.     18.160      1.305         8.
       2.33        30.     18.360      1.309         8.
       2.33        30.     18.560      1.304         8.
       2.33        30.     18.780      1.240         8.
       2.33        30.     18.860      1.393         8.
       2.33        30.     18.960      1.335         8.
       2.33        60.      9.007      1.547         8.
       2.33        60.      9.214      1.546         8.
       2.33        60.      9.412      1.471         8.
       2.33        60.      9.607      1.432         8.
       2.33        60.      9.806      1.354         8.
       2.33        60.      9.995      1.281         8.
       2.33        60.     10.200      1.177         8.
       2.33        60.     10.400      1.108         8.
       2.33        60.     10.600      1.107         8.
       2.33        60.     10.800      1.027         8.
       2.33        60.     10.990      0.980         8.
       2.33        60.     11.200      0.888         8.
       2.33        60.     11.400      0.884         8.
       2.33        60.     11.600      0.788         8.
       2.33        60.     11.800      0.757         8.
       2.33        60.     11.990      0.696         8.
       2.33        60.     12.100      0.673         8.
       2.33        60.     12.190      0.665         8.
       2.33        60.     12.290      0.691         8.
       2.33        60.     12.400      0.668         8.
       2.33        60.     12.490      0.694         8.
       2.33        60.     12.600      0.663         8.
       2.33        60.     12.700      0.629         8.
       2.33        60.     12.790      0.691         8.
       2.33        60.     12.900      0.650         8.
       2.33        60.     13.000      0.606         8.
       2.33        60.     13.100      0.605         8.
       2.33        60.     13.200      0.605         8.
       2.33        60.     13.400      0.608         8.
       2.33        60.     13.500      0.622         8.
       2.33        60.     13.600      0.610         8.
       2.33        60.     13.690      0.601         8.
       2.33        60.     13.890      0.532         8.
       2.33        60.     14.000      0.572         8.
       2.33        60.     14.100      0.576         8.
       2.33        60.     14.190      0.535         8.
       2.33        60.     14.300      0.545         8.
       2.33        60.     14.350      0.542         8.
       2.33        60.     14.400      0.542         8.
       2.33        60.     14.500      0.487         8.
       2.33        60.     14.600      0.428         8.
       2.33        60.     14.700      0.468         8.
       2.33        60.     14.800      0.430         8.
       2.33        60.     14.910      0.419         8.
       2.33        60.     15.000      0.447         8.
       2.33        60.     15.110      0.394         8.
       2.33        60.     15.200      0.447         8.
       2.33        60.     15.300      0.466         8.
       2.33        60.     15.400      0.454         8.
       2.33        60.     15.500      0.456         8.
       2.33        60.     15.600      0.447         8.
       2.33        60.     15.700      0.402         8.
       2.33        60.     15.800      0.459         8.
       2.33        60.     15.910      0.426         8.
       2.33        60.     16.010      0.420         8.
       2.33        60.     16.210      0.405         8.
       2.33        60.     16.410      0.430         8.
       2.33        60.     16.810      0.441         8.
       2.33        60.     17.010      0.386         8.
       2.33        60.     17.220      0.395         8.
       2.33        60.     17.420      0.387         8.
       2.33        60.     17.610      0.408         8.
       2.33        60.     17.820      0.408         8.
       2.33        60.     18.020      0.371         8.
       2.33        60.     18.220      0.412         8.
       2.33        60.     18.420      0.452         8.
       2.33        60.     18.610      0.454         8.
       2.33        90.      8.985      0.909         8.
       2.33        90.      9.191      0.918         8.
       2.33        90.      9.386      0.839         8.
       2.33        90.      9.582      0.838         8.
       2.33        90.      9.793      0.786         8.
       2.33        90.      9.984      0.810         8.
       2.33        90.     10.190      0.749         8.
       2.33        90.     10.390      0.714         8.
       2.33        90.     10.590      0.723         8.
       2.33        90.     10.790      0.706         8.
       2.33        90.     10.990      0.653         8.
       2.33        90.     11.180      0.626         8.
       2.33        90.     11.390      0.668         8.
       2.33        90.     11.590      0.667         8.
       2.33        90.     11.780      0.610         8.
       2.33        90.     11.990      0.580         8.
       2.33        90.     12.090      0.521         8.
       2.33        90.     12.190      0.598         8.
       2.33        90.     12.290      0.596         8.
       2.33        90.     12.380      0.591         8.
       2.33        90.     12.490      0.563         8.
       2.33        90.     12.590      0.566         8.
       2.33        90.     12.690      0.572         8.
       2.33        90.     12.790      0.604         8.
       2.33        90.     12.890      0.618         8.
       2.33        90.     12.990      0.555         8.
       2.33        90.     13.090      0.666         8.
       2.33        90.     13.190      0.627         8.
       2.33        90.     13.280      0.686         8.
       2.33        90.     13.390      0.671         8.
       2.33        90.     13.490      0.642         8.
       2.33        90.     13.590      0.668         8.
       2.33        90.     13.790      0.646         8.
       2.33        90.     13.890      0.584         8.
       2.33        90.     13.990      0.633         8.
       2.33        90.     14.090      0.610         8.
       2.33        90.     14.200      0.589         8.
       2.33        90.     14.290      0.585         8.
       2.33        90.     14.380      0.591         8.
       2.33        90.     14.490      0.629         8.
       2.33        90.     14.590      0.547         8.
       2.33        90.     14.690      0.555         8.
       2.33        90.     14.790      0.541         8.
       2.33        90.     14.890      0.522         8.
       2.33        90.     14.990      0.522         8.
       2.33        90.     15.090      0.593         8.
       2.33        90.     15.190      0.582         8.
       2.33        90.     15.290      0.531         8.
       2.33        90.     15.390      0.559         8.
       2.33        90.     15.490      0.555         8.
       2.33        90.     15.590      0.585         8.
       2.33        90.     15.680      0.562         8.
       2.33        90.     15.790      0.584         8.
       2.33        90.     15.900      0.588         8.
       2.33        90.     16.000      0.551         8.
       2.33        90.     16.200      0.575         8.
       2.33        90.     16.400      0.546         8.
       2.33        90.     16.600      0.539         8.
       2.33        90.     16.800      0.506         8.
       2.33        90.     17.000      0.446         8.
       2.33        90.     17.210      0.413         8.
       2.33        90.     17.420      0.406         8.
       2.33        90.     17.610      0.381         8.
       2.33        90.     17.810      0.372         8.
       2.33        90.     18.020      0.313         8.
       2.33        90.     18.210      0.322         8.
       2.33        90.     18.420      0.293         8.
       2.33        90.     18.610      0.303         8.
       2.33        90.     18.830      0.276         8.
       2.33        90.     18.920      0.249         8.
       2.33        90.     19.010      0.299         8.
       2.33       150.      8.998      0.742         8.
       2.33       150.     10.600      0.832         8.
       2.33       150.     10.800      0.878         8.
       2.33       150.     11.000      0.926         8.
       2.33       150.     11.190      0.937         8.
       2.33       150.     11.390      0.985         8.
       2.33       150.     11.590      0.974         8.
       2.33       150.     11.790      1.030         8.
       2.33       150.     11.980      1.109         8.
       2.33       150.     12.090      1.118         8.
       2.33       150.     12.190      1.207         8.
       2.33       150.     12.290      1.229         8.
       2.33       150.     12.380      1.229         8.
       2.33       150.     12.490      1.249         8.
       2.33       150.     12.690      1.317         8.
       2.33       150.     12.790      1.365         8.
       2.33       150.     12.890      1.395         8.
       2.33       150.     13.080      1.423         8.
       2.33       150.     13.190      1.457         8.
       2.33       150.     13.280      1.416         8.
       2.33       150.     13.380      1.489         8.
       2.33       150.     13.590      1.431         8.
       2.33       150.     13.690      1.397         8.
       2.33       150.     13.790      1.429         8.
       2.33       150.     13.890      1.337         8.
       2.33       150.     14.000      1.292         8.
       2.33       150.     14.090      1.235         8.
       2.33       150.     14.190      1.170         8.
       2.33       150.     14.290      1.115         8.
       2.33       150.     14.390      1.007         8.
       2.33       150.     14.470      1.027         8.
       2.33       150.     14.580      0.873         8.
       2.33       150.     14.680      0.838         8.
       2.33       150.     14.790      0.793         8.
       2.33       150.     14.890      0.811         8.
       2.33       150.     14.990      0.770         8.
       2.33       150.     15.090      0.766         8.
       2.33       150.     15.190      0.717         8.
       2.33       150.     15.290      0.723         8.
       2.33       150.     15.390      0.704         8.
       2.33       150.     15.480      0.716         8.
       2.33       150.     15.590      0.665         8.
       2.33       150.     15.690      0.652         8.
       2.33       150.     15.780      0.587         8.
       2.33       150.     15.890      0.613         8.
       2.33       150.     15.980      0.576         8.
       2.33       150.     16.200      0.482         8.
       2.33       150.     16.400      0.482         8.
       2.33       150.     16.590      0.408         8.
       2.33       150.     16.800      0.357         8.
       2.33       150.     17.000      0.322         8.
       2.33       150.     17.200      0.333         8.
       2.33       150.     17.410      0.286         8.
       2.33       150.     17.610      0.269         8.
       2.33       150.     17.810      0.262         8.
       2.33       150.     18.010      0.249         8.
       2.33       150.     18.210      0.227         8.
       2.33       150.     18.410      0.214         8.
       2.33       150.     18.610      0.215         8.
       2.33       150.     18.810      0.212         8.
       2.33       150.     18.910      0.210         8.
       2.33       150.     19.000      0.203         8.
ENDDATA            546
ENDSUBENT          567
ENDENTRY             5
