ENTRY            F0486   20070730   20070824   20070807       F028
SUBENT        F0486001   20070730   20070824   20070807       F028
BIB                 10         19
TITLE      Energy levels of 14N from the elastic scattering
           of alpha particles by 10B.
AUTHOR     (T.Mo,H.R.Weller)
INSTITUTE  (1USAFLA)
REFERENCE  (J,PR/C,8,972,1973)
SAMPLE     The target was a thin self-supporting foil of
           10B (enriched to 93%) of thickness 14 mu-g/cm**2
METHOD     (PHD)
FACILITY   (VDG)
DETECTOR   (SOLST) Three silicon surface-barrier detectors
ERR-ANALYS (EN-ERR-DIG) Energy digitizing error
           (DATA-ERR) Error in the absolute cross-sections
           measurements
           (ERR-DIG) Data digitizing error
           (ERR-S) Statistical error from the error bars
HISTORY    (19920512C)
           (20070625A)Lab. system was changed in c.m.s.; low case
           in the AUTHOR record was introduced; error definition
           was changed.
ENDBIB              19
COMMON               3          3
DATA-ERR   ERR-DIG    EN-ERR-DIG
PER-CENT   MEV        MEV
3.0        0.23       0.005
ENDCOMMON            3
ENDSUBENT           26
SUBENT        F0486002   20070730   20070824   20070807       F028
BIB                  2          2
REACTION   (5-B-10(A,EL)5-B-10,,DA,,,EXP)
STATUS     (CURVE) Fig.2
ENDBIB               2
NOCOMMON             0          0
DATA                 4        635
ANG-CM     EN         DATA-CM    ERR-S
ADEG       MEV        MB/SR      MB/SR
       67.8      2.023      767.2
       67.8      2.041      657.4
       67.8      2.066      651.1
       67.8      2.083      686.1
       67.8      2.103      608.3
       67.8      2.123       630.
       67.8      2.163      612.1
       67.8       2.18       602.
       67.8      2.203      605.1
       67.8      2.225      527.2
       67.8      2.241      493.7
       67.8      2.262      458.6
       67.8      2.284      419.7
       67.8      2.303       341.
       67.8       2.32      350.4
       67.8      2.325      295.1
       67.8      2.358      312.9
       67.8      2.385      320.7
       67.8      2.398      333.9
       67.8      2.423      344.8
       67.8      2.444      352.6
       67.8      2.461      333.1
       67.8      2.488      336.2
       67.8      2.503      328.4
       67.8      2.523      335.4
       67.8      2.541      308.9
       67.8      2.563      315.1
       67.8      2.586      321.3      13.24
       67.8      2.606      309.6
       67.8       2.62      298.7
       67.8      2.639      282.3
       67.8      2.665      280.8
       67.8      2.688      282.3
       67.8      2.698      265.2
       67.8      2.721      270.6
       67.8      2.746      271.4
       67.8      2.759      247.2
       67.8      2.786      242.5
       67.8      2.803      237.1
       67.8      2.826      231.6
       67.8      2.842      205.9
       67.8      2.844      205.9
       67.8      2.858      193.4
       67.8      2.881       191.
       67.8      2.882      191.8
       67.8      2.904      197.3
       67.8      2.919       177.
       67.8      2.942      181.7
       67.8      2.959      175.4
       67.8      2.982      179.3
       67.8      3.003      184.7
       67.8      3.024      173.8
       67.8      3.041      179.2
       67.8      3.062      176.9
       67.8      3.085      176.9
       67.8        3.1      169.1
       67.8      3.123       169.
       67.8      3.146      169.8
       67.8      3.164      165.1
       67.8      3.188      165.9
       67.8      3.198      156.5
       67.8      3.225      153.4      14.79
       67.8      3.248       151.
       67.8      3.265      159.6
       67.8      3.286      155.7
       67.8      3.303      152.5
       67.8      3.326      149.4
       67.8      3.347      151.7
       67.8      3.366      150.9
       67.8      3.384      146.3
       67.8       3.43      150.9
       67.8      3.445      154.8
       67.8      3.464      152.4
       67.8      3.485      155.5
       67.8      3.508      151.6
       67.8      3.527       157.
       67.8      3.542      145.3
       67.8      3.567      148.4
       67.8      3.583      146.1
       67.8      3.609      143.7
       67.8      3.626      135.9
       67.8      3.672      135.9
       67.8      3.684      127.3
       67.8      3.726      124.2
       67.8      3.745      111.7
       67.8      3.766      120.2
       67.8      3.787      117.1
       67.8      3.806      111.6
       67.8      3.827       107.
       67.8      3.846      114.7
       67.8      3.865      106.1
       67.8      3.881      114.7
       67.8      3.911      115.5
       67.8      3.931      109.2
       67.8      3.948      109.2
       67.8      3.967      102.2
       67.8       3.98      92.04
       67.8      4.011      91.23
       67.8      4.034      85.76
       67.8      4.047      77.19      14.01
       67.8       4.07      77.95
       67.8      4.095      81.04
       67.8      4.104      93.49
       67.8      4.126       102.
       67.8      4.149       123.
       67.8      4.174      120.7
       67.8      4.187      115.2
       67.8      4.214      113.6
       67.8      4.223      103.5
       67.8      4.246      93.37
       67.8      4.273      92.57
       67.8       4.29      86.33
       89.7      2.026      333.6
       89.7      2.038      315.8
       89.7       2.06      308.9
       89.7      2.074      299.1
       89.7      2.096      295.3
       89.7      2.118      290.3
       89.7      2.135      260.8
       89.7      2.159      261.2
       89.7      2.185      261.1
       89.7      2.201       246.
       89.7      2.223      234.2
       89.7      2.242      211.1
       89.7      2.261      187.6
       89.7      2.276       155.
       89.7      2.296      114.1
       89.7      2.318      143.7
       89.7      2.333      155.4
       89.7      2.357      189.5
       89.7      2.383      192.9
       89.7        2.4      198.2
       89.7      2.419      203.5
       89.7      2.436      211.4
       89.7      2.462      218.6
       89.7      2.478      213.3
       89.7      2.497      209.5
       89.7       2.52      196.6
       89.7      2.533      189.8
       89.7      2.581      194.7      7.196
       89.7      2.593      182.5
       89.7      2.625      182.5
       89.7      2.637      176.8
       89.7      2.658      173.8
       89.7      2.676      171.5
       89.7        2.7       170.
       89.7      2.714      162.8
       89.7       2.74      161.3
       89.7      2.758      155.6
       89.7      2.774      148.4
       89.7      2.798      137.7
       89.7      2.824      133.2
       89.7       2.84      123.7
       89.7      2.857      127.1
       89.7      2.877      130.9
       89.7      2.898      132.8
       89.7      2.922      134.3
       89.7      2.939      145.3
       89.7      2.959      149.4
       89.7      2.976      146.8
       89.7         3.       149.
       89.7       3.02      155.1
       89.7      3.037      147.5
       89.7      3.057      149.7
       89.7      3.083      148.2
       89.7      3.098       144.
       89.7      3.122      147.8
       89.7      3.136      144.8
       89.7       3.16      145.5
       89.7      3.177      138.7
       89.7      3.202      136.8      6.439
       89.7      3.225      142.5
       89.7      3.236      134.1
       89.7      3.263      133.7
       89.7      3.282      138.3
       89.7      3.298      129.9
       89.7      3.318       122.
       89.7      3.339       125.
       89.7      3.359      118.9
       89.7      3.381      117.8
       89.7      3.419      118.5
       89.7      3.436      113.2
       89.7      3.464      113.9
       89.7      3.486      110.5
       89.7      3.494      102.9
       89.7      3.524      101.8
       89.7      3.542      94.59
       89.7      3.566      100.6
       89.7      3.584      88.13
       89.7      3.604      86.23
       89.7      3.621       84.7
       89.7      3.647      83.18
       89.7      3.657      74.08
       89.7      3.685      72.55
       89.7      3.703      68.75
       89.7      3.727      68.74
       89.7      3.742      72.14
       89.7      3.763      72.51
       89.7      3.785      71.37
       89.7      3.801      66.43
       89.7      3.823      67.18
       89.7      3.845      67.93
       89.7      3.862      64.89
       89.7      3.888      63.74
       89.7      3.904      59.19
       89.7      3.919      55.77
       89.7      3.945       56.9
       89.7      3.963      56.13
       89.7      3.979      50.44
       89.7         4.      49.29
       89.7      4.026      49.28      7.196
       89.7      4.044      49.65
       89.7      4.064      52.29
       89.7      4.085      64.02
       89.7       4.11      74.62
       89.7      4.121      84.08
       89.7      4.148      90.13
       89.7      4.169      81.41
       89.7      4.186      74.96
       89.7      4.207      70.03
       89.7      4.228      66.61
       89.7      4.242      63.57
       89.7      4.266      63.94
       89.7      4.283      61.66
       89.7      4.309      59.75
      113.5      2.022      203.5
      113.5      2.038       156.
      113.5      2.061      159.8
      113.5       2.08      176.9
      113.5      2.096      139.2
      113.5      2.115      130.2
      113.5      2.138      134.4
      113.5      2.158      119.2
      113.5       2.18      91.16
      113.5      2.193      77.13
      113.5      2.218       69.7
      113.5      2.238      59.94
      113.5      2.259       63.8
      113.5      2.278      68.44
      113.5      2.299       90.2
      113.5      2.319      113.5
      113.5      2.339      104.9
      113.5      2.358      111.1
      113.5      2.381      111.1
      113.5      2.398       106.
      113.5      2.418      105.2
      113.5      2.435      96.99
      113.5       2.46      93.06
      113.5       2.48      93.03      6.615
      113.5      2.501      91.44
      113.5      2.531      88.67
      113.5      2.557      87.85
      113.5      2.574      82.38
      113.5      2.597      77.28
      113.5      2.618       79.2
      113.5       2.64      69.04
      113.5      2.672       65.1
      113.5      2.717      62.31
      113.5       2.74      59.94
      113.5      2.757      54.08
      113.5      2.778      55.21
      113.5      2.796      50.12
      113.5      2.819      47.36
      113.5      2.857      48.86
      113.5      2.876      56.23
      113.5      2.902      56.18
      113.5      2.921      59.66
      113.5      2.957      60.77
      113.5      2.981      63.84
      113.5       3.01       67.3
      113.5      3.038      64.92
      113.5      3.061      60.61
      113.5      3.081      62.91
      113.5      3.098       58.6
      113.5      3.123       57.4
      113.5      3.149      54.24
      113.5      3.181      54.19       7.01
      113.5      3.204      50.66
      113.5      3.217      46.74
      113.5       3.24      49.82
      113.5      3.262      47.84
      113.5      3.289      43.52
      113.5      3.319      40.75
      113.5      3.351      37.98
      113.5      3.377      34.82
      113.5      3.411       33.6
      113.5      3.437      31.23
      113.5      3.473      29.23
      113.5      3.511      27.22
      113.5      3.549      26.77
      113.5      3.579      25.95
      113.5      3.611       25.9
      113.5      3.643      25.07
      113.5      3.677      25.02
      113.5      3.713      24.96
      113.5      3.741      26.08
      113.5      3.769      28.37
      113.5      3.799      28.72
      113.5      3.833      29.05
      113.5      3.871      27.44
      113.5      3.901      28.56
      113.5      3.926       25.8
      113.5      3.956      27.31
      113.5       3.98      28.82
      113.5      4.011      30.33
      113.5      4.037      33.02
      113.5      4.064      32.97
      113.5      4.075      38.79
      113.5      4.101      39.92      7.393
      113.5      4.126      37.94
      113.5      4.145      35.18
      113.5      4.167      30.87
      113.5      4.199      29.26
      113.5      4.228      27.27
      113.5      4.252      22.56
      113.5      4.275      26.81
      113.5      4.305      24.43
      141.8      2.021      89.79
      141.8      2.046      91.65
      141.8      2.058       85.6
      141.8      2.079      80.86
      141.8      2.098      82.92
      141.8      2.116      76.29
      141.8      2.136      71.55
      141.8      2.153      66.63
      141.8      2.175      63.02
      141.8      2.198      60.17
      141.8      2.216      54.68
      141.8      2.237      53.33
      141.8      2.265      52.17
      141.8      2.279      60.46
      141.8      2.295      82.33
      141.8      2.319       97.4
      141.8      2.333      109.6
      141.8      2.354      119.4
      141.8      2.377      115.8
      141.8      2.391      109.8
      141.8      2.418      109.7
      141.8       2.44      108.8
      141.8      2.453      105.9
      141.8      2.477      103.5      3.964
      141.8      2.495      93.24
      141.8       2.52      90.77
      141.8      2.536      86.22
      141.8      2.561      85.44
      141.8      2.577      79.95
      141.8      2.598      78.42
      141.8       2.62      77.64
      141.8      2.641      77.62
      141.8      2.654      73.08
      141.8      2.678      71.35
      141.8      2.695       68.5
      141.8      2.719      67.91
      141.8      2.746      66.37
      141.8      2.762      64.85
      141.8      2.779        62.
      141.8      2.797      57.26
      141.8      2.835      59.49
      141.8      2.857      67.58
      141.8      2.873      65.48
      141.8      2.898      66.78
      141.8       2.92      65.81
      141.8      2.943      64.28
      141.8      2.959      58.22
      141.8      2.982      57.82
      141.8      3.004      56.66
      141.8      3.019      51.93
      141.8      3.047      50.58
      141.8      3.079      48.47
      141.8      3.094      44.87
      141.8      3.118      42.77
      141.8      3.137      40.86
      141.8      3.153      37.45
      141.8      3.185      36.47      3.773
      141.8      3.202      33.43
      141.8      3.237      29.81
      141.8      3.266      28.84
      141.8      3.282      25.42
      141.8      3.321       20.1
      141.8       3.34      17.63
      141.8      3.372      15.14
      141.8      3.417       14.9
      141.8      3.454      14.48
      141.8      3.487      15.58
      141.8      3.515      16.68
      141.8      3.547      16.27
      141.8      3.551      19.66
      141.8      3.589      20.76
      141.8      3.628      22.03
      141.8      3.655      25.59
      141.8      3.674      28.02
      141.8        3.7      28.18
      141.8      3.716      32.51
      141.8      3.738      36.07
      141.8      3.759      40.95
      141.8      3.782      39.79
      141.8      3.799      43.55
      141.8      3.813      47.12
      141.8      3.837      49.36
      141.8      3.862      49.33
      141.8      3.879      52.33
      141.8      3.915      53.61
      141.8      3.937      55.48
      141.8       3.96      53.38
      141.8      3.977      56.94
      141.8       4.02      57.27
      141.8      4.036      61.03
      141.8      4.062      62.89
      141.8      4.076      70.99
      141.8      4.099      74.74      4.153
      141.8      4.125      73.95
      141.8      4.141      63.18
      141.8      4.162      42.78
      141.8      4.182      32.01
      141.8        4.2      27.27
      141.8      4.217      24.42
      141.8      4.245      22.13
      141.8      4.277      23.98
      141.8        4.3      26.03
      154.9      2.089      64.64
      154.9      2.113       61.2
      154.9      2.132      57.96
      154.9      2.155      51.72
      154.9      2.172      42.09
      154.9      2.199      51.24
      154.9      2.214      43.22
      154.9      2.238      43.38
      154.9      2.258      59.74
      154.9      2.278       79.9
      154.9      2.295      91.27
      154.9      2.313      102.6
      154.9      2.338       82.4
      154.9      2.358      83.56
      154.9      2.375      78.13
      154.9      2.399      80.09
      154.9      2.418      73.06
      154.9      2.433      78.83
      154.9      2.451        65.
      154.9       2.47      61.97
      154.9      2.488      58.33
      154.9      2.518      58.68
      154.9      2.534      61.65      3.995
      154.9      2.553      58.62
      154.9      2.573      53.19
      154.9      2.593      58.95
      154.9      2.615      54.11
      154.9      2.633      45.28
      154.9      2.655      46.44
      154.9      2.681       46.4
      154.9      2.694      38.17
      154.9      2.714      40.94
      154.9      2.735       49.1
      154.9      2.754      41.27
      154.9      2.775      33.63
      154.9      2.793       37.2
      154.9      2.815      37.76
      154.9      2.835      39.92
      154.9      2.856      29.29
      154.9      2.873      37.66
      154.9      2.897      38.82
      154.9       2.91      34.19
      154.9      2.932      35.35
      154.9       2.96       35.1
      154.9       2.98      34.87
      154.9      2.998      36.44
      154.9      3.017      28.01
      154.9      3.032      22.98
      154.9      3.056      22.74
      154.9      3.074      24.11
      154.9      3.093      23.07
      154.9      3.117      21.23
      154.9      3.139      20.19
      154.9      3.159      19.36
      154.9      3.176      16.13
      154.9      3.194      14.29
      154.9      3.229      12.63
      154.9      3.257      11.98
      154.9      3.283      11.14      3.799
      154.9        3.3      9.707
      154.9      3.316      9.479
      154.9      3.326      8.262
      154.9      3.344      6.431
      154.9      3.376      7.174
      154.9      3.401      7.329
      154.9      3.435      7.069
      154.9      3.463       7.82
      154.9      3.495      8.964
      154.9      3.519      10.32
      154.9      3.547      11.27
      154.9      3.577      11.82
      154.9      3.595      14.39
      154.9      3.623      15.14
      154.9      3.635      17.12
      154.9      3.659      17.87
      154.9      3.673      21.65
      154.9      3.693      22.41
      154.9      3.721      24.16
      154.9      3.736      28.14
      154.9      3.752      31.31
      154.9      3.774      32.27
      154.9      3.798      33.03
      154.9       3.82      37.39
      154.9      3.842      37.95
      154.9      3.858      39.72
      154.9      3.875      43.49
      154.9      3.897      44.85
      154.9      3.921      48.61
      154.9      3.943      50.17
      154.9      3.956      47.55
      154.9       3.98      47.11
      154.9      4.002      48.47
      154.9       4.02      50.24
      154.9       4.04       51.2
      154.9      4.066      52.35
      154.9      4.159      43.99
      154.9      4.177      31.56
      154.9      4.198      22.52
      154.9      4.219      18.09
      154.9      4.241      16.65
      154.9      4.265      16.01
      154.9      4.286      17.17
      169.1      2.026      78.62
      169.1      2.041      74.24
      169.1      2.059      61.37
      169.1       2.08      70.02
      169.1      2.099      64.65
      169.1      2.119      67.19
      169.1       2.14      59.44
      169.1      2.158      53.48
      169.1      2.178      51.87
      169.1      2.204       53.4
      169.1      2.221      51.59
      169.1      2.245      50.56
      169.1      2.261      55.47
      169.1      2.285      64.13
      169.1      2.302      85.04
      169.1      2.316      100.8
      169.1       2.34      112.6
      169.1      2.365      111.6
      169.1      2.379      110.2
      169.1      2.394      102.7
      169.1      2.423       102.
      169.1      2.435      92.11
      169.1      2.463      93.45
      169.1      2.481      97.37
      169.1      2.481      83.14
      169.1        2.5      86.66      3.951
      169.1      2.524       80.3
      169.1      2.542      78.68
      169.1      2.559      75.89
      169.1      2.579      73.28
      169.1      2.598      70.09
      169.1      2.617      67.29
      169.1      2.639      67.45
      169.1      2.662      65.43
      169.1      2.678      63.42
      169.1        2.7      64.37
      169.1      2.725      61.96
      169.1      2.736      59.17
      169.1      2.756      57.36
      169.1      2.773      54.95
      169.1      2.801      54.51
      169.1       2.82      53.29
      169.1      2.837      55.83
      169.1      2.856      53.03
      169.1       2.88      54.17
      169.1      2.899      50.19
      169.1      2.918      48.77
      169.1       2.94      47.15
      169.1      2.957      40.99
      169.1      2.976      39.77
      169.1      3.004      40.91
      169.1      3.019      37.13
      169.1       3.04      33.73
      169.1      3.058      32.71
      169.1      3.074       30.9
      169.1      3.093      26.92
      169.1      3.116       25.3
      169.1      3.142      26.63
      169.1      3.155      21.67
      169.1      3.185      21.81
      169.1      3.216      17.21
      169.1      3.242      17.96
      169.1      3.261      13.97
      169.1      3.276      11.97
      169.1      3.298      13.12      3.954
      169.1      3.307      10.14
      169.1      3.337      8.502
      169.1      3.362      8.061
      169.1      3.392      9.193
      169.1      3.422      9.338
      169.1      3.442        9.5
      169.1      3.458      12.44
      169.1      3.476      15.17
      169.1      3.502      13.35
      169.1      3.518      15.49
      169.1      3.542      15.84
      169.1      3.558      18.38
      169.1      3.578      19.73
      169.1      3.599      19.69
      169.1      3.616      22.23
      169.1       3.64      23.77
      169.1      3.656      26.51
      169.1      3.676      28.25
      169.1      3.698      29.79
      169.1      3.714      33.71
      169.1      3.734      42.18
      169.1      3.755      40.95
      169.1      3.777      45.46
      169.1      3.798      48.19
      169.1      3.814       52.7
      169.1      3.836      53.26
      169.1      3.851      59.95
      169.1      3.879      62.07
      169.1      3.898      66.78
      169.1      3.917      66.55
      169.1      3.936      70.47
      169.1      3.957      65.69
      169.1      3.977      68.22
      169.1      3.996      67.59
      169.1      4.016      69.34
      169.1      4.034      79.18
      169.1      4.054      84.68
      169.1      4.076      105.2
      169.1      4.098       120.
      169.1      4.116      124.1      3.951
      169.1      4.137      107.3
      169.1      4.152      76.21
      169.1      4.172      51.08
      169.1      4.197      36.21
      169.1      4.215      28.28
      169.1      4.234      21.72
      169.1      4.262      21.47
      169.1      4.285      21.23
      169.1      4.307      21.39
ENDDATA            637
ENDSUBENT          644
ENDENTRY             2
