ENTRY            F0493   20030516   20030930
SUBENT        F0493001   20030516   20030930
BIB                  9         23
TITLE      Optical-model analysis of alpha-particle scattering by
           Ca-40 from 12 to 18 MeV
AUTHOR     (C.P.ROBINSON,J.P.ALDRIDGE,JOSEPH JOHN,R.H.DAVIS)
INSTITUTE  (1USAFSU)
REFERENCE  (J,PR,171,1241,196807)
SAMPLE     Targets were prepared by evaporating natural calcium
           metal onto thin carbon backings.Four targets were used
           which varied in thickness from 40 to 80 mu-g/cm**2.
DETECTOR   (SIBAR) Sixteen surface-barrier detectors placed in a
           multiple detector array at 10 degree intervals
           comprised the detection system.
METHOD     (PHD)
ERR-ANALYS (ERR-1) Systematic error.This was estimated as:
            * 0.5% due to beam integration accuracy,
            * 2% for solid-angle determination,
            * 3% for normalization,
            * 1.5% for errors in making the dead-time corrections.
           Because of the large variation in the magnitude of the
           differential cross sections there is a large variation
           of the statistical cotribution to the error for each
           point. The error on a cross section of 1 mb/sr is 3%.
HISTORY    (20010215C)
           (20030505U) Changed headings in sub.003
ENDBIB              23
COMMON               1          3
ERR-1
PER-CENT
  5.0
ENDCOMMON            3
ENDSUBENT           30
SUBENT        F0493002   20010305   20030430
BIB                  3          4
REACTION   (20-CA-40(A,EL)20-CA-40,,DA)
ERR-ANALYS (EN-ERR) Digitizing error
           (DATA-ERR) Digitizing error
STATUS     (CURVE) Fig.2,3
ENDBIB               4
COMMON               1          3
EN-ERR
MEV
 0.01
ENDCOMMON            3
DATA                 4       1304
ANG-CM     EN         DATA       DATA-ERR
ADEG       MEV        MB/SR      MB/SR
  59.00      12.01      112.8     0.4000
  59.00      12.02      98.56     0.4000
  59.00      12.05      97.64     0.4000
  59.00      12.07      99.82     0.4000
  59.00      12.09      122.5     0.4000
  59.00      12.12      111.9     0.4000
  59.00      12.15      112.6     0.4000
  59.00      12.19      105.4     0.4000
  59.00      12.21      114.8     0.4000
  59.00      12.23      113.5     0.4000
  59.00      12.26      99.25     0.4000
  59.00      12.27      103.6     0.4000
  59.00      12.31      108.3     0.4000
  59.00      12.34      115.1     0.4000
  59.00      12.36      112.3     0.4000
  59.00      12.38      97.73     0.4000
  59.00      12.41      100.8     0.4000
  59.00      12.43      99.61     0.4000
  59.00      12.45      99.00     0.4000
  59.00      12.48      101.8     0.4000
  59.00      12.51      97.15     0.4000
  59.00      12.53      99.02     0.4000
  59.00      12.57      99.96     0.4000
  59.00      12.61      86.94     0.4000
  59.00      12.63      99.35     0.4000
  59.00      12.67      107.7     0.4000
  59.00      12.70      106.2     0.4000
  59.00      12.73      101.6     0.4000
  59.00      12.76      101.6     0.4000
  59.00      12.79      100.6     0.4000
  59.00      12.82      99.41     0.4000
  59.00      12.86      101.0     0.4000
  59.00      12.89      98.49     0.4000
  59.00      12.93      88.27     0.4000
  59.00      12.96      68.42     0.4000
  59.00      12.99      83.63     0.4000
  59.00      13.02      87.05     0.4000
  59.00      13.04      87.06     0.4000
  59.00      13.10      81.80     0.4000
  59.00      13.13      94.53     0.4000
  59.00      13.15      90.81     0.4000
  59.00      13.18      98.26     0.4000
  59.00      13.20      100.1     0.4000
  59.00      13.26      91.77     0.4000
  59.00      13.28      74.40     0.4000
  59.00      13.31      65.73     0.4000
  59.00      13.35      66.67     0.4000
  59.00      13.39      86.22     0.4000
  59.00      13.45      67.62     0.4000
  59.00      13.48      70.11     0.4000
  59.00      13.52      61.44     0.4000
  59.00      13.53      70.13     0.4000
  59.00      13.56      75.10     0.4000
  59.00      13.62      77.91     0.4000
  59.00      13.66      79.47     0.4000
  59.00      13.70      71.73     0.4000
  59.00      13.74      74.22     0.4000
  59.00      13.76      66.16     0.4000
  59.00      13.79      64.93     0.4000
  59.00      13.80      60.58     0.4000
  59.00      13.82      58.11     0.4000
  59.00      13.87      55.95     0.4000
  59.00      13.90      57.82     0.4000
  59.00      13.91      62.79     0.4000
  59.00      13.94      83.27     0.4000
  59.00      13.95      64.35     0.4000
  59.00      13.98      60.95     0.4000
  59.00      14.02      73.37     0.4000
  59.00      14.07      76.17     0.4000
  59.00      14.10      71.53     0.4000
  59.00      14.11      65.01     0.4000
  59.00      14.15      65.03     0.4000
  59.00      14.17      62.24     0.4000
  59.00      14.20      60.69     0.4000
  59.00      14.23      63.81     0.4000
  59.00      14.27      70.64     0.4000
  59.00      14.29      69.10     0.4000
  59.00      14.31      71.58     0.4000
  59.00      14.33      65.70     0.4000
  59.00      14.35      58.25     0.4000
  59.00      14.38      61.06     0.4000
  59.00      14.42      61.07     0.4000
  59.00      14.43      54.56     0.4000
  59.00      14.49      66.05     0.4000
  59.00      14.51      53.65     0.4000
  59.00      14.52      62.02     0.4000
  59.00      14.55      59.24     0.4000
  59.00      14.59      65.15     0.4000
  59.00      14.61      58.33     0.4000
  59.00      14.64      54.61     0.4000
  59.00      14.69      69.52     0.4000
  59.00      14.70      52.15     0.4000
  59.00      14.75      57.12     0.4000
  59.00      14.77      54.34     0.4000
  59.00      14.81      54.97     0.4000
  59.00      14.84      50.63     0.4000
  59.00      14.86      62.12     0.4000
  59.00      14.88      76.71     0.4000
  59.00      14.91      51.89     0.4000
  59.00      14.94      63.38     0.4000
  59.00      14.96      49.43     0.4000
  59.00      15.00      56.26     0.4000
  59.00      15.02      50.99     0.4000
  59.00      15.04      47.90     0.4000
  59.00      15.07      46.66     0.4000
  59.00      15.10      49.16     0.4000
  59.00      15.14      41.41     0.4000
  59.00      15.18      42.97     0.4000
  59.00      15.21      47.32     0.4000
  59.00      15.27      44.55     0.4000
  59.00      15.31      46.11     0.4000
  59.00      15.34      44.57     0.4000
  59.00      15.37      47.68     0.4000
  59.00      15.40      39.31     0.4000
  59.00      15.43      43.66     0.4000
  59.00      15.48      43.37     0.4000
  59.00      15.51      49.58     0.4000
  59.00      15.56      48.04     0.4000
  59.00      15.59      44.02     0.4000
  59.00      15.62      45.27     0.4000
  59.00      15.68      40.94     0.4000
  59.00      15.71      41.57     0.4000
  59.00      15.77      40.96     0.4000
  59.00      15.81      43.77     0.4000
  59.00      15.86      35.09     0.4000
  59.00      15.89      29.83     0.4000
  59.00      15.92      29.52     0.4000
  59.00      15.95      32.95     0.4000
  59.00      15.98      34.19     0.4000
  59.00      16.02      33.90     0.4000
  59.00      16.06      32.98     0.4000
  59.00      16.08      33.60     0.4000
  59.00      16.12      34.23     0.4000
  59.00      16.16      32.07     0.4000
  59.00      16.20      34.57     0.4000
  59.00      16.24      33.96     0.4000
  59.00      16.28      31.17     0.4000
  59.00      16.30      28.70     0.4000
  59.00      16.32      33.05     0.4000
  59.00      16.37      33.68     0.4000
  59.00      16.42      28.11     0.4000
  59.00      16.47      32.47     0.4000
  59.00      16.50      28.44     0.4000
  59.00      16.51      23.48     0.4000
  59.00      16.54      20.39     0.4000
  59.00      16.59      24.74     0.4000
  59.00      16.63      27.55     0.4000
  59.00      16.65      24.45     0.4000
  59.00      16.68      26.32     0.4000
  59.00      16.73      24.47     0.4000
  59.00      16.78      23.25     0.4000
  59.00      16.81      17.98     0.4000
  59.00      16.85      19.85     0.4000
  59.00      16.88      24.21     0.4000
  59.00      16.91      17.70     0.4000
  59.00      16.93      23.60     0.4000
  59.00      16.98      25.16     0.4000
  59.00      17.04      21.15     0.4000
  59.00      17.09      18.37     0.4000
  59.00      17.13      20.55     0.4000
  59.00      17.14      14.66     0.4000
  59.00      17.19      17.15     0.4000
  59.00      17.21      19.33     0.4000
  59.00      17.24      16.24     0.4000
  59.00      17.28      17.18     0.4000
  59.00      17.32      19.98     0.4000
  59.00      17.35      14.72     0.4000
  59.00      17.40      16.90     0.4000
  59.00      17.43      18.77     0.4000
  59.00      17.48      17.23     0.4000
  59.00      17.56      18.81     0.4000
  59.00      17.60      15.72     0.4000
  59.00      17.63      19.14     0.4000
  59.00      17.67      15.11     0.4000
  59.00      17.73      17.30     0.4000
  59.00      17.75      13.59     0.4000
  59.00      17.77      15.14     0.4000
  59.00      17.79      12.36     0.4000
  59.00      17.83      14.85     0.4000
  59.00      17.87      11.76     0.4000
  59.00      17.90      12.70     0.4000
  59.00      17.92      15.18     0.4000
  59.00      17.95      15.81     0.2000E-01
  90.00      11.98      22.31     0.1000
  90.00      12.00      21.63     0.1000
  90.00      12.03      13.47     0.1000
  90.00      12.06      13.29     0.1000
  90.00      12.09      20.33     0.1000
  90.00      12.10      21.38     0.1000
  90.00      12.14      22.05     0.1000
  90.00      12.15      20.93     0.1000
  90.00      12.18      22.21     0.1000
  90.00      12.21      16.84     0.1000
  90.00      12.23      17.28     0.1000
  90.00      12.26      16.94     0.1000
  90.00      12.29      14.92     0.1000
  90.00      12.31      16.31     0.1000
  90.00      12.33      17.65     0.1000
  90.00      12.35      16.97     0.1000
  90.00      12.38      18.98     0.1000
  90.00      12.40      19.08     0.1000
  90.00      12.43      18.85     0.1000
  90.00      12.46      16.84     0.1000
  90.00      12.48      17.84     0.1000
  90.00      12.51      19.62     0.1000
  90.00      12.53      18.94     0.1000
  90.00      12.56      22.18     0.1000
  90.00      12.59      23.68     0.1000
  90.00      12.61      20.71     0.1000
  90.00      12.64      16.07     0.1000
  90.00      12.66      20.03     0.1000
  90.00      12.68      18.85     0.1000
  90.00      12.71      15.83     0.1000
  90.00      12.74      15.04     0.1000
  90.00      12.76      14.31     0.1000
  90.00      12.79      13.08     0.1000
  90.00      12.81      12.90     0.1000
  90.00      12.84      12.56     0.1000
  90.00      12.86      13.95     0.1000
  90.00      12.96      12.03     0.1000
  90.00      12.99      8.619     0.1000
  90.00      13.02      9.506     0.1000
  90.00      13.04      8.719     0.1000
  90.00      13.06      11.23     0.1000
  90.00      13.08      10.11     0.1000
  90.00      13.11      8.535     0.1000
  90.00      13.14      12.89     0.1000
  90.00      13.17      11.43     0.1000
  90.00      13.19      15.17     0.1000
  90.00      13.21      14.49     0.1000
  90.00      13.26      14.26     0.1000
  90.00      13.29      14.42     0.1000
  90.00      13.31      11.34     0.1000
  90.00      13.34      7.143     0.1000
  90.00      13.36      9.596     0.1000
  90.00      13.39      10.93     0.1000
  90.00      13.41      16.01     0.1000
  90.00      13.44      10.42     0.1000
  90.00      13.47      10.97     0.1000
  90.00      13.49      4.820     0.1000
  90.00      13.52      4.813     0.1000
  90.00      13.54      5.980     0.1000
  90.00      13.57      7.316     0.1000
  90.00      13.59      7.870     0.1000
  90.00      13.61      10.43     0.1000
  90.00      13.64      8.418     0.1000
  90.00      13.66      7.294     0.1000
  90.00      13.69      6.340     0.1000
  90.00      13.71      10.97     0.1000
  90.00      13.73      11.92     0.1000
  90.00      13.76      8.725     0.1000
  90.00      13.79      8.105     0.1000
  90.00      13.81      8.379     0.1000
  90.00      13.84      7.981     0.1000
  90.00      13.87      7.081     0.1000
  90.00      13.89      6.630     0.1000
  90.00      13.91      5.451     0.1000
  90.00      13.95      5.109     0.1000
  90.00      13.96      5.942     0.1000
  90.00      13.99      8.171     0.1000
  90.00      14.01      8.892     0.1000
  90.00      14.04      6.093     0.1000
  90.00      14.07      6.254     0.1000
  90.00      14.09      7.143     0.1000
  90.00      14.11      13.23     0.1000
  90.00      14.14      4.115     0.1000
  90.00      14.16      6.177     0.1000
  90.00      14.20      5.498     0.1000
  90.00      14.22      5.382     0.1000
  90.00      14.24      5.658     0.1000
  90.00      14.26      5.261     0.1000
  90.00      14.29      5.032     0.1000
  90.00      14.32      8.545     0.1000
  90.00      14.34      10.89     0.1000
  90.00      14.37      9.427     0.1000
  90.00      14.39      6.070     0.1000
  90.00      14.41      8.188     0.1000
  90.00      14.44      9.468     0.1000
  90.00      14.46      10.75     0.1000
  90.00      14.49      4.372     0.1000
  90.00      14.52      7.103     0.1000
  90.00      14.54      7.266     0.1000
  90.00      14.57      5.583     0.1000
  90.00      14.60      5.969     0.1000
  90.00      14.62      5.852     0.1000
  90.00      14.64      3.109     0.1000
  90.00      14.67      3.104     0.1000
  90.00      14.70      3.824     0.1000
  90.00      14.72      4.042     0.1000
  90.00      14.74      3.702     0.1000
  90.00      14.75      3.310     0.1000
  90.00      14.77      6.209     0.1000
  90.00      14.80      3.019     0.1000
  90.00      14.83      3.292     0.1000
  90.00      14.85      4.013     0.1000
  90.00      14.87      4.734     0.1000
  90.00      14.89      5.288     0.1000
  90.00      14.92      4.780     0.1000
  90.00      14.95      2.986     0.1000
  90.00      14.98      4.432     0.1000
  90.00      14.99      2.976     0.1000
  90.00      15.03      3.414     0.1000
  90.00      15.05      4.136     0.1000
  90.00      15.07      6.533     0.1000
  90.00      15.10      4.461     0.1000
  90.00      15.12      5.459     0.1000
  90.00      15.15      4.449     0.1000
  90.00      15.17      6.064     0.1000
  90.00      15.20      3.377     0.1000
  90.00      15.23      4.096     0.1000
  90.00      15.25      4.483     0.1000
  90.00      15.27      3.975     0.1000
  90.00      15.30      3.969     0.1000
  90.00      15.32      3.908     0.1000
  90.00      15.35      3.399     0.1000
  90.00      15.38      2.275     0.1000
  90.00      15.40      2.773     0.1000
  90.00      15.42      2.823     0.1000
  90.00      15.45      3.711     0.1000
  90.00      15.47      4.712     0.1000
  90.00      15.50      4.818     0.1000
  90.00      15.52      4.981     0.1000
  90.00      15.55      5.756     0.1000
  90.00      15.57      5.303     0.1000
  90.00      15.60      4.404     0.1000
  90.00      15.62      4.286     0.1000
  90.00      15.65      4.057     0.1000
  90.00      15.67      3.884     0.1000
  90.00      15.70      4.270     0.1000
  90.00      15.72      3.427     0.1000
  90.00      15.75      2.639     0.1000
  90.00      15.77      3.025     0.1000
  90.00      15.80      2.852     0.1000
  90.00      15.83      2.901     0.1000
  90.00      15.85      3.118     0.1000
  90.00      15.87      3.282     0.1000
  90.00      15.90      3.331     0.1000
  90.00      15.93      2.375     0.1000
  90.00      15.95      2.146     0.1000
  90.00      15.97      3.259     0.1000
  90.00      16.00      4.035     0.1000
  90.00      16.02      3.918     0.1000
  90.00      16.05      3.465     0.1000
  90.00      16.08      3.403     0.1000
  90.00      16.10      3.901     0.1000
  90.00      16.13      3.560     0.1000
  90.00      16.15      3.052     0.1000
  90.00      16.18      3.269     0.1000
  90.00      16.20      3.543     0.1000
  90.00      16.23      4.095     0.1000
  90.00      16.25      4.314     0.1000
  90.00      16.27      3.862     0.1000
  90.00      16.30      3.297     0.1000
  90.00      16.33      3.346     0.1000
  90.00      16.36      3.788     0.1000
  90.00      16.38      3.783     0.1000
  90.00      16.41      3.330     0.1000
  90.00      16.43      3.381     0.1000
  90.00      16.45      3.152     0.1000
  90.00      16.48      3.369     0.1000
  90.00      16.51      2.581     0.1000
  90.00      16.54      2.463     0.1000
  90.00      16.56      2.625     0.1000
  90.00      16.58      1.950     0.1000
  90.00      16.61      1.721     0.1000
  90.00      16.63      1.604     0.1000
  90.00      16.66      1.765     0.1000
  90.00      16.68      1.872     0.1000
  90.00      16.71      2.089     0.1000
  90.00      16.74      2.418     0.1000
  90.00      16.76      2.972     0.1000
  90.00      16.78      2.910     0.1000
  90.00      16.81      3.129     0.1000
  90.00      16.83      3.011     0.1000
  90.00      16.85      2.616     0.1000
  90.00      16.88      3.056     0.1000
  90.00      16.91      2.604     0.1000
  90.00      16.93      2.150     0.1000
  90.00      16.96      2.424     0.1000
  90.00      16.98      2.196     0.1000
  90.00      17.01      2.244     0.1000
  90.00      17.03      3.246     0.1000
  90.00      17.06      3.463     0.1000
  90.00      17.08      2.563     0.1000
  90.00      17.11      2.335     0.1000
  90.00      17.14      1.937     0.1000
  90.00      17.16      2.100     0.1000
  90.00      17.18      2.263     0.1000
  90.00      17.21      1.307     0.1000
  90.00      17.24      1.971     0.1000
  90.00      17.26      2.579     0.1000
  90.00      17.29      2.908     0.1000
  90.00      17.31      2.234     0.1000
  90.00      17.33      2.396     0.1000
  90.00      17.37      2.053     0.1000
  90.00      17.38      1.715     0.1000
  90.00      17.42      1.819     0.1000
  90.00      17.44      1.535     0.1000
  90.00      17.46      1.082     0.1000
  90.00      17.49      1.356     0.1000
  90.00      17.52      1.572     0.1000
  90.00      17.54      1.736     0.1000
  90.00      17.55      2.011     0.1000
  90.00      17.59      1.836     0.1000
  90.00      17.62      1.383     0.1000
  90.00      17.64      1.769     0.1000
  90.00      17.67      2.434     0.1000
  90.00      17.69      2.092     0.1000
  90.00      17.72      2.589     0.1000
  90.00      17.74      2.640     0.1000
  90.00      17.77      2.802     0.1000
  90.00      17.79      2.294     0.1000
  90.00      17.81      2.345     0.1000
  90.00      17.84      2.395     0.1000
  90.00      17.86      2.278     0.1000
  90.00      17.89      1.211     0.1000
  90.00      17.91      1.596     0.1000
  90.00      17.94      1.869     0.1000
  90.00      17.97      1.752     0.1000
  139.7      12.04      2.997     0.2000E-01
  139.7      12.05      2.143     0.2000E-01
  139.7      12.09      5.728     0.2000E-01
  139.7      12.12      4.502     0.2000E-01
  139.7      12.13      4.115     0.2000E-01
  139.7      12.15      2.874     0.2000E-01
  139.7      12.19      3.092     0.2000E-01
  139.7      12.22      3.697     0.2000E-01
  139.7      12.24      2.425     0.2000E-01
  139.7      12.25      2.084     0.2000E-01
  139.7      12.30      1.728     0.2000E-01
  139.7      12.34      3.125     0.2000E-01
  139.7      12.36      3.761     0.2000E-01
  139.7      12.38      3.265     0.2000E-01
  139.7      12.41      4.879     0.2000E-01
  139.7      12.45      3.437     0.2000E-01
  139.7      12.46      2.382     0.2000E-01
  139.7      12.48      2.289     0.2000E-01
  139.7      12.51      2.057     0.2000E-01
  139.7      12.52      1.824     0.2000E-01
  139.7      12.55      3.639     0.2000E-01
  139.7      12.58      4.695     0.2000E-01
  139.7      12.61      4.788     0.2000E-01
  139.7      12.63      2.694     0.2000E-01
  139.7      12.65      2.043     0.2000E-01
  139.7      12.69      3.455     0.2000E-01
  139.7      12.71      2.168     0.2000E-01
  139.7      12.76      2.107     0.2000E-01
  139.7      12.77      1.734     0.2000E-01
  139.7      12.81      1.363     0.2000E-01
  139.7      12.86      1.503     0.2000E-01
  139.7      12.89      2.015     0.2000E-01
  139.7      12.91      1.100     0.2000E-01
  139.7      12.94      1.364     0.2000E-01
  139.7      12.96     0.5269     0.2000E-01
  139.7      12.98     0.8374     0.2000E-01
  139.7      13.00      1.288     0.2000E-01
  139.7      13.02      1.552     0.2000E-01
  139.7      13.05      2.623     0.2000E-01
  139.7      13.08      2.266     0.2000E-01
  139.7      13.11      1.336     0.2000E-01
  139.7      13.13     0.9016     0.2000E-01
  139.7      13.17      1.088     0.2000E-01
  139.7      13.20      1.911     0.2000E-01
  139.7      13.23      1.120     0.2000E-01
  139.7      13.25     0.8567     0.2000E-01
  139.7      13.28     0.7950     0.2000E-01
  139.7      13.30     0.7023     0.2000E-01
  139.7      13.33      1.494     0.2000E-01
  139.7      13.35      2.378     0.2000E-01
  139.7      13.38      2.596     0.2000E-01
  139.7      13.40      1.340     0.2000E-01
  139.7      13.43      1.387     0.2000E-01
  139.7      13.45      1.821     0.2000E-01
  139.7      13.48      2.318     0.2000E-01
  139.7      13.50      1.589     0.2000E-01
  139.7      13.55     0.6902     0.2000E-01
  139.7      13.58     0.8768     0.2000E-01
  139.7      13.60      1.156     0.2000E-01
  139.7      13.62      2.087     0.2000E-01
  139.7      13.65      1.374     0.2000E-01
  139.7      13.68      1.607     0.2000E-01
  139.7      13.71      2.120     0.2000E-01
  139.7      13.73      2.880     0.2000E-01
  139.7      13.76      1.050     0.2000E-01
  139.7      13.79     0.6934     0.2000E-01
  139.7      13.82     0.6163     0.2000E-01
  139.7      13.86      1.175     0.2000E-01
  139.7      13.89      1.346     0.2000E-01
  139.7      13.92      1.254     0.2000E-01
  139.7      13.95      1.177     0.2000E-01
  139.7      14.00     0.7119     0.2000E-01
  139.7      14.02     0.5881     0.2000E-01
  139.7      14.06     0.5266     0.2000E-01
  139.7      14.08      1.303     0.2000E-01
  139.7      14.10      1.567     0.2000E-01
  139.7      14.12     0.1861     0.2000E-01
  139.7      14.14      1.614     0.2000E-01
  139.7      14.20      1.071     0.2000E-01
  139.7      14.23      1.522     0.2000E-01
  139.7      14.25      2.546     0.2000E-01
  139.7      14.27      1.740     0.2000E-01
  139.7      14.30      1.755     0.2000E-01
  139.7      14.33      1.601     0.2000E-01
  139.7      14.35     0.9804     0.2000E-01
  139.7      14.37     0.1585     0.2000E-01
  139.7      14.40     0.2986     0.2000E-01
  139.7      14.43     0.2523     0.2000E-01
  139.7      14.45     0.5008     0.2000E-01
  139.7      14.48      1.029     0.2000E-01
  139.7      14.52     0.4088     0.2000E-01
  139.7      14.56      1.076     0.2000E-01
  139.7      14.61     0.2083     0.2000E-01
  139.7      14.63     0.5344     0.2000E-01
  139.7      14.66     0.5503     0.2000E-01
  139.7      14.68     0.6437     0.2000E-01
  139.7      14.72     0.6288     0.2000E-01
  139.7      14.75     0.7998     0.2000E-01
  139.7      14.77      1.483     0.2000E-01
  139.7      14.80     0.6608     0.2000E-01
  139.7      14.80     0.2265     0.2000E-01
  139.7      14.84     0.8740E-01 0.2000E-01
  139.7      14.87     0.8776E-01 0.2000E-01
  139.7      14.90     0.4916     0.2000E-01
  139.7      14.92     0.3057     0.2000E-01
  139.7      14.95     0.2751     0.2000E-01
  139.7      14.97     0.3684     0.2000E-01
  139.7      15.01     0.4775     0.2000E-01
  139.7      15.04     0.1367     0.2000E-01
  139.7      15.07     0.4163     0.2000E-01
  139.7      15.09     0.3235     0.2000E-01
  139.7      15.12     0.1688     0.2000E-01
  139.7      15.15     0.5726     0.2000E-01
  139.7      15.17     0.7590     0.2000E-01
  139.7      15.20     0.9456     0.2000E-01
  139.7      15.22     0.5425     0.2000E-01
  139.7      15.25     0.1240     0.2000E-01
  139.7      15.28     0.3881     0.2000E-01
  139.7      15.30     0.2489     0.2000E-01
  139.7      15.34     0.3424     0.2000E-01
  139.7      15.41     0.1882     0.2000E-01
  139.7      15.44     0.2352     0.2000E-01
  139.7      15.45     0.4836     0.2000E-01
  139.7      15.49     0.3910     0.2000E-01
  139.7      15.53     0.4226     0.2000E-01
  139.7      15.56     0.2990     0.2000E-01
  139.7      15.59     0.2993     0.2000E-01
  139.7      15.61     0.5478     0.2000E-01
  139.7      15.64     0.5172     0.2000E-01
  139.7      15.67     0.1454     0.2000E-01
  139.7      15.70     0.4560     0.2000E-01
  139.7      15.73      1.217     0.2000E-01
  139.7      15.75      1.155     0.2000E-01
  139.7      15.77     0.5500     0.2000E-01
  139.7      15.80     0.3178     0.2000E-01
  139.7      15.81     0.1938     0.2000E-01
  139.7      15.86     0.3495     0.2000E-01
  139.7      15.88     0.4894     0.2000E-01
  139.7      15.91     0.1952     0.2000E-01
  139.7      15.95     0.1182     0.2000E-01
  139.7      16.01     0.7706     0.2000E-01
  139.7      16.05      1.035     0.2000E-01
  139.7      16.08     0.6939     0.2000E-01
  139.7      16.10     0.5856     0.2000E-01
  139.7      16.12      1.331     0.2000E-01
  139.7      16.15      1.703     0.2000E-01
  139.7      16.19      1.192     0.2000E-01
  139.7      16.20     0.8817     0.2000E-01
  139.7      16.21     0.4940     0.2000E-01
  139.7      16.25     0.4946     0.2000E-01
  139.7      16.28     0.5571     0.2000E-01
  139.7      16.33     0.8059     0.2000E-01
  139.7      16.37     0.7289     0.2000E-01
  139.7      16.39     0.8688     0.2000E-01
  139.7      16.42     0.7916     0.2000E-01
  139.7      16.46     0.5596     0.2000E-01
  139.7      16.49     0.4358     0.2000E-01
  139.7      16.50     0.2499     0.2000E-01
  139.7      16.55     0.2970     0.2000E-01
  139.7      16.57     0.9334     0.2000E-01
  139.7      16.60      1.306     0.2000E-01
  139.7      16.62     0.8254     0.2000E-01
  139.7      16.64     0.3603     0.2000E-01
  139.7      16.67     0.6600E-01 0.2000E-01
  139.7      16.73     0.5127E-01 0.2000E-01
  139.7      16.78     0.1760     0.2000E-01
  139.7      16.79     0.4865     0.2000E-01
  139.7      16.82     0.4559     0.2000E-01
  139.7      16.87     0.7358     0.2000E-01
  139.7      16.90     0.3018     0.2000E-01
  139.7      16.95     0.1318     0.2000E-01
  139.7      16.99     0.1945     0.2000E-01
  139.7      17.02     0.7076E-01 0.2000E-01
  139.7      17.05     0.1177     0.2000E-01
  139.7      17.07     0.4593     0.2000E-01
  139.7      17.12     0.7082     0.2000E-01
  139.7      17.14     0.4447     0.2000E-01
  139.7      17.18     0.7710     0.2000E-01
  139.7      17.20     0.4145     0.2000E-01
  139.7      17.23     0.3839     0.2000E-01
  139.7      17.25     0.6169     0.2000E-01
  139.7      17.29     0.8968     0.2000E-01
  139.7      17.34     0.9750     0.2000E-01
  139.7      17.35     0.6494     0.2000E-01
  139.7      17.40     0.7896     0.2000E-01
  139.7      17.42      1.085     0.2000E-01
  139.7      17.44      1.737     0.2000E-01
  139.7      17.48      2.078     0.2000E-01
  139.7      17.51      1.350     0.2000E-01
  139.7      17.52     0.5120     0.2000E-01
  139.7      17.54     0.3261     0.2000E-01
  139.7      17.57     0.3886     0.2000E-01
  139.7      17.60     0.2804     0.2000E-01
  139.7      17.64     0.2809     0.2000E-01
  139.7      17.67     0.6072     0.2000E-01
  139.7      17.71     0.5301     0.2000E-01
  139.7      17.74     0.4375     0.2000E-01
  139.7      17.77     0.7482     0.2000E-01
  139.7      17.80      1.043     0.2000E-01
  139.7      17.83      1.354     0.2000E-01
  139.7      17.86      1.153     0.2000E-01
  139.7      17.88     0.4549     0.2000E-01
  139.7      17.91     0.5174     0.2000E-01
  139.7      17.94      1.107     0.2000E-01
  139.7      17.95     0.6266     0.2000E-01
  139.7      17.98     0.5028     0.2000E-01
  139.7      18.00     0.6117     0.2000E-01
  148.9      11.99      4.122     0.2000E-01
  148.9      12.05      3.380     0.2000E-01
  148.9      12.05      5.547     0.2000E-01
  148.9      12.10      2.576     0.2000E-01
  148.9      12.12      1.942     0.2000E-01
  148.9      12.13      2.174     0.2000E-01
  148.9      12.15      2.577     0.2000E-01
  148.9      12.17      1.726     0.2000E-01
  148.9      12.21      2.051     0.2000E-01
  148.9      12.21      3.676     0.2000E-01
  148.9      12.24      6.648     0.2000E-01
  148.9      12.25      5.844     0.2000E-01
  148.9      12.27      5.441     0.2000E-01
  148.9      12.29      6.339     0.2000E-01
  148.9      12.35      4.344     0.2000E-01
  148.9      12.37      3.384     0.2000E-01
  148.9      12.39      2.797     0.2000E-01
  148.9      12.42      2.658     0.2000E-01
  148.9      12.48      1.977     0.2000E-01
  148.9      12.51      1.839     0.2000E-01
  148.9      12.51      3.541     0.2000E-01
  148.9      12.55      2.474     0.2000E-01
  148.9      12.58      1.793     0.2000E-01
  148.9      12.61      1.577     0.2000E-01
  148.9      12.61      3.156     0.2000E-01
  148.9      12.64      4.889     0.2000E-01
  148.9      12.68      2.754     0.2000E-01
  148.9      12.70      1.315     0.2000E-01
  148.9      12.73      1.269     0.2000E-01
  148.9      12.73      1.068     0.2000E-01
  148.9      12.75      1.548     0.2000E-01
  148.9      12.77      1.873     0.2000E-01
  148.9      12.78      2.075     0.2000E-01
  148.9      12.84      2.354     0.2000E-01
  148.9      12.84      2.013     0.2000E-01
  148.9      12.87      2.432     0.2000E-01
  148.9      12.91      4.522     0.2000E-01
  148.9      12.91      2.525     0.2000E-01
  148.9      12.95      1.489     0.2000E-01
  148.9      12.96      4.228     0.2000E-01
  148.9      13.00      3.393     0.2000E-01
  148.9      13.01      5.235     0.2000E-01
  148.9      13.04      2.836     0.2000E-01
  148.9      13.07      1.661     0.2000E-01
  148.9      13.10      1.305     0.2000E-01
  148.9      13.12     0.8411     0.2000E-01
  148.9      13.16      1.120     0.2000E-01
  148.9      13.16      2.606     0.2000E-01
  148.9      13.22     0.9043     0.2000E-01
  148.9      13.25      1.446     0.2000E-01
  148.9      13.27      1.834     0.2000E-01
  148.9      13.30      1.679     0.2000E-01
  148.9      13.35      1.819     0.2000E-01
  148.9      13.37      2.748     0.2000E-01
  148.9      13.42      1.712     0.2000E-01
  148.9      13.43      3.430     0.2000E-01
  148.9      13.46      1.697     0.2000E-01
  148.9      13.49      2.069     0.2000E-01
  148.9      13.50      1.434     0.2000E-01
  148.9      13.55      1.311     0.2000E-01
  148.9      13.57     0.9092     0.2000E-01
  148.9      13.59      1.993     0.2000E-01
  148.9      13.62      1.947     0.2000E-01
  148.9      13.64     0.9101     0.2000E-01
  148.9      13.67     0.9879     0.2000E-01
  148.9      13.70      1.097     0.2000E-01
  148.9      13.73      1.438     0.2000E-01
  148.9      13.76      1.082     0.2000E-01
  148.9      13.80     0.5873     0.2000E-01
  148.9      13.80      1.547     0.2000E-01
  148.9      13.85      1.083     0.2000E-01
  148.9      13.89     0.7588     0.2000E-01
  148.9      13.90      1.099     0.2000E-01
  148.9      13.92      1.239     0.2000E-01
  148.9      13.95      1.193     0.2000E-01
  148.9      13.98     0.9148     0.2000E-01
  148.9      14.00      1.271     0.2000E-01
  148.9      14.04      1.380     0.2000E-01
  148.9      14.06      4.924     0.2000E-01
  148.9      14.09      4.043     0.2000E-01
  148.9      14.11      1.381     0.2000E-01
  148.9      14.16      1.954     0.2000E-01
  148.9      14.17      4.214     0.2000E-01
  148.9      14.18      5.328     0.2000E-01
  148.9      14.21      2.063     0.2000E-01
  148.9      14.24      2.327     0.2000E-01
  148.9      14.28      2.760     0.2000E-01
  148.9      14.29     0.7023     0.2000E-01
  148.9      14.32     0.2849     0.2000E-01
  148.9      14.35     0.2699     0.2000E-01
  148.9      14.37      1.090     0.2000E-01
  148.9      14.40      1.400     0.2000E-01
  148.9      14.40      4.465     0.2000E-01
  148.9      14.43      2.252     0.2000E-01
  148.9      14.47      5.456     0.2000E-01
  148.9      14.50      4.605     0.2000E-01
  148.9      14.51      1.154     0.2000E-01
  148.9      14.55     0.6749     0.2000E-01
  148.9      14.59      1.527     0.2000E-01
  148.9      14.59      4.576     0.2000E-01
  148.9      14.63      3.214     0.2000E-01
  148.9      14.68      1.853     0.2000E-01
  148.9      14.70      3.200     0.2000E-01
  148.9      14.72     0.9404     0.2000E-01
  148.9      14.74      1.343     0.2000E-01
  148.9      14.77      2.349     0.2000E-01
  148.9      14.81      1.174     0.2000E-01
  148.9      14.81      4.965     0.2000E-01
  148.9      14.85      1.546     0.2000E-01
  148.9      14.87     0.7103     0.2000E-01
  148.9      14.90      1.020     0.2000E-01
  148.9      14.92      1.624     0.2000E-01
  148.9      14.94      5.200     0.2000E-01
  148.9      14.96      3.405     0.2000E-01
  148.9      14.99     0.2786     0.2000E-01
  148.9      15.00      1.424     0.2000E-01
  148.9      15.05      2.059     0.2000E-01
  148.9      15.07     0.6976     0.2000E-01
  148.9      15.09     0.3238E-01 0.2000E-01
  148.9      15.12     0.4971     0.2000E-01
  148.9      15.13      3.500     0.2000E-01
  148.9      15.17      3.423     0.2000E-01
  148.9      15.19      3.887     0.2000E-01
  148.9      15.21      1.737     0.2000E-01
  148.9      15.23      2.232     0.2000E-01
  148.9      15.26      2.341     0.2000E-01
  148.9      15.29      3.239     0.2000E-01
  148.9      15.30      3.641     0.2000E-01
  148.9      15.34      2.326     0.2000E-01
  148.9      15.37      3.983     0.2000E-01
  148.9      15.38      4.664     0.2000E-01
  148.9      15.42      3.442     0.2000E-01
  148.9      15.43      3.070     0.2000E-01
  148.9      15.47      2.220     0.2000E-01
  148.9      15.48      1.462     0.2000E-01
  148.9      15.52      1.508     0.2000E-01
  148.9      15.54      1.679     0.2000E-01
  148.9      15.59      2.299     0.2000E-01
  148.9      15.61      1.757     0.2000E-01
  148.9      15.64      1.046     0.2000E-01
  148.9      15.67      1.867     0.2000E-01
  148.9      15.69      2.625     0.2000E-01
  148.9      15.72      2.254     0.2000E-01
  148.9      15.76      2.471     0.2000E-01
  148.9      15.80      2.286     0.2000E-01
  148.9      15.81      1.961     0.2000E-01
  148.9      15.85      2.256     0.2000E-01
  148.9      15.86      1.900     0.2000E-01
  148.9      15.90      1.777     0.2000E-01
  148.9      15.92      2.458     0.2000E-01
  148.9      15.94      3.557     0.2000E-01
  148.9      15.97      2.722     0.2000E-01
  148.9      15.99      2.134     0.2000E-01
  148.9      16.01      2.552     0.2000E-01
  148.9      16.05      2.707     0.2000E-01
  148.9      16.07      1.934     0.2000E-01
  148.9      16.09      2.414     0.2000E-01
  148.9      16.11      3.374     0.2000E-01
  148.9      16.16      3.467     0.2000E-01
  148.9      16.18      2.508     0.2000E-01
  148.9      16.20      1.982     0.2000E-01
  148.9      16.23      1.704     0.2000E-01
  148.9      16.24      1.983     0.2000E-01
  148.9      16.27      1.751     0.2000E-01
  148.9      16.30      1.504     0.2000E-01
  148.9      16.32      1.597     0.2000E-01
  148.9      16.35      1.798     0.2000E-01
  148.9      16.37      1.969     0.2000E-01
  148.9      16.39      2.171     0.2000E-01
  148.9      16.41      2.511     0.2000E-01
  148.9      16.45      1.661     0.2000E-01
  148.9      16.47     0.9489     0.2000E-01
  148.9      16.49     0.7636     0.2000E-01
  148.9      16.52     0.7640     0.2000E-01
  148.9      16.55      2.080     0.2000E-01
  148.9      16.58      2.297     0.2000E-01
  148.9      16.61      1.756     0.2000E-01
  148.9      16.63      1.477     0.2000E-01
  148.9      16.65     0.9824     0.2000E-01
  148.9      16.68     0.8280     0.2000E-01
  148.9      16.70     0.9521     0.2000E-01
  148.9      16.73      1.061     0.2000E-01
  148.9      16.74      1.726     0.2000E-01
  148.9      16.79     0.7831     0.2000E-01
  148.9      16.82      1.279     0.2000E-01
  148.9      16.85      1.403     0.2000E-01
  148.9      16.89      1.512     0.2000E-01
  148.9      16.90      1.125     0.2000E-01
  148.9      16.92     0.5991     0.2000E-01
  148.9      16.96     0.5068     0.2000E-01
  148.9      17.00     0.8015     0.2000E-01
  148.9      17.02      1.111     0.2000E-01
  148.9      17.06      1.050     0.2000E-01
  148.9      17.07     0.5548     0.2000E-01
  148.9      17.09     0.3230     0.2000E-01
  148.9      17.11     0.7556E-01 0.2000E-01
  148.9      17.14     0.1998     0.2000E-01
  148.9      17.17     0.2467     0.2000E-01
  148.9      17.20     0.2471     0.2000E-01
  148.9      17.22      1.099     0.2000E-01
  148.9      17.25      1.269     0.2000E-01
  148.9      17.29      1.378     0.2000E-01
  148.9      17.31     0.9604     0.2000E-01
  148.9      17.33     0.6821     0.2000E-01
  148.9      17.36     0.5278     0.2000E-01
  148.9      17.37     0.2803     0.2000E-01
  148.9      17.40     0.3891     0.2000E-01
  148.9      17.48     0.2199     0.2000E-01
  148.9      17.54     0.2671     0.2000E-01
  148.9      17.57     0.5617     0.2000E-01
  148.9      17.59     0.9488     0.2000E-01
  148.9      17.62      1.429     0.2000E-01
  148.9      17.65     0.9651     0.2000E-01
  148.9      17.68     0.5631     0.2000E-01
  148.9      17.70     0.2849     0.2000E-01
  148.9      17.75     0.3797E-01 0.2000E-01
  148.9      17.80     0.3791     0.2000E-01
  148.9      17.82     0.5496     0.2000E-01
  148.9      17.85     0.4262     0.2000E-01
  148.9      17.87     0.3181     0.2000E-01
  148.9      17.91     0.2568     0.2000E-01
  148.9      17.94     0.2726     0.2000E-01
  148.9      17.97     0.2266     0.2000E-01
  158.1      12.03      3.008     0.2000E-01
  158.1      12.08      4.024     0.2000E-01
  158.1      12.10      2.212     0.2000E-01
  158.1      12.13      2.713     0.2000E-01
  158.1      12.16      2.713     0.2000E-01
  158.1      12.18      1.604     0.2000E-01
  158.1      12.21      1.917     0.2000E-01
  158.1      12.22      5.057     0.2000E-01
  158.1      12.25      4.573     0.2000E-01
  158.1      12.27      4.730     0.2000E-01
  158.1      12.29      6.792     0.2000E-01
  158.1      12.32      6.902     0.2000E-01
  158.1      12.35      5.996     0.2000E-01
  158.1      12.37      3.075     0.2000E-01
  158.1      12.40      2.107     0.2000E-01
  158.1      12.43      1.733     0.2000E-01
  158.1      12.45      1.608     0.2000E-01
  158.1      12.48      3.280     0.2000E-01
  158.1      12.51      3.249     0.2000E-01
  158.1      12.53      3.390     0.2000E-01
  158.1      12.57      2.016     0.2000E-01
  158.1      12.60      3.250     0.2000E-01
  158.1      12.63      2.985     0.2000E-01
  158.1      12.66      2.548     0.2000E-01
  158.1      12.69      4.501     0.2000E-01
  158.1      12.72      2.065     0.2000E-01
  158.1      12.75      2.299     0.2000E-01
  158.1      12.77      2.550     0.2000E-01
  158.1      12.79      2.487     0.2000E-01
  158.1      12.82      3.472     0.2000E-01
  158.1      12.85      3.066     0.2000E-01
  158.1      12.88      3.114     0.2000E-01
  158.1      12.91      4.879     0.2000E-01
  158.1      12.91      3.536     0.2000E-01
  158.1      12.93      4.333     0.2000E-01
  158.1      12.97      2.490     0.2000E-01
  158.1      12.99      3.912     0.2000E-01
  158.1      13.02      2.865     0.2000E-01
  158.1      13.04      4.647     0.2000E-01
  158.1      13.07      2.038     0.2000E-01
  158.1      13.10      1.367     0.2000E-01
  158.1      13.13      1.773     0.2000E-01
  158.1      13.15      1.743     0.2000E-01
  158.1      13.17      3.414     0.2000E-01
  158.1      13.20      5.039     0.2000E-01
  158.1      13.21      3.431     0.2000E-01
  158.1      13.24      2.868     0.2000E-01
  158.1      13.27      3.478     0.2000E-01
  158.1      13.27      3.166     0.2000E-01
  158.1      13.29      2.354     0.2000E-01
  158.1      13.32      1.230     0.2000E-01
  158.1      13.35      1.042     0.2000E-01
  158.1      13.38      1.433     0.2000E-01
  158.1      13.41      1.106     0.2000E-01
  158.1      13.41      1.668     0.2000E-01
  158.1      13.44      1.903     0.2000E-01
  158.1      13.46      2.700     0.2000E-01
  158.1      13.49      1.575     0.2000E-01
  158.1      13.52      3.310     0.2000E-01
  158.1      13.55      2.763     0.2000E-01
  158.1      13.57      1.983     0.2000E-01
  158.1      13.59      1.717     0.2000E-01
  158.1      13.59      3.545     0.2000E-01
  158.1      13.63      4.061     0.2000E-01
  158.1      13.68      1.890     0.2000E-01
  158.1      13.70      1.219     0.2000E-01
  158.1      13.71      3.719     0.2000E-01
  158.1      13.75      1.360     0.2000E-01
  158.1      13.77      1.064     0.2000E-01
  158.1      13.81     0.9706     0.2000E-01
  158.1      13.85      1.440     0.2000E-01
  158.1      13.87      1.268     0.2000E-01
  158.1      13.90      1.206     0.2000E-01
  158.1      13.91     0.9252     0.2000E-01
  158.1      13.94      1.035     0.2000E-01
  158.1      13.96      1.395     0.2000E-01
  158.1      13.99      2.098     0.2000E-01
  158.1      14.05      1.474     0.2000E-01
  158.1      14.06      2.036     0.2000E-01
  158.1      14.08      4.973     0.2000E-01
  158.1      14.12      4.052     0.2000E-01
  158.1      14.14      3.444     0.2000E-01
  158.1      14.16      2.288     0.2000E-01
  158.1      14.18      2.757     0.2000E-01
  158.1      14.22      2.913     0.2000E-01
  158.1      14.24      2.148     0.2000E-01
  158.1      14.26      4.429     0.2000E-01
  158.1      14.29      2.086     0.2000E-01
  158.1      14.32      1.525     0.2000E-01
  158.1      14.36     0.6657     0.2000E-01
  158.1      14.36     0.2285     0.2000E-01
  158.1      14.40      1.463     0.2000E-01
  158.1      14.42     0.9947     0.2000E-01
  158.1      14.45      2.229     0.2000E-01
  158.1      14.49      3.089     0.2000E-01
  158.1      14.51      4.089     0.2000E-01
  158.1      14.54      2.090     0.2000E-01
  158.1      14.59      6.699     0.2000E-01
  158.1      14.59     0.7159     0.2000E-01
  158.1      14.65      2.513     0.2000E-01
  158.1      14.65      1.404     0.2000E-01
  158.1      14.68      5.591     0.2000E-01
  158.1      14.70      5.669     0.2000E-01
  158.1      14.74      1.593     0.2000E-01
  158.1      14.79      5.264     0.2000E-01
  158.1      14.81      1.000     0.2000E-01
  158.1      14.84      4.125     0.2000E-01
  158.1      14.87      1.173     0.2000E-01
  158.1      14.90      1.142     0.2000E-01
  158.1      14.93      1.548     0.2000E-01
  158.1      14.93      3.704     0.2000E-01
  158.1      14.95      5.282     0.2000E-01
  158.1      14.97      5.080     0.2000E-01
  158.1      15.02      1.987     0.2000E-01
  158.1      15.05      3.846     0.2000E-01
  158.1      15.13      2.082     0.2000E-01
  158.1      15.25      2.740     0.2000E-01
  158.1      15.28      2.553     0.2000E-01
  158.1      15.29      3.662     0.2000E-01
  158.1      15.32      3.803     0.2000E-01
  158.1      15.36      2.398     0.2000E-01
  158.1      15.37      3.195     0.2000E-01
  158.1      15.40      4.601     0.2000E-01
  158.1      15.44      3.852     0.2000E-01
  158.1      15.46      3.712     0.2000E-01
  158.1      15.48      3.134     0.2000E-01
  158.1      15.52      2.056     0.2000E-01
  158.1      15.54      1.666     0.2000E-01
  158.1      15.57      2.307     0.2000E-01
  158.1      15.61      3.151     0.2000E-01
  158.1      15.63      2.261     0.2000E-01
  158.1      15.65      1.293     0.2000E-01
  158.1      15.70      2.293     0.2000E-01
  158.1      15.72      3.247     0.2000E-01
  158.1      15.75      2.216     0.2000E-01
  158.1      15.76      1.685     0.2000E-01
  158.1      15.80      2.029     0.2000E-01
  158.1      15.82      1.826     0.2000E-01
  158.1      15.84      2.249     0.2000E-01
  158.1      15.89      1.499     0.2000E-01
  158.1      15.92      1.094     0.2000E-01
  158.1      15.94      2.219     0.2000E-01
  158.1      15.95      3.500     0.2000E-01
  158.1      15.98      2.922     0.2000E-01
  158.1      16.01      3.235     0.2000E-01
  158.1      16.04      3.064     0.2000E-01
  158.1      16.07      2.923     0.2000E-01
  158.1      16.08      2.611     0.2000E-01
  158.1      16.10      2.517     0.2000E-01
  158.1      16.13      3.143     0.2000E-01
  158.1      16.15      2.721     0.2000E-01
  158.1      16.19      2.878     0.2000E-01
  158.1      16.21      2.269     0.2000E-01
  158.1      16.23      1.941     0.2000E-01
  158.1      16.26      1.832     0.2000E-01
  158.1      16.28      1.958     0.2000E-01
  158.1      16.30      1.817     0.2000E-01
  158.1      16.34      1.412     0.2000E-01
  158.1      16.36      1.225     0.2000E-01
  158.1      16.42     0.9130     0.2000E-01
  158.1      16.44      1.460     0.2000E-01
  158.1      16.47      1.211     0.2000E-01
  158.1      16.49     0.6640     0.2000E-01
  158.1      16.52     0.5395     0.2000E-01
  158.1      16.54     0.6960     0.2000E-01
  158.1      16.59      1.400     0.2000E-01
  158.1      16.61      1.212     0.2000E-01
  158.1      16.63     0.9160     0.2000E-01
  158.1      16.67      1.041     0.2000E-01
  158.1      16.69      1.495     0.2000E-01
  158.1      16.74      1.277     0.2000E-01
  158.1      16.75      1.699     0.2000E-01
  158.1      16.79      1.855     0.2000E-01
  158.1      16.81      1.653     0.2000E-01
  158.1      16.83      2.168     0.2000E-01
  158.1      16.87      1.716     0.2000E-01
  158.1      16.90      1.623     0.2000E-01
  158.1      16.95      1.420     0.2000E-01
  158.1      16.96      1.077     0.2000E-01
  158.1      17.00     0.5618     0.2000E-01
  158.1      17.02     0.3901     0.2000E-01
  158.1      17.03      1.562     0.2000E-01
  158.1      17.06      2.172     0.2000E-01
  158.1      17.09      1.547     0.2000E-01
  158.1      17.12      1.204     0.2000E-01
  158.1      17.14     0.8605     0.2000E-01
  158.1      17.17     0.6890     0.2000E-01
  158.1      17.20     0.7207     0.2000E-01
  158.1      17.22     0.9866     0.2000E-01
  158.1      17.23      1.737     0.2000E-01
  158.1      17.26      2.268     0.2000E-01
  158.1      17.31      2.441     0.2000E-01
  158.1      17.34      1.879     0.2000E-01
  158.1      17.35      1.363     0.2000E-01
  158.1      17.39      1.379     0.2000E-01
  158.1      17.42      1.442     0.2000E-01
  158.1      17.45      1.974     0.2000E-01
  158.1      17.49      1.115     0.2000E-01
  158.1      17.51     0.5531     0.2000E-01
  158.1      17.55     0.4287     0.2000E-01
  158.1      17.58     0.4135     0.2000E-01
  158.1      17.60     0.6950     0.2000E-01
  158.1      17.62      1.226     0.2000E-01
  158.1      17.62      1.836     0.2000E-01
  158.1      17.67      1.618     0.2000E-01
  158.1      17.68      1.290     0.2000E-01
  158.1      17.71     0.6184     0.2000E-01
  158.1      17.74     0.3845     0.2000E-01
  158.1      17.76     0.3692     0.2000E-01
  158.1      17.80      1.276     0.2000E-01
  158.1      17.82      1.323     0.2000E-01
  158.1      17.84     0.7765     0.2000E-01
  158.1      17.85      1.011     0.2000E-01
  158.1      17.88      1.261     0.2000E-01
  158.1      17.92     0.9963     0.2000E-01
  158.1      17.93     0.7621     0.2000E-01
  158.1      17.96      1.090     0.2000E-01
  158.1      17.99      1.560     0.2000E-01
  176.1      12.03      19.00     0.2000
  176.1      12.04      24.59     0.2000
  176.1      12.07      19.42     0.2000
  176.1      12.10      20.76     0.2000
  176.1      12.13      17.05     0.2000
  176.1      12.15      18.94     0.2000
  176.1      12.18      16.02     0.2000
  176.1      12.20      13.32     0.2000
  176.1      12.22      20.59     0.2000
  176.1      12.25      22.70     0.2000
  176.1      12.27      36.46     0.2000
  176.1      12.30      30.63     0.2000
  176.1      12.31      58.71     0.2000
  176.1      12.35      41.01     0.2000
  176.1      12.37      23.77     0.2000
  176.1      12.41      17.48     0.2000
  176.1      12.42      25.31     0.2000
  176.1      12.45      20.60     0.2000
  176.1      12.47      25.62     0.2000
  176.1      12.49      22.26     0.2000
  176.1      12.52      20.01     0.2000
  176.1      12.54      21.45     0.2000
  176.1      12.57      40.13     0.2000
  176.1      12.58      62.06     0.2000
  176.1      12.61      61.15     0.2000
  176.1      12.64      36.63     0.2000
  176.1      12.67      29.79     0.2000
  176.1      12.70      34.48     0.2000
  176.1      12.72      20.03     0.2000
  176.1      12.75      15.76     0.2000
  176.1      12.77      18.33     0.2000
  176.1      12.79      15.41     0.2000
  176.1      12.82      25.92     0.2000
  176.1      12.85      22.55     0.2000
  176.1      12.87      21.75     0.2000
  176.1      12.90      16.71     0.2000
  176.1      12.92      34.26     0.2000
  176.1      12.95      23.28     0.2000
  176.1      12.97      20.37     0.2000
  176.1      12.99      42.40     0.2000
  176.1      13.03      7.246     0.2000
  176.1      13.05      5.893     0.2000
  176.1      13.08      11.03     0.2000
  176.1      13.10      8.220     0.2000
  176.1      13.12      11.34     0.2000
  176.1      13.14      10.55     0.2000
  176.1      13.17      37.40     0.2000
  176.1      13.19      38.73     0.2000
  176.1      13.21      38.72     0.2000
  176.1      13.24      25.50     0.2000
  176.1      13.28      16.53     0.2000
  176.1      13.30      12.50     0.2000
  176.1      13.33      12.37     0.2000
  176.1      13.35      11.58     0.2000
  176.1      13.37      14.59     0.2000
  176.1      13.39      37.86     0.2000
  176.1      13.42      19.27     0.2000
  176.1      13.44      18.70     0.2000
  176.1      13.47      9.173     0.2000
  176.1      13.50      9.945     0.2000
  176.1      13.53      5.121     0.2000
  176.1      13.54      7.687     0.2000
  176.1      13.58      5.208     0.2000
  176.1      13.59      9.902     0.2000
  176.1      13.62      33.73     0.2000
  176.1      13.64      21.52     0.2000
  176.1      13.67      24.98     0.2000
  176.1      13.70      14.33     0.2000
  176.1      13.71      12.87     0.2000
  176.1      13.74      24.50     0.2000
  176.1      13.77      25.27     0.2000
  176.1      13.79      12.39     0.2000
  176.1      13.82      20.65     0.2000
  176.1      13.84      16.95     0.2000
  176.1      13.87      12.35     0.2000
  176.1      13.89      9.433     0.2000
  176.1      13.92      14.01     0.2000
  176.1      13.94      10.31     0.2000
  176.1      13.97      10.85     0.2000
  176.1      13.99      8.940     0.2000
  176.1      14.02      19.33     0.2000
  176.1      14.04      13.84     0.2000
  176.1      14.07      19.20     0.2000
  176.1      14.10      21.32     0.2000
  176.1      14.12      9.106     0.2000
  176.1      14.14      13.57     0.2000
  176.1      14.16      23.19     0.2000
  176.1      14.18      21.28     0.2000
  176.1      14.21      20.48     0.2000
  176.1      14.24      4.800     0.2000
  176.1      14.27      20.23     0.2000
  176.1      14.29      30.96     0.2000
  176.1      14.32      28.27     0.2000
  176.1      14.34      5.650     0.2000
  176.1      14.37      2.170     0.2000
  176.1      14.39      11.11     0.2000
  176.1      14.42      4.609     0.2000
  176.1      14.44      11.65     0.2000
  176.1      14.47      3.243     0.2000
  176.1      14.49      30.87     0.2000
  176.1      14.52      11.50     0.2000
  176.1      14.55      3.880     0.2000
  176.1      14.57      1.408     0.2000
  176.1      14.59      31.84     0.2000
  176.1      14.62      7.540     0.2000
  176.1      14.64      19.28     0.2000
  176.1      14.66      35.16     0.2000
  176.1      14.70      5.826     0.2000
  176.1      14.71      10.52     0.2000
  176.1      14.74      10.28     0.2000
  176.1      14.77      15.87     0.2000
  176.1      14.79      14.40     0.2000
  176.1      14.81      5.662     0.2000
  176.1      14.84      15.72     0.2000
  176.1      14.87      5.974     0.2000
  176.1      14.89      3.389     0.2000
  176.1      14.92      1.812     0.2000
  176.1      14.95      4.149     0.2000
  176.1      14.97      34.02     0.2000
  176.1      14.99      12.18     0.2000
  176.1      15.01      1.992     0.2000
  176.1      15.04      2.986     0.2000
  176.1      15.07      15.28     0.2000
  176.1      15.09      7.887     0.2000
  176.1      15.12      4.183     0.2000
  176.1      15.14      2.719     0.2000
  176.1      15.16      10.65     0.2000
  176.1      15.19      11.54     0.2000
  176.1      15.22      6.601     0.2000
  176.1      15.24      2.225     0.2000
  176.1      15.27      5.235     0.2000
  176.1      15.29      7.577     0.2000
  176.1      15.32      11.37     0.2000
  176.1      15.34      11.92     0.2000
  176.1      15.37      8.547     0.2000
  176.1      15.39      10.89     0.2000
  176.1      15.42      8.190     0.2000
  176.1      15.44      8.178     0.2000
  176.1      15.47      15.11     0.2000
  176.1      15.49      13.86     0.2000
  176.1      15.52      8.928     0.2000
  176.1      15.54      8.135     0.2000
  176.1      15.56      7.229     0.2000
  176.1      15.59      8.447     0.2000
  176.1      15.62      9.219     0.2000
  176.1      15.64      8.091     0.2000
  176.1      15.67      5.953     0.2000
  176.1      15.70      12.77     0.2000
  176.1      15.72      14.10     0.2000
  176.1      15.74      11.74     0.2000
  176.1      15.77      15.64     0.2000
  176.1      15.79      21.45     0.2000
  176.1      15.81      20.66     0.2000
  176.1      15.84      14.49     0.2000
  176.1      15.87      7.205     0.2000
  176.1      15.89      8.090     0.2000
  176.1      15.92      8.750     0.2000
  176.1      15.94      8.514     0.2000
  176.1      15.97      10.18     0.2000
  176.1      15.99      8.044     0.2000
  176.1      16.02      15.64     0.2000
  176.1      16.04      16.98     0.2000
  176.1      16.07      16.63     0.2000
  176.1      16.09      10.13     0.2000
  176.1      16.12      6.980     0.2000
  176.1      16.14      8.537     0.2000
  176.1      16.17      10.32     0.2000
  176.1      16.19      10.42     0.2000
  176.1      16.22      8.280     0.2000
  176.1      16.24      6.477     0.2000
  176.1      16.27      8.256     0.2000
  176.1      16.29      8.135     0.2000
  176.1      16.31      5.890     0.2000
  176.1      16.34      5.764     0.2000
  176.1      16.37      5.078     0.2000
  176.1      16.39      8.425     0.2000
  176.1      16.42      9.309     0.2000
  176.1      16.44      8.292     0.2000
  176.1      16.47      6.713     0.2000
  176.1      16.50      3.678     0.2000
  176.1      16.52      4.900     0.2000
  176.1      16.54      5.000     0.2000
  176.1      16.57      6.892     0.2000
  176.1      16.60      11.58     0.2000
  176.1      16.62      5.973     0.2000
  176.1      16.64      2.606     0.2000
  176.1      16.67      2.480     0.2000
  176.1      16.70      3.141     0.2000
  176.1      16.72      1.676     0.2000
  176.1      16.75      1.552     0.2000
  176.1      16.76      2.776     0.2000
  176.1      16.79      3.321     0.2000
  176.1      16.82      3.087     0.2000
  176.1      16.84      5.876     0.2000
  176.1      16.87      5.301     0.2000
  176.1      16.89      5.404     0.2000
  176.1      16.92      5.279     0.2000
  176.1      16.94      4.264     0.2000
  176.1      16.97      3.467     0.2000
  176.1      17.00      2.447     0.2000
  176.1      17.02      2.660     0.2000
  176.1      17.04      5.783     0.2000
  176.1      17.07      10.03     0.2000
  176.1      17.09      7.441     0.2000
  176.1      17.12      5.415     0.2000
  176.1      17.14      3.054     0.2000
  176.1      17.18      3.482     0.2000
  176.1      17.22      3.465     0.2000
  176.1      17.24      7.484     0.2000
  176.1      17.27      8.593     0.2000
  176.1      17.30      9.475     0.2000
  176.1      17.32      10.58     0.2000
  176.1      17.35      9.788     0.2000
  176.1      17.37      8.770     0.2000
  176.1      17.39      7.755     0.2000
  176.1      17.42      5.279     0.2000
  176.1      17.44      6.947     0.2000
  176.1      17.47      6.598     0.2000
  176.1      17.50      3.789     0.2000
  176.1      17.53      3.437     0.2000
  176.1      17.57      2.860     0.2000
  176.1      17.60      9.562     0.2000
  176.1      17.62      14.59     0.2000
  176.1      17.65      17.04     0.2000
  176.1      17.67      14.68     0.2000
  176.1      17.70      11.42     0.2000
  176.1      17.72      3.911     0.2000
  176.1      17.74      2.000     0.2000
  176.1      17.77      1.428     0.2000
  176.1      17.80      3.542     0.2000
  176.1      17.83      4.089     0.2000
  176.1      17.85      4.526     0.2000
  176.1      17.88      11.12     0.2000
  176.1      17.90      16.03     0.2000
  176.1      17.93      13.44     0.2000
  176.1      17.95      6.607     0.2000
  176.1      17.97      5.815     0.2000
ENDDATA           1306
ENDSUBENT         1319
SUBENT        F0493003   20030516   20030930
BIB                  3          4
REACTION   (20-CA-40(A,EL)20-CA-40,,DA)
ERR-ANALYS (ANG-ERR) Digitizing error
           (DATA-ERR) Digitizing error
STATUS     (CURVE) Fig.4-6
ENDBIB               4
COMMON               2          3
ANG-ERR    DATA-ERR
ADEG       PER-CENT
  1.1       0.02
ENDCOMMON            3
DATA                 3       3578
EN         ANG-CM     DATA-CM
MEV        ADEG       MB/SR
  12.10      25.10      4801.
  12.10      27.03      2790.
  12.10      29.33      1567.
  12.10      32.78      1278.
  12.10      35.08      836.2
  12.10      37.77      682.1
  12.10      40.45      453.9
  12.10      43.13      370.3
  12.10      46.20      242.3
  12.10      48.50      184.6
  12.10      51.95      118.8
  12.10      54.25      101.9
  12.10      56.93      77.70
  12.10      60.39      39.41
  12.10      62.68      46.69
  12.10      64.98      44.37
  12.10      68.04      31.07
  12.10      70.73      22.50
  12.10      73.80      15.23
  12.10      76.48      12.22
  12.10      76.48      10.49
  12.10      81.45      10.31
  12.10      84.89      11.60
  12.10      87.18      11.02
  12.10      91.01      9.623
  12.10      92.92      8.121
  12.10      94.84      6.738
  12.10      96.76      5.136
  12.10      99.06      3.536
  12.10      101.7      2.836
  12.10      104.8      2.054
  12.10      106.3      1.513
  12.10      109.0      1.367
  12.10      112.8      1.539
  12.10      115.5      1.792
  12.10      119.0      1.761
  12.10      123.9      2.195
  12.10      126.2      2.471
  12.10      129.3      2.782
  12.10      130.8      3.080
  12.10      133.8      3.711
  12.10      138.4      3.586
  12.10      141.5      4.106
  12.10      144.5      3.465
  12.10      148.0      3.349
  12.10      150.3      2.826
  12.10      152.2      2.425
  12.10      155.3      1.169
  12.10      157.6      1.787
  12.10      160.2      2.466
  12.10      162.1      3.126
  12.10      164.0      3.125
  12.10      166.3      7.422
  12.10      169.0      11.34
  12.10      170.5      12.34
  12.10      175.5      17.32
  12.20      27.08      4755.
  12.20      30.76      3115.
  12.20      32.92      1876.
  12.20      35.10      1250.
  12.20      38.03      833.2
  12.20      40.61      614.5
  12.20      43.58      493.1
  12.20      46.16      389.1
  12.20      47.97      259.3
  12.20      51.67      188.0
  12.20      53.87      145.9
  12.20      57.22      119.0
  12.20      59.05      90.82
  12.20      61.63      68.12
  12.20      63.45      51.10
  12.20      67.16      39.64
  12.20      68.97      26.42
  12.20      72.30      20.50
  12.20      74.91      18.20
  12.20      79.03      16.72
  12.20      84.69      19.12
  12.20      90.69      16.97
  12.20      91.79      15.07
  12.20      92.52      12.94
  12.20      92.87      11.31
  12.20      95.45      8.626
  12.20      97.26      5.947
  12.20      99.81      3.963
  12.20      102.4      2.427
  12.20      104.9      1.645
  12.20      107.9      1.590
  12.20      109.8      2.154
  12.20      112.6      3.397
  12.20      115.2      3.952
  12.20      117.5      5.265
  12.20      120.2      5.923
  12.20      124.3      6.226
  12.20      128.5      6.015
  12.20      132.6      4.908
  12.20      137.0      3.680
  12.20      138.5      3.055
  12.20      140.7      2.807
  12.20      143.3      1.968
  12.20      145.1      1.719
  12.20      148.1      1.451
  12.20      150.8      1.500
  12.20      153.0      1.332
  12.20      155.6      1.287
  12.20      157.5      1.549
  12.20      159.8      2.064
  12.20      162.1      2.796
  12.20      164.8      3.366
  12.20      166.4      4.879
  12.20      168.7      6.499
  12.20      172.1      8.090
  12.20      174.8      9.414
  12.20      175.6      10.96
  12.30      26.28      5196.
  12.30      29.65      3574.
  12.30      31.53      2111.
  12.30      35.65      1380.
  12.30      37.90      933.8
  12.30      39.78      711.5
  12.30      43.15      541.9
  12.30      45.03      427.2
  12.30      48.03      261.0
  12.30      50.65      235.6
  12.30      54.03      182.5
  12.30      55.90      132.2
  12.30      58.53      100.7
  12.30      62.28      75.39
  12.30      64.15      55.53
  12.30      66.40      41.59
  12.30      69.03      35.08
  12.30      71.65      31.67
  12.30      73.90      28.11
  12.30      76.90      26.25
  12.30      79.89      25.79
  12.30      82.14      23.28
  12.30      84.77      22.11
  12.30      86.27      18.34
  12.30      89.27      15.47
  12.30      91.89      11.39
  12.30      92.64      8.111
  12.30      94.52      6.076
  12.30      97.14      5.772
  12.30      97.52      4.788
  12.30      99.39      3.774
  12.30      102.0      3.350
  12.30      104.6      3.348
  12.30      107.6      3.461
  12.30      110.3      4.030
  12.30      112.1      4.938
  12.30      114.8      4.852
  12.30      117.4      5.017
  12.30      121.5      4.683
  12.30      124.5      4.018
  12.30      127.1      3.332
  12.30      128.6      2.454
  12.30      130.9      1.807
  12.30      134.6      1.424
  12.30      136.9      1.161
  12.30      138.7      1.472
  12.30      141.0      2.406
  12.30      144.0      3.376
  12.30      145.8      3.866
  12.30      147.3      4.579
  12.30      151.1      5.901
  12.30      153.7      5.511
  12.30      157.1      5.894
  12.30      158.6      6.306
  12.30      160.8      7.468
  12.30      164.2      9.304
  12.30      165.7      12.00
  12.30      167.9      16.00
  12.30      170.6      19.27
  12.30      171.7      22.45
  12.30      174.3      25.26
  12.40      27.47      4807.
  12.40      30.44      3034.
  12.40      33.02      1915.
  12.40      35.61      1189.
  12.40      38.95      817.1
  12.40      40.81      643.7
  12.40      43.03      465.7
  12.40      46.01      360.7
  12.40      48.98      261.0
  12.40      51.21      202.1
  12.40      54.94      143.8
  12.40      56.79      117.2
  12.40      58.66      98.84
  12.40      61.26      77.87
  12.40      64.62      60.32
  12.40      67.22      45.93
  12.40      69.08      38.74
  12.40      72.43      27.55
  12.40      74.66      22.46
  12.40      76.90      18.94
  12.40      80.27      17.40
  12.40      83.27      16.26
  12.40      87.01      14.94
  12.40      90.39      14.44
  12.40      91.88      13.26
  12.40      93.36      10.10
  12.40      94.84      8.230
  12.40      97.07      6.484
  12.40      100.4      4.938
  12.40      103.0      3.696
  12.40      106.4      3.513
  12.40      109.8      4.028
  12.40      112.4      4.697
  12.40      114.3      5.204
  12.40      117.0      5.865
  12.40      121.5      7.078
  12.40      123.7      6.727
  12.40      126.3      6.393
  12.40      129.7      6.395
  12.40      132.0      5.394
  12.40      135.3      4.550
  12.40      138.3      4.399
  12.40      141.3      3.774
  12.40      142.8      3.775
  12.40      145.8      3.294
  12.40      148.1      3.131
  12.40      149.5      2.552
  12.40      152.5      2.467
  12.40      155.2      2.081
  12.40      157.0      1.847
  12.40      158.5      2.154
  12.40      161.9      2.830
  12.40      164.6      4.190
  12.40      166.5      5.794
  12.40      168.8      8.726
  12.40      170.7      11.66
  12.40      173.7      14.31
  12.40      175.2      15.86
  12.50      27.11      4843.
  12.50      28.59      3009.
  12.50      31.57      1808.
  12.50      34.93      1224.
  12.50      37.92      917.1
  12.50      40.16      631.2
  12.50      42.02      481.1
  12.50      45.39      342.7
  12.50      48.76      256.9
  12.50      51.00      192.5
  12.50      53.62      144.3
  12.50      56.61      108.1
  12.50      58.86      91.28
  12.50      61.85      67.26
  12.50      64.09      50.40
  12.50      66.70      37.14
  12.50      69.32      26.90
  12.50      71.55      18.20
  12.50      74.18      15.90
  12.50      77.18      14.62
  12.50      79.82      15.93
  12.50      81.70      16.21
  12.50      84.71      15.68
  12.50      86.96      14.42
  12.50      89.22      13.94
  12.50      91.84      11.77
  12.50      93.71      9.603
  12.50      95.57      7.074
  12.50      97.44      5.771
  12.50      99.68      3.774
  12.50      101.9      2.926
  12.50      104.9      2.831
  12.50      107.9      3.247
  12.50      109.8      3.852
  12.50      112.9      4.810
  12.50      115.1      5.422
  12.50      117.0      5.709
  12.50      120.8      5.716
  12.50      123.8      5.255
  12.50      127.2      4.915
  12.50      129.8      4.149
  12.50      130.9      3.108
  12.50      134.6      2.494
  12.50      136.9      2.035
  12.50      139.1      1.870
  12.50      142.9      1.553
  12.50      147.0      1.693
  12.50      150.8      1.910
  12.50      154.6      2.267
  12.50      156.5      2.928
  12.50      159.9      3.981
  12.50      161.4      5.141
  12.50      164.0      7.109
  12.50      166.3      9.183
  12.50      168.2      12.06
  12.50      170.9      15.58
  12.50      172.8      17.87
  12.50      174.6      20.14
  12.60      28.43      4597.
  12.60      29.93      3580.
  12.60      31.04      2742.
  12.60      33.67      1838.
  12.60      36.66      1114.
  12.60      39.68      853.5
  12.60      42.68      601.5
  12.60      44.56      460.6
  12.60      47.56      308.8
  12.60      49.43      236.5
  12.60      52.44      175.2
  12.60      55.07      127.6
  12.60      57.71      99.40
  12.60      60.34      78.72
  12.60      62.98      65.54
  12.60      65.61      51.91
  12.60      68.24      37.19
  12.60      70.87      27.55
  12.60      73.88      19.41
  12.60      76.51      15.90
  12.60      79.16      15.64
  12.60      81.06      16.72
  12.60      82.96      18.18
  12.60      85.99      19.45
  12.60      90.91      18.51
  12.60      93.55      15.67
  12.60      95.42      12.41
  12.60      98.05      8.743
  12.60      99.92      6.264
  12.60      101.8      3.927
  12.60      104.4      2.342
  12.60      106.7      2.632
  12.60      108.6      2.862
  12.60      111.6      3.866
  12.60      114.3      5.870
  12.60      116.2      7.416
  12.60      119.2      8.479
  12.60      122.7      8.625
  12.60      125.7      9.380
  12.60      128.7      8.211
  12.60      131.4      7.308
  12.60      132.8      5.691
  12.60      135.5      5.237
  12.60      138.5      4.361
  12.60      140.0      4.012
  12.60      143.4      3.341
  12.60      144.9      2.602
  12.60      147.5      2.026
  12.60      150.2      1.578
  12.60      151.7      1.040
  12.60      153.9     0.9571
  12.60      156.6      1.429
  12.60      159.3      2.695
  12.60      161.6      5.617
  12.60      163.9      10.25
  12.60      166.2      15.55
  12.60      169.3      22.46
  12.60      171.6      32.43
  12.60      173.5      42.37
  12.60      175.4      46.84
  12.60      178.4      52.67
  12.70      28.18      4557.
  12.70      30.86      2799.
  12.70      32.78      1839.
  12.70      35.45      1271.
  12.70      38.87      878.4
  12.70      41.92      617.3
  12.70      43.46      419.4
  12.70      46.50      315.2
  12.70      49.54      229.1
  12.70      51.82      166.5
  12.70      54.86      125.1
  12.70      57.48      129.4
  12.70      59.41      82.24
  12.70      62.81      66.11
  12.70      65.47      52.26
  12.70      68.11      44.18
  12.70      68.50      38.62
  12.70      70.77      34.92
  12.70      72.30      27.14
  12.70      75.69      23.34
  12.70      79.08      21.46
  12.70      81.32      22.19
  12.70      82.83      21.83
  12.70      84.71      20.41
  12.70      90.35      17.85
  12.70      93.39      13.64
  12.70      95.30      10.25
  12.70      97.21      7.204
  12.70      99.89      4.733
  12.70      101.4      3.326
  12.70      103.7      2.812
  12.70      105.6      2.186
  12.70      108.6      2.338
  12.70      110.5      2.501
  12.70      114.2      3.218
  12.70      117.9      3.112
  12.70      121.3      2.960
  12.70      123.2      2.151
  12.70      125.8      2.676
  12.70      131.1      2.152
  12.70      135.3      2.046
  12.70      137.9      1.882
  12.70      140.1      1.882
  12.70      143.1      2.421
  12.70      146.1      2.303
  12.70      149.1      2.422
  12.70      151.4      2.505
  12.70      155.1      2.680
  12.70      158.4      3.627
  12.70      160.7      5.162
  12.70      163.2      6.986
  12.70      165.5      9.777
  12.70      168.4      13.68
  12.70      170.6      18.21
  12.70      171.8      20.83
  12.70      174.7      26.36
  12.70      177.3      28.67
  12.80      27.46      5526.
  12.80      30.13      3741.
  12.80      32.82      2211.
  12.80      35.87      1497.
  12.80      38.54      979.2
  12.80      41.59      685.8
  12.80      43.12      505.3
  12.80      46.54      372.4
  12.80      49.57      293.7
  12.80      51.86      223.9
  12.80      54.90      167.8
  12.80      57.93      134.6
  12.80      60.20      117.6
  12.80      62.11      92.71
  12.80      65.52      68.32
  12.80      67.44      48.66
  12.80      70.50      29.25
  12.80      72.03      20.14
  12.80      75.82      17.00
  12.80      77.71      16.16
  12.80      81.84      18.21
  12.80      84.85      18.84
  12.80      88.63      17.61
  12.80      90.52      15.12
  12.80      92.43      11.14
  12.80      93.96      8.936
  12.80      95.86      7.047
  12.80      97.77      5.750
  12.80      98.91      4.936
  12.80      101.6      3.637
  12.80      104.6      3.286
  12.80      106.9      3.578
  12.80      108.7      4.241
  12.80      112.1      5.663
  12.80      114.7      6.944
  12.80      117.0      7.562
  12.80      119.6      7.564
  12.80      122.2      6.719
  12.80      124.5      6.496
  12.80      127.2      5.391
  12.80      129.1      4.324
  12.80      131.3      3.589
  12.80      134.0      2.471
  12.80      135.5      1.948
  12.80      137.4      1.485
  12.80      140.1      1.342
  12.80      145.4      1.487
  12.80      147.2      1.675
  12.80      150.2      1.919
  12.80      151.7      2.236
  12.80      154.7      2.394
  12.80      157.4      2.563
  12.80      159.3      2.564
  12.80      161.5      2.745
  12.80      163.4      3.664
  12.80      165.6      4.728
  12.80      168.6      6.531
  12.80      170.8      8.428
  12.80      172.7      10.69
  12.80      175.3      13.56
  12.80      177.6      14.77
  12.90      26.37      5303.
  12.90      29.75      3705.
  12.90      32.37      2257.
  12.90      35.00      1447.
  12.90      37.62      943.8
  12.90      40.25      852.4
  12.90      43.25      510.4
  12.90      45.87      388.4
  12.90      48.87      240.7
  12.90      51.12      221.1
  12.90      54.12      165.4
  12.90      56.75      128.1
  12.90      59.00      92.57
  12.90      61.62      76.75
  12.90      64.62      53.62
  12.90      70.62      24.02
  12.90      72.50      22.45
  12.90      73.25      19.58
  12.90      75.12      19.26
  12.90      78.50      19.28
  12.90      83.75      21.78
  12.90      85.25      19.66
  12.90      88.25      18.38
  12.90      90.50      14.23
  12.90      91.62      11.39
  12.90      92.37      9.766
  12.90      93.50      8.666
  12.90      95.75      7.433
  12.90      96.50      6.159
  12.90      100.2      2.805
  12.90      101.7      2.532
  12.90      105.1      2.249
  12.90      107.7      2.452
  12.90      109.2      2.539
  12.90      113.0      3.520
  12.90      115.2      4.327
  12.90      117.9      5.319
  12.90      121.6      5.418
  12.90      124.6      4.649
  12.90      127.6      4.735
  12.90      128.4      3.362
  12.90      131.7      3.038
  12.90      134.0      2.351
  12.90      136.6      1.759
  12.90      138.1     0.9999
  12.90      141.1      1.072
  12.90      144.5      1.412
  12.90      147.1      1.990
  12.90      147.9      2.530
  12.90      150.9      3.220
  12.90      153.1      3.824
  12.90      154.6      4.098
  12.90      157.6      3.457
  12.90      159.9      3.834
  12.90      161.7      4.179
  12.90      164.0      5.792
  12.90      167.0      6.649
  12.90      169.2      9.536
  12.90      171.1      12.55
  12.90      173.7      17.40
  12.90      175.6      18.64
  13.00      25.87      5520.
  13.00      28.87      3194.
  13.00      31.12      1334.
  13.00      35.64      916.5
  13.00      38.65      608.2
  13.00      43.16      352.1
  13.00      46.17      250.2
  13.00      48.80      190.4
  13.00      51.81      96.04
  13.00      54.44      86.75
  13.00      56.70      73.15
  13.00      58.58      66.05
  13.00      62.33      27.60
  13.00      65.34      21.74
  13.00      66.85      19.29
  13.00      69.48      18.66
  13.00      74.00      18.70
  13.00      77.39      19.38
  13.00      80.02      17.50
  13.00      83.41      11.62
  13.00      85.66      9.964
  13.00      87.92      4.457
  13.00      91.30      3.009
  13.00      93.18      2.329
  13.00      98.07      2.105
  13.00      100.7      1.716
  13.00      103.3      1.306
  13.00      106.4      1.499
  13.00      108.6      2.553
  13.00      109.4      2.879
  13.00      112.4      2.738
  13.00      115.8      3.145
  13.00      120.7      3.433
  13.00      124.0      2.997
  13.00      127.1      2.950
  13.00      130.1      2.061
  13.00      132.7     0.9062
  13.00      135.3     0.6012
  13.00      137.6     0.9559
  13.00      139.9      1.348
  13.00      141.7      1.470
  13.00      144.0      2.220
  13.00      146.3      3.715
  13.00      148.9      4.414
  13.00      151.9      4.420
  13.00      154.2      3.991
  13.00      157.9      3.930
  13.00      160.2      3.148
  13.00      161.7      4.437
  13.00      164.3      7.302
  13.00      168.9      14.27
  13.00      171.5      19.45
  13.00      173.4      34.27
  13.00      175.3      39.34
  13.10      25.23      5070.
  13.10      28.61      2887.
  13.10      31.99      1790.
  13.10      36.50      830.5
  13.10      39.13      632.1
  13.10      42.13      419.7
  13.10      45.89      298.4
  13.10      48.14      223.3
  13.10      51.89      161.5
  13.10      53.76      140.9
  13.10      59.76      83.05
  13.10      61.27      64.29
  13.10      65.01      51.52
  13.10      67.27      34.20
  13.10      70.27      28.85
  13.10      73.64      24.75
  13.10      76.26      22.73
  13.10      80.00      24.35
  13.10      83.00      22.76
  13.10      85.25      17.92
  13.10      87.50      15.11
  13.10      90.13      11.70
  13.10      93.13      8.462
  13.10      93.13      7.381
  13.10      93.88      6.550
  13.10      95.01      5.714
  13.10      95.01      5.337
  13.10      97.26      3.993
  13.10      99.88      3.545
  13.10      102.1      3.607
  13.10      105.1      3.864
  13.10      109.2      4.140
  13.10      112.2      4.286
  13.10      115.6      4.591
  13.10      118.6      4.146
  13.10      121.2      4.077
  13.10      122.3      3.322
  13.10      125.3      2.949
  13.10      126.8      2.403
  13.10      130.2      2.246
  13.10      135.1      1.441
  13.10      138.8      1.394
  13.10      141.1      1.418
  13.10      143.3      1.599
  13.10      145.9      1.742
  13.10      148.9      1.835
  13.10      151.9      1.714
  13.10      156.0      1.575
  13.10      157.2      1.398
  13.10      159.4      1.351
  13.10      162.4      1.839
  13.10      163.5      2.459
  13.10      166.1      3.707
  13.10      168.7      4.874
  13.10      170.2      6.407
  13.10      173.2      7.476
  13.10      176.2      9.181
  13.20      27.04      6112.
  13.20      30.31      3297.
  13.20      33.22      1937.
  13.20      35.40      1306.
  13.20      38.35      958.9
  13.20      40.17      692.3
  13.20      43.47      450.9
  13.20      44.54      336.9
  13.20      48.61      247.3
  13.20      51.17      166.7
  13.20      54.87      135.7
  13.20      55.97      112.4
  13.20      58.56      96.27
  13.20      62.98      63.78
  13.20      64.43      46.84
  13.20      67.73      29.48
  13.20      69.91      19.87
  13.20      71.73      14.10
  13.20      74.70      12.29
  13.20      77.70      13.16
  13.20      83.33      14.83
  13.20      87.43      13.61
  13.20      91.08      7.860
  13.20      91.14      11.07
  13.20      94.04      6.288
  13.20      95.15      5.673
  13.20      96.21      3.958
  13.20      98.43      3.277
  13.20      99.90      2.760
  13.20      103.6      2.365
  13.20      105.5      2.759
  13.20      107.0      3.389
  13.20      110.8      4.307
  13.20      113.8      4.772
  13.20      116.1      5.380
  13.20      120.6      6.494
  13.20      124.7      6.273
  13.20      128.0      4.849
  13.20      129.9      4.300
  13.20      132.8      3.325
  13.20      133.9      2.753
  13.20      136.9      2.319
  13.20      138.4      1.855
  13.20      142.1      1.823
  13.20      144.0      1.792
  13.20      146.2      2.091
  13.20      148.9      2.703
  13.20      149.7      3.047
  13.20      150.8      3.377
  13.20      154.2      3.872
  13.20      157.2      5.093
  13.20      159.1      6.699
  13.20      162.2      8.514
  13.20      165.6      11.79
  13.20      166.8      16.61
  13.20      169.4      22.22
  13.20      170.6      26.83
  13.20      172.5      32.39
  13.20      174.4      39.79
  13.30      25.64      5160.
  13.30      27.89      3145.
  13.30      30.50      2088.
  13.30      33.11      1434.
  13.30      35.35      1002.
  13.30      39.08      711.6
  13.30      41.33      505.7
  13.30      43.19      398.2
  13.30      46.18      251.1
  13.30      48.79      204.5
  13.30      52.89      161.0
  13.30      54.01      138.0
  13.30      57.74      106.8
  13.30      61.10      79.89
  13.30      62.97      57.75
  13.30      66.33      37.04
  13.30      68.19      26.32
  13.30      70.43      20.03
  13.30      74.53      18.38
  13.30      77.14      22.17
  13.30      79.75      23.33
  13.30      82.73      22.54
  13.30      86.08      19.99
  13.30      89.44      14.45
  13.30      90.56      11.00
  13.30      91.31      9.430
  13.30      92.06      8.226
  13.30      94.30      6.153
  13.30      96.54      4.524
  13.30      98.40      3.813
  13.30      101.4      3.441
  13.30      104.0      3.747
  13.30      107.3      4.010
  13.30      110.7      4.754
  13.30      114.0      4.834
  13.30      119.3      3.677
  13.30      120.4      3.318
  13.30      124.9      2.612
  13.30      127.5      1.763
  13.30      128.6      1.275
  13.30      131.2     0.8755
  13.30      134.9     0.6328
  13.30      137.6     0.7376
  13.30      139.8      1.074
  13.30      143.1      1.295
  13.30      145.0      1.509
  13.30      146.1      1.790
  13.30      148.7      2.051
  13.30      151.3      2.233
  13.30      153.9      1.947
  13.30      157.3      2.120
  13.30      160.6      2.514
  13.30      163.6      2.881
  13.30      165.8      5.897
  13.30      167.0      8.155
  13.30      169.9      10.35
  13.30      174.4      12.92
  13.40      27.86      4670.
  13.40      30.38      2888.
  13.40      33.28      1786.
  13.40      36.57      1268.
  13.40      38.37      839.5
  13.40      41.66      606.2
  13.40      43.47      452.8
  13.40      44.91      338.2
  13.40      49.30      224.2
  13.40      50.75      173.3
  13.40      54.04      127.3
  13.40      55.13      105.4
  13.40      58.78      69.84
  13.40      60.96      49.55
  13.40      64.25      35.78
  13.40      67.17      26.74
  13.40      68.25      20.31
  13.40      71.96      20.34
  13.40      74.19      20.71
  13.40      75.69      22.97
  13.40      79.76      21.11
  13.40      82.35      19.73
  13.40      84.19      17.80
  13.40      87.88      14.76
  13.40      89.68      10.11
  13.40      90.75      7.816
  13.40      92.22      6.933
  13.40      92.93      5.546
  13.40      95.12      4.515
  13.40      96.95      3.675
  13.40      99.14      2.891
  13.40      106.2      3.052
  13.40      108.4      3.272
  13.40      114.0      4.030
  13.40      119.3      4.714
  13.40      121.9      4.969
  13.40      125.6      4.565
  13.40      128.9      3.655
  13.40      131.1      3.027
  13.40      132.9      2.261
  13.40      134.7      1.523
  13.40      138.0      1.400
  13.40      140.6      1.501
  13.40      142.1      1.814
  13.40      144.0      2.474
  13.40      147.0      2.700
  13.40      149.7      3.155
  13.40      151.5      2.947
  13.40      152.5      1.205
  13.40      154.0      2.020
  13.40      156.2      1.070
  13.40      158.4      1.386
  13.40      161.1      2.622
  13.40      163.5      5.788
  13.40      165.8      11.14
  13.40      168.9      19.67
  13.40      170.0      24.19
  13.40      171.9      34.73
  13.40      174.9      41.30
  13.50      25.81      5107.
  13.50      29.18      2765.
  13.50      32.53      1868.
  13.50      34.03      1306.
  13.50      37.01      913.3
  13.50      39.61      695.4
  13.50      42.22      469.9
  13.50      45.58      296.6
  13.50      48.18      225.9
  13.50      51.17      140.2
  13.50      53.78      106.7
  13.50      56.01      85.52
  13.50      58.23      73.38
  13.50      61.58      54.01
  13.50      64.18      42.55
  13.50      66.06      26.85
  13.50      68.65      23.04
  13.50      73.11      15.84
  13.50      77.17      15.32
  13.50      78.27      17.56
  13.50      81.59      17.88
  13.50      83.44      15.87
  13.50      86.78      12.72
  13.50      89.00      11.29
  13.50      89.77      7.893
  13.50      90.89      6.217
  13.50      92.01      5.425
  13.50      94.25      3.729
  13.50      96.87      2.394
  13.50      98.01      1.460
  13.50      101.8     0.7639
  13.50      104.0     0.8910
  13.50      107.6      1.320
  13.50      109.4      1.955
  13.50      112.4      2.242
  13.50      113.5      2.896
  13.50      116.8      4.146
  13.50      120.4      4.921
  13.50      123.0      4.923
  13.50      125.6      5.184
  13.50      130.8      4.526
  13.50      133.7      3.818
  13.50      134.5      3.389
  13.50      140.4      2.453
  13.50      141.9      1.496
  13.50      144.9      1.658
  13.50      146.7      2.036
  13.50      149.3      2.374
  13.50      153.3      2.458
  13.50      157.0      2.679
  13.50      162.5      2.775
  13.50      164.7      3.406
  13.50      166.9      4.401
  13.50      169.9      6.632
  13.50      172.1      7.604
  13.50      172.8      9.823
  13.60      25.99      4505.
  13.60      28.61      3049.
  13.60      31.97      2100.
  13.60      34.60      1421.
  13.60      37.99      733.3
  13.60      40.61      513.6
  13.60      43.22      372.1
  13.60      45.11      247.6
  13.60      48.11      154.0
  13.60      51.08      136.8
  13.60      54.05      121.5
  13.60      56.29      95.81
  13.60      58.54      70.60
  13.60      61.52      54.75
  13.60      63.77      39.00
  13.60      67.15      23.05
  13.60      69.40      15.08
  13.60      72.38      11.69
  13.60      75.33      14.34
  13.60      79.39      15.10
  13.60      83.09      14.85
  13.60      84.58      12.75
  13.60      87.57      9.719
  13.60      89.45      6.922
  13.60      90.96      4.685
  13.60      92.83      3.822
  13.60      93.95      3.226
  13.60      96.56      2.588
  13.60      99.88      2.867
  13.60      102.1      3.637
  13.60      105.0      4.167
  13.60      108.0      4.462
  13.60      111.7      4.464
  13.60      115.8      4.244
  13.60      118.4      3.706
  13.60      121.7      3.076
  13.60      123.9      3.025
  13.60      125.4      2.641
  13.60      127.3      2.229
  13.60      130.3      1.882
  13.60      133.2      1.700
  13.60      134.7      1.485
  13.60      137.3      1.132
  13.60      139.6     0.9392
  13.60      144.0     0.8780
  13.60      146.6     0.8933
  13.60      148.8      1.133
  13.60      150.3      1.255
  13.60      155.8      1.566
  13.60      158.0      1.856
  13.60      160.2      2.564
  13.60      162.0      3.144
  13.60      165.3      4.127
  13.60      166.4      5.895
  13.60      169.3      7.607
  13.60      170.8      8.143
  13.60      173.0      9.019
  13.70      26.01      4879.
  13.70      29.49      2983.
  13.70      31.84      1918.
  13.70      34.18      1234.
  13.70      36.88      878.7
  13.70      40.36      546.3
  13.70      42.33      351.4
  13.70      46.54      233.8
  13.70      47.71      190.7
  13.70      50.77      142.9
  13.70      53.04      124.8
  13.70      54.97      96.71
  13.70      58.76      78.89
  13.70      61.86      49.89
  13.70      63.83      31.55
  13.70      66.21      17.71
  13.70      69.66      12.40
  13.70      73.04      11.99
  13.70      76.00      14.21
  13.70      77.84      16.00
  13.70      80.45      17.12
  13.70      83.46      15.73
  13.70      84.99      13.50
  13.70      88.43      10.29
  13.70      90.37      7.454
  13.70      91.96      4.960
  13.70      93.14      3.780
  13.70      94.67      3.245
  13.70      95.47      2.692
  13.70      96.99      2.390
  13.70      101.1      2.350
  13.70      103.7      2.833
  13.70      106.7      3.245
  13.70      108.5      3.978
  13.70      111.1      4.480
  13.70      115.6      4.795
  13.70      121.1      5.400
  13.70      124.5      5.400
  13.70      129.0      5.492
  13.70      132.8      4.714
  13.70      134.3      3.717
  13.70      136.3      2.981
  13.70      138.6      2.196
  13.70      140.9      1.591
  13.70      142.8      1.276
  13.70      146.2      1.006
  13.70      150.7      1.276
  13.70      152.9      1.413
  13.70      155.6      1.172
  13.70      159.0      1.095
  13.70      162.3      1.255
  13.70      165.5      2.123
  13.70      166.2      3.655
  13.70      168.7      5.880
  13.70      171.2      8.837
  13.70      172.7      10.12
  13.70      175.2      14.21
  13.80      26.16      4127.
  13.80      30.35      2572.
  13.80      33.04      1686.
  13.80      36.09      1183.
  13.80      39.15      724.7
  13.80      40.69      553.1
  13.80      43.74      381.5
  13.80      45.67      263.1
  13.80      48.34      181.5
  13.80      52.13      138.5
  13.80      54.41      115.0
  13.80      57.07      93.87
  13.80      59.73      75.36
  13.80      62.02      55.61
  13.80      65.81      41.72
  13.80      68.12      27.82
  13.80      70.42      19.19
  13.80      72.31      16.48
  13.80      76.46      14.89
  13.80      79.46      16.19
  13.80      82.85      15.13
  13.80      85.49      13.90
  13.80      88.53      11.16
  13.80      91.58      7.960
  13.80      92.36      6.076
  13.80      92.38      4.962
  13.80      95.82      3.308
  13.80      97.72      2.747
  13.80      100.7      2.400
  13.80      104.1      2.700
  13.80      107.5      2.986
  13.80      109.7      2.985
  13.80      113.5      3.087
  13.80      114.6      2.742
  13.80      118.4      2.519
  13.80      121.0      2.519
  13.80      123.7      2.276
  13.80      129.3      2.055
  13.80      131.6      1.736
  13.80      135.8      1.490
  13.80      137.3     0.9772
  13.80      140.0     0.7333
  13.80      142.3     0.4890
  13.80      144.6     0.4569
  13.80      148.3     0.5317
  13.80      152.8     0.7968
  13.80      160.3     0.8517
  13.80      162.1      1.173
  13.80      165.4      1.819
  13.80      167.6      3.283
  13.80      169.1      5.446
  13.80      171.3      7.892
  13.80      173.9      9.340
  13.80      176.5      11.43
  13.90      26.07      4027.
  13.90      30.24      2498.
  13.90      33.28      1549.
  13.90      35.56      1120.
  13.90      38.98      682.9
  13.90      42.01      502.4
  13.90      45.79      345.3
  13.90      46.57      258.3
  13.90      49.22      183.6
  13.90      52.63      135.1
  13.90      55.28      101.1
  13.90      56.79      89.71
  13.90      60.20      57.57
  13.90      62.85      43.83
  13.90      65.13      33.36
  13.90      68.92      21.41
  13.90      71.19      16.02
  13.90      74.20      15.49
  13.90      78.69      15.77
  13.90      81.69      14.99
  13.90      84.32      14.74
  13.90      86.96      12.02
  13.90      89.98      9.629
  13.90      90.76      6.613
  13.90      91.16      5.297
  13.90      92.30      4.701
  13.90      93.43      4.391
  13.90      95.69      3.640
  13.90      95.71      3.121
  13.90      99.47      2.633
  13.90      101.7      2.418
  13.90      104.7      2.591
  13.90      107.3      2.637
  13.90      109.2      3.238
  13.90      112.9      3.652
  13.90      116.3      4.049
  13.90      120.0      4.567
  13.90      122.3      4.728
  13.90      124.1      4.978
  13.90      127.1      4.814
  13.90      129.4      4.422
  13.90      132.0      3.793
  13.90      134.3      2.937
  13.90      136.2      2.017
  13.90      139.3      1.230
  13.90      140.8     0.7496
  13.90      143.1     0.5514
  13.90      147.6     0.6436
  13.90      148.7     0.8318
  13.90      149.8     0.9538
  13.90      153.5      1.298
  13.90      157.6      1.114
  13.90      159.1     0.9555
  13.90      162.5     0.9726
  13.90      164.4      1.279
  13.90      167.7      2.367
  13.90      169.5      3.568
  13.90      171.7      5.760
  13.90      172.8      6.952
  13.90      175.0      9.623
  14.00      27.73      4421.
  14.00      31.54      2686.
  14.00      33.46      1809.
  14.00      36.88      1239.
  14.00      39.56      849.1
  14.00      42.61      571.9
  14.00      44.53      378.6
  14.00      47.21      238.1
  14.00      48.76      152.3
  14.00      53.30      121.8
  14.00      55.55      117.7
  14.00      57.45      100.8
  14.00      60.48      80.61
  14.00      63.53      55.23
  14.00      66.20      37.20
  14.00      68.90      20.39
  14.00      71.97      11.17
  14.00      73.89      7.524
  14.00      76.85      10.79
  14.00      79.10      11.76
  14.00      81.33      14.96
  14.00      83.20      15.48
  14.00      88.10      13.03
  14.00      89.24      11.96
  14.00      91.53      8.481
  14.00      92.71      5.425
  14.00      94.61      4.265
  14.00      95.76      3.531
  14.00      96.55      2.504
  14.00      100.4      1.521
  14.00      101.1      1.326
  14.00      104.1      1.196
  14.00      108.6      1.657
  14.00      108.6      1.444
  14.00      112.3      2.377
  14.00      114.6      2.822
  14.00      119.4      3.351
  14.00      122.4      3.409
  14.00      125.1      3.350
  14.00      127.7      3.182
  14.00      131.1      2.417
  14.00      132.3      2.106
  14.00      133.8      1.804
  14.00      136.4      1.280
  14.00      138.4     0.9391
  14.00      140.3     0.6435
  14.00      144.8     0.6217
  14.00      148.1     0.7906
  14.00      149.6     0.8917
  14.00      153.3      1.324
  14.00      155.2      1.467
  14.00      157.1      1.899
  14.00      158.6      1.999
  14.00      161.9      2.105
  14.00      164.2      2.542
  14.00      166.4      3.178
  14.00      168.2      3.906
  14.00      170.5      4.883
  14.00      173.5      6.318
  14.00      176.4      7.374
  14.00      177.2      8.174
  14.10      26.49      4579.
  14.10      30.17      2614.
  14.10      32.73      1629.
  14.10      35.70      1147.
  14.10      38.65      766.3
  14.10      41.24      530.3
  14.10      43.44      360.7
  14.10      46.40      245.3
  14.10      48.96      155.5
  14.10      52.35      132.7
  14.10      54.22      115.3
  14.10      56.46      98.37
  14.10      59.44      71.72
  14.10      62.78      50.49
  14.10      64.95      29.86
  14.10      67.86      15.36
  14.10      70.75      7.494
  14.10      73.72      5.560
  14.10      76.07      7.603
  14.10      78.41      10.22
  14.10      79.95      11.74
  14.10      83.79      13.95
  14.10      85.29      12.55
  14.10      87.89      9.643
  14.10      91.24      7.029
  14.10      91.95      5.314
  14.10      93.80      4.305
  14.10      94.54      3.808
  14.10      95.61      2.780
  14.10      97.48      2.373
  14.10      99.24      1.221
  14.10      101.0     0.7351
  14.10      102.4     0.4129
  14.10      108.2     0.5938
  14.10      110.3      1.577
  14.10      113.5      2.704
  14.10      115.4      4.252
  14.10      118.2      5.614
  14.10      120.5      8.090
  14.10      123.2      9.618
  14.10      126.3      10.30
  14.10      129.3      10.83
  14.10      132.7      8.175
  14.10      134.9      5.963
  14.10      136.7      3.654
  14.10      139.2      1.606
  14.10      142.5      1.000
  14.10      144.8      1.190
  14.10      146.9      2.389
  14.10      148.5      4.969
  14.10      150.9      6.562
  14.10      155.4      6.104
  14.10      158.0      4.857
  14.10      159.5      3.801
  14.10      161.6      1.955
  14.10      165.0      1.401
  14.10      167.4      2.532
  14.10      170.3      8.003
  14.10      171.8      8.879
  14.20      26.51      4276.
  14.20      28.75      2775.
  14.20      31.37      1740.
  14.20      35.13      1168.
  14.20      37.75      771.3
  14.20      40.00      545.7
  14.20      43.00      372.9
  14.20      45.25      273.1
  14.20      47.50      183.5
  14.20      50.14      162.5
  14.20      53.54      134.3
  14.20      55.41      103.6
  14.20      57.67      79.90
  14.20      58.41      63.82
  14.20      61.40      38.65
  14.20      64.37      16.57
  14.20      64.40      23.40
  14.20      69.30      17.43
  14.20      70.46      22.57
  14.20      75.77      25.89
  14.20      79.92      21.76
  14.20      82.56      18.61
  14.20      84.44      13.87
  14.20      87.44      8.847
  14.20      90.05      5.451
  14.20      90.78      3.727
  14.20      92.28      2.826
  14.20      94.55      2.825
  14.20      95.67      2.335
  14.20      98.33      2.375
  14.20      100.2      1.929
  14.20      105.5      2.100
  14.20      108.9      2.135
  14.20      111.6      2.912
  14.20      115.0      3.227
  14.20      119.2      3.576
  14.20      119.2      4.324
  14.20      121.9      4.630
  14.20      124.5      4.393
  14.20      128.7      4.314
  14.20      132.1      3.326
  14.20      133.6      2.657
  14.20      136.5      1.377
  14.20      138.8      1.081
  14.20      141.5      1.080
  14.20      143.0      1.844
  14.20      148.0      4.220
  14.20      150.6      4.598
  14.20      153.7      4.001
  14.20      156.3      2.552
  14.20      158.5      1.021
  14.20      160.7     0.2520
  14.20      163.4     0.5573
  14.20      166.9      2.417
  14.20      169.2      5.930
  14.20      171.2      11.04
  14.20      173.5      15.85
  14.20      175.4      21.25
  14.30      26.84      4108.
  14.30      29.45      2586.
  14.30      32.43      1685.
  14.30      35.43      1117.
  14.30      38.42      820.6
  14.30      41.04      543.9
  14.30      43.65      354.4
  14.30      45.89      251.6
  14.30      48.50      163.9
  14.30      51.50      122.5
  14.30      53.75      103.2
  14.30      56.01      85.49
  14.30      58.63      66.11
  14.30      61.25      47.74
  14.30      64.25      34.48
  14.30      66.49      24.06
  14.30      69.13      22.46
  14.30      71.39      20.62
  14.30      74.42      19.59
  14.30      77.43      16.79
  14.30      81.58      14.39
  14.30      81.94      12.55
  14.30      84.57      9.375
  14.30      86.81      6.887
  14.30      89.05      4.973
  14.30      90.52      3.078
  14.30      93.54      2.874
  14.30      96.55      2.381
  14.30      99.94      2.076
  14.30      102.6      1.972
  14.30      105.2      1.779
  14.30      108.2      1.400
  14.30      110.1      1.499
  14.30      112.0      1.661
  14.30      114.7      1.779
  14.30      117.3      1.841
  14.30      120.0      2.261
  14.30      122.3      2.380
  14.30      123.1      2.874
  14.30      126.8      3.296
  14.30      128.7      3.780
  14.30      131.0      3.716
  14.30      134.0      3.411
  14.30      135.9      2.730
  14.30      138.1      1.872
  14.30      141.5      1.809
  14.30      145.7      2.222
  14.30      146.9      2.874
  14.30      150.3      3.411
  14.30      152.6      3.590
  14.30      154.4      2.825
  14.30      156.7      2.005
  14.30      159.3      1.101
  14.30      162.3     0.9932
  14.30      164.3      1.938
  14.30      165.9      6.652
  14.30      168.6      10.39
  14.30      170.5      15.40
  14.30      172.4      23.64
  14.30      174.7      32.73
  14.40      26.91      4197.
  14.40      30.32      2475.
  14.40      32.59      1536.
  14.40      35.24      921.7
  14.40      37.51      690.0
  14.40      40.93      516.5
  14.40      42.82      361.2
  14.40      46.23      240.0
  14.40      47.74      170.7
  14.40      48.11      144.0
  14.40      51.54      141.6
  14.40      53.44      119.4
  14.40      56.09      89.37
  14.40      59.50      64.66
  14.40      61.77      42.24
  14.40      64.80      27.13
  14.40      66.69      16.55
  14.40      68.58      11.98
  14.40      72.77      12.82
  14.40      77.72      14.95
  14.40      81.53      14.20
  14.40      83.80      10.63
  14.40      86.84      8.377
  14.40      88.35      6.165
  14.40      90.62      4.461
  14.40      92.52      3.575
  14.40      93.65      2.865
  14.40      95.55      2.219
  14.40      98.20      1.778
  14.40      100.5      1.500
  14.40      104.3      1.500
  14.40      109.2      1.450
  14.40      111.9      1.748
  14.40      115.0      2.257
  14.40      118.0      2.417
  14.40      120.7      2.817
  14.40      124.5      3.120
  14.40      126.8      2.866
  14.40      129.1      2.723
  14.40      131.3      2.336
  14.40      134.0      2.004
  14.40      135.9      1.014
  14.40      137.4     0.4182
  14.40      140.8     0.2509
  14.40      143.4     0.3907
  14.40      145.8     0.7463
  14.40      148.4      1.500
  14.40      150.0      1.971
  14.40      151.9      2.220
  14.40      154.2      2.039
  14.40      156.4      1.475
  14.40      158.3     0.9474
  14.40      161.3     0.4328
  14.40      164.0     0.5401
  14.40      166.3      1.355
  14.40      167.9      3.702
  14.40      170.6      6.066
  14.40      173.2      8.529
  14.40      175.9      11.39
  14.50      26.39      4138.
  14.50      29.43      2399.
  14.50      32.09      1515.
  14.50      34.36      1041.
  14.50      37.02      728.2
  14.50      40.44      492.1
  14.50      42.34      338.3
  14.50      45.37      228.6
  14.50      48.41      144.3
  14.50      51.07      121.7
  14.50      54.11      100.9
  14.50      56.01      75.55
  14.50      58.29      51.06
  14.50      61.33      36.94
  14.50      63.98      26.28
  14.50      66.26      19.01
  14.50      69.30      17.76
  14.50      73.87      20.35
  14.50      77.29      18.37
  14.50      79.95      15.23
  14.50      82.23      12.20
  14.50      85.65      7.972
  14.50      86.78      5.575
  14.50      89.82      4.318
  14.50      91.34      3.178
  14.50      93.24      2.184
  14.50      94.76      1.939
  14.50      97.42      1.939
  14.50      100.5      1.972
  14.50      104.6      2.075
  14.50      108.1      1.842
  14.50      110.0      1.938
  14.50      113.0      2.338
  14.50      114.2      3.231
  14.50      116.4      3.458
  14.50      118.0      4.171
  14.50      120.6      4.619
  14.50      122.5      5.571
  14.50      124.8      5.964
  14.50      128.2      5.570
  14.50      129.4      4.779
  14.50      131.3      4.170
  14.50      134.3      2.544
  14.50      136.2      1.123
  14.50      138.5     0.9001
  14.50      141.9      1.309
  14.50      144.2      2.544
  14.50      146.5      3.894
  14.50      148.4      5.761
  14.50      149.5      6.948
  14.50      153.0      6.715
  14.50      154.9      5.027
  14.50      156.8      3.120
  14.50      160.2      1.182
  14.50      161.7     0.2466
  14.50      163.2      1.265
  14.50      166.3      4.941
  14.50      169.3      11.78
  14.50      170.9      18.97
  14.50      172.8      27.60
  14.50      174.7      32.72
  14.60      26.44      3738.
  14.60      27.99      2271.
  14.60      30.67      1529.
  14.60      33.74      994.8
  14.60      36.80      742.6
  14.60      39.86      517.5
  14.60      42.55      348.5
  14.60      45.23      222.9
  14.60      47.17      126.4
  14.60      49.84      108.2
  14.60      52.89      92.71
  14.60      55.18      78.05
  14.60      57.48      60.30
  14.60      60.16      45.80
  14.60      62.84      29.29
  14.60      65.54      16.90
  14.60      68.23      9.917
  14.60      69.76      8.642
  14.60      73.56      8.940
  14.60      76.59      10.43
  14.60      83.82      10.42
  14.60      86.50      7.517
  14.60      89.55      6.221
  14.60      90.71      4.336
  14.60      91.87      3.075
  14.60      94.16      2.920
  14.60      95.32      2.000
  14.60      96.86      1.493
  14.60      99.17     0.9389
  14.60      102.2      1.301
  14.60      104.8      1.898
  14.60      109.4      2.816
  14.60      111.6      3.706
  14.60      113.9      4.632
  14.60      117.7      4.791
  14.60      121.1      4.320
  14.60      123.8      4.032
  14.60      125.7      3.395
  14.60      128.8      2.491
  14.60      131.1      1.707
  14.60      133.8     0.9350
  14.60      136.1     0.5778
  14.60      138.4     0.1539
  14.60      140.0     0.1676
  14.60      142.5     0.5299
  14.60      145.6     0.8717
  14.60      147.8      1.459
  14.60      149.7      1.855
  14.60      151.2      1.339
  14.60      154.7      1.249
  14.60      156.2     0.5570
  14.60      158.9     0.5665
  14.60      161.5      1.384
  14.60      164.1      3.683
  14.60      167.1      7.840
  14.60      169.0      13.35
  14.60      170.5      20.86
  14.70      25.56      4182.
  14.70      27.57      2373.
  14.70      31.83      1573.
  14.70      33.80      1078.
  14.70      36.92      739.2
  14.70      39.27      515.6
  14.70      43.60      238.2
  14.70      47.85      166.2
  14.70      50.16      137.7
  14.70      53.26      102.9
  14.70      55.96      82.36
  14.70      58.31      58.44
  14.70      61.05      38.72
  14.70      63.79      25.21
  14.70      66.13      19.16
  14.70      69.20      16.15
  14.70      71.84      17.92
  14.70      72.64      14.84
  14.70      74.55      13.86
  14.70      77.24      12.30
  14.70      79.93      10.19
  14.70      82.65      7.485
  14.70      84.62      5.131
  14.70      86.56      4.398
  14.70      89.64      3.521
  14.70      92.33      3.071
  14.70      94.60      3.181
  14.70      96.91      2.775
  14.70      99.25      1.969
  14.70      100.8      1.630
  14.70      102.4      1.080
  14.70      105.9     0.8497
  14.70      107.5     0.4274
  14.70      108.3     0.3191
  14.70      109.6     0.1841
  14.70      112.6     0.2227
  14.70      113.7     0.3197
  14.70      115.1     0.5267
  14.70      117.6      1.163
  14.70      119.8      1.758
  14.70      123.1      2.949
  14.70      125.3      4.163
  14.70      127.2      4.863
  14.70      129.1      5.395
  14.70      131.8      4.955
  14.70      134.1      3.766
  14.70      137.2      2.329
  14.70      138.5     0.9695
  14.70      142.2     0.2138
  14.70      147.3     0.9397
  14.70      148.7      1.969
  14.70      150.8      4.200
  14.70      152.3      5.727
  14.70      154.5      6.035
  14.70      157.2      5.737
  14.70      159.5      4.834
  14.70      161.1      3.371
  14.70      164.2      2.272
  14.70      167.0      1.454
  14.70      169.2      2.276
  14.70      171.0      2.800
  14.70      174.0      4.615
  14.70      175.0      6.184
  14.80      25.84      3730.
  14.80      28.99      2010.
  14.80      31.71      1450.
  14.80      34.86      808.9
  14.80      37.93      717.9
  14.80      39.92      443.7
  14.80      42.27      304.1
  14.80      46.15      198.0
  14.80      47.76      126.7
  14.80      50.44      112.4
  14.80      54.28      94.77
  14.80      55.84      75.81
  14.80      58.55      56.64
  14.80      61.29      38.16
  14.80      63.65      24.42
  14.80      66.39      16.17
  14.80      69.46      14.11
  14.80      72.12      14.37
  14.80      74.01      15.14
  14.80      77.43      15.96
  14.80      81.24      14.92
  14.80      83.93      13.02
  14.80      85.47      11.54
  14.80      87.82      8.190
  14.80      90.15      6.332
  14.80      92.49      4.649
  14.80      94.48      2.824
  14.80      96.09      1.745
  14.80      99.27     0.8336
  14.80      101.6     0.5520
  14.80      102.5     0.2634
  14.80      104.1      1.262
  14.80      105.6      2.045
  14.80      108.2      2.989
  14.80      111.2      3.494
  14.80      112.7      3.811
  14.80      114.9      4.302
  14.80      118.0      3.503
  14.80      121.1      2.757
  14.80      123.8      2.489
  14.80      125.3      2.285
  14.80      128.4      2.450
  14.80      129.9      2.538
  14.80      132.5      2.454
  14.80      134.9      2.033
  14.80      137.6      1.467
  14.80      139.6     0.7634
  14.80      142.8     0.3233
  14.80      144.7     0.4486
  14.80      146.4      1.218
  14.80      149.7      2.513
  14.80      151.1      3.801
  14.80      152.2      5.458
  14.80      155.2      5.465
  14.80      157.9      5.106
  14.80      159.9      3.211
  14.80      162.2      2.398
  14.80      165.0      1.185
  14.80      167.3      1.536
  14.80      169.0      3.893
  14.80      171.6      6.097
  14.80      173.4      9.879
  14.80      175.6      14.69
  14.90      26.06      3499.
  14.90      28.02      2892.
  14.90      29.98      2308.
  14.90      31.63      1421.
  14.90      34.38      1059.
  14.90      37.16      686.5
  14.90      39.93      468.9
  14.90      42.34      288.7
  14.90      45.49      200.6
  14.90      48.25      139.4
  14.90      50.98      113.3
  14.90      54.10      85.83
  14.90      56.44      72.17
  14.90      58.42      53.76
  14.90      61.55      40.74
  14.90      63.54      28.81
  14.90      66.28      22.60
  14.90      70.19      15.44
  14.90      72.51      13.91
  14.90      74.83      12.32
  14.90      78.65      12.11
  14.90      81.77      9.498
  14.90      85.26      7.581
  14.90      88.72      6.951
  14.90      90.30      5.646
  14.90      92.21      5.645
  14.90      95.73      4.061
  14.90      96.94      3.187
  14.90      98.52      2.588
  14.90      101.3      1.679
  14.90      102.4      1.862
  14.90      105.1      1.961
  14.90      108.8      2.542
  14.90      110.3      3.022
  14.90      112.6      3.471
  14.90      114.8      3.917
  14.90      117.9      3.530
  14.90      121.0      2.675
  14.90      123.0      1.993
  14.90      125.5      1.165
  14.90      127.5     0.8095
  14.90      130.2     0.5341
  14.90      132.2     0.4264
  14.90      135.2     0.4337
  14.90      137.5     0.5623
  14.90      139.8     0.5922
  14.90      142.4     0.6569
  14.90      144.3     0.5620
  14.90      147.3     0.7674
  14.90      149.9     0.9444
  14.90      151.0      1.406
  14.90      153.3      1.533
  14.90      156.7      1.533
  14.90      158.7      1.047
  14.90      162.2     0.7152
  14.90      165.3     0.7532
  14.90      169.1     0.6787
  14.90      170.2      1.064
  14.90      172.4      1.429
  14.90      174.9      2.241
  14.90      176.7      4.037
  15.00      25.37      3881.
  15.00      28.55      2098.
  15.00      31.30      1352.
  15.00      35.18      951.6
  15.00      37.53      705.9
  15.00      40.68      416.7
  15.00      42.29      273.3
  15.00      44.64      199.2
  15.00      48.13      142.7
  15.00      50.43      133.0
  15.00      53.13      115.6
  15.00      56.24      84.22
  15.00      58.19      64.71
  15.00      60.98      36.88
  15.00      63.76      20.65
  15.00      66.92      12.19
  15.00      69.59      11.57
  15.00      71.46      13.31
  15.00      73.72      15.32
  15.00      77.15      15.05
  15.00      79.43      15.05
  15.00      82.53      11.36
  15.00      84.48      9.202
  15.00      87.61      6.036
  15.00      90.34      4.399
  15.00      91.57      2.989
  15.00      93.53      2.179
  15.00      95.10      1.796
  15.00      98.19      1.404
  15.00      100.5      1.220
  15.00      103.9      1.220
  15.00      107.3      1.355
  15.00      110.4      1.355
  15.00      112.7      1.241
  15.00      114.6     0.9371
  15.00      118.0      1.041
  15.00      120.3      1.220
  15.00      122.9      1.506
  15.00      124.7      2.336
  15.00      125.8      2.596
  15.00      130.4      2.834
  15.00      133.9      2.295
  15.00      136.6      1.379
  15.00      138.3     0.5728
  15.00      141.6     0.2141
  15.00      144.7     0.8579
  15.00      146.5      1.858
  15.00      148.2      3.377
  15.00      150.4      6.137
  15.00      152.3      7.315
  15.00      154.2      6.469
  15.00      157.3      4.715
  15.00      159.3      2.883
  15.00      161.4      1.198
  15.00      164.4     0.1996
  15.00      166.4      1.116
  15.00      168.4      3.497
  15.00      170.9      6.698
  15.00      172.0      11.55
  15.00      174.6      15.84
  15.10      24.73      3500.
  15.10      27.73      2143.
  15.10      30.73      1290.
  15.10      33.73      861.9
  15.10      36.37      698.2
  15.10      39.38      509.2
  15.10      41.63      311.9
  15.10      44.63      208.4
  15.10      47.26      134.5
  15.10      50.66      116.8
  15.10      53.68      94.61
  15.10      55.55      67.83
  15.10      58.18      48.62
  15.10      61.19      36.08
  15.10      63.82      22.10
  15.10      66.07      15.57
  15.10      68.32      11.35
  15.10      70.97      11.54
  15.10      74.38      10.38
  15.10      78.17      11.12
  15.10      80.44      10.18
  15.10      84.98      8.681
  15.10      89.13      7.152
  15.10      92.14      5.307
  15.10      93.27      4.613
  15.10      94.40      4.009
  15.10      95.15      3.250
  15.10      98.51      1.558
  15.10      100.7     0.7216
  15.10      102.6     0.4996
  15.10      106.1     0.9038
  15.10      108.0      1.724
  15.10      111.0      2.400
  15.10      112.6      2.572
  15.10      117.1      2.312
  15.10      120.9      1.441
  15.10      123.8     0.5600
  15.10      126.8     0.3551
  15.10      128.0     0.3086
  15.10      129.9     0.3610
  15.10      132.2     0.6765
  15.10      134.8     0.7505
  15.10      136.7     0.5106
  15.10      139.3     0.3724
  15.10      142.0     0.1915
  15.10      145.0     0.1236
  15.10      146.6     0.6497
  15.10      148.1     0.8149
  15.10      159.9      1.278
  15.10      162.1     0.8692
  15.10      164.0     0.7167
  15.10      167.4      1.015
  15.10      169.8      2.347
  15.10      171.3      3.445
  15.10      173.2      6.235
  15.10      175.1      7.551
  15.20      26.26      3527.
  15.20      29.24      2173.
  15.20      32.60      1339.
  15.20      34.83      899.7
  15.20      38.19      573.8
  15.20      40.05      399.1
  15.20      42.64      241.8
  15.20      45.25      165.3
  15.20      49.01      116.9
  15.20      51.27      93.34
  15.20      54.29      75.82
  15.20      56.53      57.48
  15.20      59.15      39.29
  15.20      61.00      28.29
  15.20      64.37      18.04
  15.20      67.75      12.76
  15.20      69.63      10.55
  15.20      72.28      9.507
  15.20      76.07      8.417
  15.20      77.97      7.851
  15.20      80.24      7.198
  15.20      83.30      7.574
  15.20      86.33      6.943
  15.20      89.38      6.587
  15.20      90.51      6.146
  15.20      92.40      5.443
  15.20      93.12      4.129
  15.20      96.11      2.774
  15.20      99.41      1.149
  15.20      103.8     0.2427
  15.20      106.5     0.5008
  15.20      109.0      1.386
  15.20      110.6      2.449
  15.20      112.2      3.901
  15.20      114.5      5.229
  15.20      117.9      5.598
  15.20      121.4      6.533
  15.20      123.7      6.199
  15.20      125.9      6.090
  15.20      127.1      5.489
  15.20      130.1      4.536
  15.20      132.0      3.500
  15.20      135.4      2.563
  15.20      137.6      1.722
  15.20      140.2      1.008
  15.20      142.4     0.9237
  15.20      144.4      1.842
  15.20      146.4      2.468
  15.20      148.7      3.425
  15.20      159.8      2.824
  15.20      162.0      1.898
  15.20      164.6      1.343
  15.20      167.7      2.252
  15.20      168.6      3.651
  15.20      171.3      7.031
  15.20      174.0      8.207
  15.20      176.0      11.59
  15.30      27.07      3153.
  15.30      29.64      1884.
  15.30      32.98      1164.
  15.30      36.34      784.0
  15.30      38.16      510.4
  15.30      40.74      326.6
  15.30      43.31      195.1
  15.30      45.89      122.7
  15.30      48.92      106.9
  15.30      51.58      97.99
  15.30      54.24      86.82
  15.30      57.24      67.06
  15.30      59.46      46.75
  15.30      62.03      28.42
  15.30      65.36      16.12
  15.30      67.93      10.14
  15.30      70.21      9.140
  15.30      73.67      10.12
  15.30      75.23      11.21
  15.30      78.67      11.19
  15.30      80.21      11.38
  15.30      83.22      9.252
  15.30      85.48      7.525
  15.30      88.47      5.617
  15.30      90.31      3.984
  15.30      92.17      3.079
  15.30      93.26      2.339
  15.30      95.14      1.970
  15.30      97.02      1.746
  15.30      99.65      1.372
  15.30      100.8      1.196
  15.30      104.2      1.134
  15.30      107.6      1.113
  15.30      110.4      1.343
  15.30      113.1      1.565
  15.30      115.4      1.733
  15.30      121.9      1.759
  15.30      125.7      1.640
  15.30      128.7      1.404
  15.30      131.0      1.122
  15.30      132.9     0.8976
  15.30      135.4     0.5455
  15.30      138.4     0.2991
  15.30      139.9     0.3370
  15.30      142.7     0.5727
  15.30      145.1     0.9405
  15.30      147.5      1.598
  15.30      149.9      2.451
  15.30      152.2      2.809
  15.30      154.9      2.854
  15.30      157.6      2.486
  15.30      160.5      1.674
  15.30      163.2      1.250
  15.30      165.4      1.089
  15.30      168.2      1.850
  15.30      169.8      2.742
  15.30      172.2      3.994
  15.30      173.5      6.023
  15.30      176.2      7.518
  15.40      26.30      3072.
  15.40      28.92      1840.
  15.40      31.54      1160.
  15.40      35.31      756.1
  15.40      37.55      484.9
  15.40      39.80      311.0
  15.40      42.80      199.4
  15.40      45.43      136.9
  15.40      47.71      115.3
  15.40      50.75      104.0
  15.40      53.42      92.15
  15.40      57.21      68.86
  15.40      58.67      40.56
  15.40      61.68      26.91
  15.40      64.69      17.25
  15.40      66.18      12.26
  15.40      69.60      10.68
  15.40      73.44      11.81
  15.40      76.88      11.21
  15.40      78.77      9.605
  15.40      81.80      7.686
  15.40      84.82      5.648
  15.40      87.84      3.943
  15.40      89.70      2.617
  15.40      91.58      1.924
  15.40      92.70      1.594
  15.40      93.83      1.390
  15.40      94.19      1.076
  15.40      95.32     0.9712
  15.40      97.59     0.8182
  15.40      99.48     0.6777
  15.40      101.4     0.5426
  15.40      106.0     0.6102
  15.40      108.3     0.6868
  15.40      110.2     0.8278
  15.40      111.0      1.069
  15.40      115.6      1.265
  15.40      118.7      1.399
  15.40      122.2      1.629
  15.40      123.7      2.032
  15.40      127.5      1.895
  15.40      129.0      1.570
  15.40      132.4      1.214
  15.40      135.0     0.5535
  15.40      136.5     0.2944
  15.40      139.5     0.2437
  15.40      142.0     0.7502
  15.40      144.0      1.642
  15.40      146.7      2.736
  15.40      148.3      3.780
  15.40      150.2      4.795
  15.40      152.1      5.217
  15.40      155.2      4.624
  15.40      158.2      3.068
  15.40      160.4      1.776
  15.40      162.6     0.7188
  15.40      165.6     0.3886
  15.40      166.8     0.9587
  15.40      170.0      2.950
  15.40      171.7      5.831
  15.40      174.4      8.620
  15.40      176.7      10.93
  15.50      26.79      2822.
  15.50      29.79      1752.
  15.50      31.27      1165.
  15.50      35.42      800.6
  15.50      37.65      480.6
  15.50      40.65      308.7
  15.50      42.89      201.7
  15.50      45.90      134.1
  15.50      48.55      114.9
  15.50      50.82      103.7
  15.50      54.22      83.06
  15.50      56.10      64.34
  15.50      59.11      42.75
  15.50      62.49      29.38
  15.50      64.73      19.20
  15.50      66.99      13.90
  15.50      69.64      12.97
  15.50      72.70      14.10
  15.50      75.75      14.09
  15.50      79.16      12.92
  15.50      79.53      10.90
  15.50      82.55      9.034
  15.50      85.58      7.745
  15.50      88.61      6.099
  15.50      90.87      4.886
  15.50      91.98      3.786
  15.50      92.00      4.264
  15.50      93.47      2.517
  15.50      93.49      3.139
  15.50      95.36      2.234
  15.50      96.86      1.790
  15.50      99.11      1.317
  15.50      100.6     0.8324
  15.50      104.0     0.9363
  15.50      106.0      1.207
  15.50      109.8      1.478
  15.50      110.9      1.721
  15.50      113.2      1.809
  15.50      116.6      1.449
  15.50      118.9     0.9796
  15.50      121.5     0.6083
  15.50      123.8     0.6962
  15.50      125.7     0.8675
  15.50      129.2      1.652
  15.50      133.0      1.735
  15.50      134.9      1.620
  15.50      137.9      1.023
  15.50      141.3     0.4085
  15.50      142.7     0.1807
  15.50      145.1     0.3684
  15.50      147.8      1.019
  15.50      149.4      2.187
  15.50      152.5      3.340
  15.50      154.1      3.956
  15.50      156.7      3.631
  15.50      158.6      3.010
  15.50      160.8      1.807
  15.50      162.7     0.8267
  15.50      165.7     0.5220
  15.50      168.8      1.494
  15.50      170.0      3.737
  15.50      172.8      7.617
  15.50      174.7      11.44
  15.50      176.3      15.00
  15.60      25.00      2838.
  15.60      28.42      1666.
  15.60      30.32      1202.
  15.60      33.75      837.9
  15.60      36.03      509.3
  15.60      40.22      299.0
  15.60      42.50      181.7
  15.60      44.40      131.1
  15.60      47.45      116.2
  15.60      50.49      110.2
  15.60      52.77      99.38
  15.60      55.43      79.46
  15.60      58.09      49.98
  15.60      60.76      32.53
  15.60      63.04      19.77
  15.60      66.09      13.09
  15.60      69.13      12.00
  15.60      73.31      14.47
  15.60      77.11      15.75
  15.60      79.77      13.48
  15.60      82.05      11.95
  15.60      84.33      9.232
  15.60      87.00      7.509
  15.60      89.66      5.901
  15.60      91.94      4.114
  15.60      93.84      3.524
  15.60      94.60      3.179
  15.60      94.99      2.724
  15.60      97.27      1.965
  15.60      101.5      1.323
  15.60      105.3      1.439
  15.60      107.5      1.594
  15.60      109.8      1.706
  15.60      112.1      2.023
  15.60      114.4      1.953
  15.60      117.0      1.854
  15.60      119.7      1.384
  15.60      120.5      1.146
  15.60      122.7      1.051
  15.60      124.3     0.8698
  15.60      127.7     0.8252
  15.60      131.1     0.8529
  15.60      134.5     0.7955
  15.60      137.2     0.7171
  15.60      138.7     0.5264
  15.60      140.6     0.5538
  15.60      144.4     0.8937
  15.60      147.1      1.443
  15.60      148.6      2.213
  15.60      150.9      3.063
  15.60      154.7      3.390
  15.60      156.9      2.531
  15.60      159.2      1.858
  15.60      162.3     0.9675
  15.60      163.8     0.6300
  15.60      167.2      1.034
  15.60      169.1      2.563
  15.60      170.6      4.668
  15.60      173.3      6.799
  15.60      175.2      8.786
  15.70      27.35      3016.
  15.70      29.97      1734.
  15.70      32.98      1145.
  15.70      35.63      824.5
  15.70      38.63      482.4
  15.70      41.25      297.2
  15.70      43.11      192.9
  15.70      46.52      129.6
  15.70      47.26      112.8
  15.70      52.63      103.6
  15.70      54.92      93.40
  15.70      57.96      73.33
  15.70      59.82      47.59
  15.70      62.44      28.32
  15.70      65.83      17.76
  15.70      67.30      10.75
  15.70      70.35      9.206
  15.70      74.20      9.872
  15.70      76.51      10.58
  15.70      79.59      10.77
  15.70      84.57      9.718
  15.70      86.45      7.629
  15.70      87.57      5.988
  15.70      91.37      4.238
  15.70      92.47      2.947
  15.70      94.36      2.437
  15.70      95.09      1.816
  15.70      96.20      1.307
  15.70      98.80     0.6893
  15.70      100.7     0.5505
  15.70      104.6     0.6664
  15.70      106.9     0.9263
  15.70      109.3      1.333
  15.70      110.8      1.531
  15.70      113.9      1.642
  15.70      117.3      1.382
  15.70      118.8      1.012
  15.70      121.1     0.7413
  15.70      123.8     0.6684
  15.70      127.6     0.6924
  15.70      128.0     0.8977
  15.70      131.1      1.144
  15.70      134.6      1.069
  15.70      136.1     0.9146
  15.70      138.4     0.7057
  15.70      140.2     0.4741
  15.70      143.7     0.4743
  15.70      145.6     0.6824
  15.70      147.6      1.209
  15.70      149.6      2.068
  15.70      152.0      2.975
  15.70      154.7      2.976
  15.70      156.6      2.826
  15.70      159.2      2.219
  15.70      161.1      1.321
  15.70      162.9     0.5011
  15.70      166.3     0.5562
  15.70      169.2      1.600
  15.70      170.8      3.673
  15.70      172.4      6.504
  15.70      175.6      9.523
  15.70      177.1      12.78
  15.80      26.32      2943.
  15.80      28.96      1925.
  15.80      31.61      1259.
  15.80      33.88      838.6
  15.80      37.67      502.1
  15.80      39.92      280.2
  15.80      42.95      186.5
  15.80      45.98      124.2
  15.80      48.28      115.7
  15.80      51.73      111.7
  15.80      54.03      100.4
  15.80      56.68      73.03
  15.80      58.93      41.48
  15.80      61.57      24.84
  15.80      64.21      14.11
  15.80      67.26      11.21
  15.80      71.50      14.35
  15.80      74.59      15.95
  15.80      77.64      14.09
  15.80      79.93      11.40
  15.80      82.97      8.002
  15.80      84.86      5.924
  15.80      87.90      4.159
  15.80      90.94      3.025
  15.80      92.45      2.404
  15.80      92.82      1.944
  15.80      95.49      1.688
  15.80      96.64      1.600
  15.80      98.92      1.294
  15.80      100.0     0.8772
  15.80      103.1     0.6159
  15.80      105.8     0.6727
  15.80      108.1     0.8614
  15.80      110.0      1.205
  15.80      111.6      1.438
  15.80      114.3      1.627
  15.80      117.8      1.570
  15.80      120.0      1.226
  15.80      122.7      1.009
  15.80      125.4     0.8305
  15.80      127.3     0.7601
  15.80      130.0     0.6957
  15.80      132.2     0.5933
  15.80      133.8     0.5242
  15.80      135.7     0.3746
  15.80      138.7     0.3880
  15.80      141.8     0.4712
  15.80      143.4     0.9898
  15.80      147.7      1.870
  15.80      149.3      2.525
  15.80      151.2      3.409
  15.80      153.5      3.532
  15.80      156.2      2.959
  15.80      158.1      1.804
  15.80      160.3     0.8140
  15.80      161.7     0.2490
  15.80      164.5     0.7319
  15.80      167.7      2.854
  15.80      169.7      6.549
  15.80      174.4      13.04
  15.80      176.3      17.00
  15.80      177.5      21.77
  15.90      26.95      1701.
  15.90      29.59      1178.
  15.90      31.85      787.7
  15.90      36.38      450.1
  15.90      38.63      285.5
  15.90      41.63      171.8
  15.90      43.52      134.5
  15.90      45.81      127.7
  15.90      49.63      119.2
  15.90      52.67      105.5
  15.90      54.93      75.67
  15.90      57.93      41.73
  15.90      60.17      23.41
  15.90      63.55      13.85
  15.90      65.43      9.930
  15.90      68.12      10.85
  15.90      70.42      11.85
  15.90      76.54      11.67
  15.90      78.43      9.625
  15.90      81.08      7.405
  15.90      84.50      5.799
  15.90      87.15      4.785
  15.90      89.04      3.681
  15.90      90.92      2.639
  15.90      92.05      2.335
  15.90      92.80      1.960
  15.90      94.29      1.357
  15.90      95.80      1.081
  15.90      97.69     0.8762
  15.90      99.56     0.5756
  15.90      102.6     0.7627
  15.90      105.4      1.103
  15.90      107.7      1.567
  15.90      111.5      2.190
  15.90      114.2      2.007
  15.90      117.2      1.465
  15.90      119.5      1.069
  15.90      122.9     0.8230
  15.90      124.4     0.6442
  15.90      126.7     0.4620
  15.90      129.0     0.3746
  15.90      131.3     0.3748
  15.90      134.3     0.2935
  15.90      136.9     0.2508
  15.90      137.8     0.3822
  15.90      141.7     0.8877
  15.90      143.6      1.096
  15.90      145.9      1.792
  15.90      148.6      2.064
  15.90      150.9      2.549
  15.90      154.8      2.141
  15.90      156.2      1.431
  15.90      157.8      1.267
  15.90      159.6     0.9407
  15.90      162.6     0.3987
  15.90      167.7      1.205
  15.90      169.3      2.898
  15.90      171.7      4.655
  15.90      174.4      6.852
  15.90      175.9      8.027
  16.00      25.63      2611.
  16.00      28.64      1683.
  16.00      31.66      1103.
  16.00      33.93      790.1
  16.00      36.55      419.4
  16.00      38.03      251.8
  16.00      41.05      153.9
  16.00      43.31      114.1
  16.00      45.21      95.76
  16.00      48.25      84.72
  16.00      51.67      72.37
  16.00      54.70      52.75
  16.00      56.94      28.50
  16.00      59.58      18.69
  16.00      62.22      12.04
  16.00      64.49      10.10
  16.00      68.69      9.763
  16.00      71.73      8.637
  16.00      75.16      7.642
  16.00      77.80      5.473
  16.00      80.84      4.513
  16.00      83.50      3.854
  16.00      86.16      3.531
  16.00      88.07      3.235
  16.00      90.34      2.667
  16.00      90.71      2.276
  16.00      92.61      2.049
  16.00      94.12      1.719
  16.00      96.01      1.368
  16.00      97.13     0.9792
  16.00      98.63     0.6888
  16.00      102.1     0.8667
  16.00      104.8      1.090
  16.00      106.7      1.256
  16.00      109.4      1.373
  16.00      112.0      1.398
  16.00      114.3      1.281
  16.00      116.6      1.174
  16.00      118.5     0.9846
  16.00      122.3      1.021
  16.00      126.5     0.9866
  16.00      129.6     0.9203
  16.00      131.5     0.7858
  16.00      134.1     0.5337
  16.00      136.7     0.2505
  16.00      138.6     0.2177
  16.00      140.6     0.5253
  16.00      142.9      1.101
  16.00      145.7      1.936
  16.00      146.4      2.754
  16.00      148.4      3.345
  16.00      150.7      3.786
  16.00      153.0      3.657
  16.00      155.6      2.712
  16.00      157.1      1.747
  16.00      160.9     0.8646
  16.00      161.5     0.1045
  16.00      165.3     0.2660
  16.00      166.6     0.5878
  16.00      167.8      1.847
  16.00      170.1      3.609
  16.00      171.7      6.123
  16.00      174.0      9.516
  16.10      26.37      2318.
  16.10      30.25      1510.
  16.10      32.18      1017.
  16.10      35.67      651.0
  16.10      37.22      375.7
  16.10      39.93      224.4
  16.10      42.26      134.1
  16.10      43.81      100.1
  16.10      46.52      88.83
  16.10      49.63      85.89
  16.10      53.12      74.92
  16.10      55.45      53.15
  16.10      58.55      31.76
  16.10      60.49      18.65
  16.10      63.20      11.14
  16.10      64.75      8.610
  16.10      67.85      7.772
  16.10      71.35      7.646
  16.10      74.84      7.143
  16.10      77.94      4.897
  16.10      82.60      4.499
  16.10      82.99      3.989
  16.10      86.48      3.479
  16.10      89.59      2.882
  16.10      91.91      2.346
  16.10      93.46      1.976
  16.10      95.02      1.554
  16.10      99.28     0.7956
  16.10      102.0     0.7432
  16.10      104.3      1.067
  16.10      106.3      1.505
  16.10      108.2      1.728
  16.10      111.7      1.853
  16.10      114.4      1.731
  16.10      116.4      1.361
  16.10      118.7     0.7722
  16.10      120.6     0.5292
  16.10      124.1     0.4093
  16.10      126.1     0.4462
  16.10      128.4     0.6630
  16.10      131.1     0.8439
  16.10      134.6     0.9047
  16.10      136.2     0.7887
  16.10      138.9     0.5792
  16.10      142.8     0.8036
  16.10      145.1      1.236
  16.10      147.4      1.900
  16.10      150.2      2.776
  16.10      153.7      3.595
  16.10      157.5      2.224
  16.10      159.9      1.473
  16.10      161.4     0.6130
  16.10      163.7     0.2552
  16.10      167.2     0.7043
  16.10      169.6      2.192
  16.10      171.9      4.287
  16.10      173.9      7.184
  16.10      176.6      9.796
  16.20      26.10      2542.
  16.20      28.42      1571.
  16.20      29.97      1114.
  16.20      33.43      775.8
  16.20      36.14      410.6
  16.20      39.61      240.9
  16.20      41.93      136.6
  16.20      45.39      100.2
  16.20      49.60      93.47
  16.20      52.67      81.42
  16.20      55.74      61.81
  16.20      58.07      33.29
  16.20      60.77      19.20
  16.20      61.14      23.59
  16.20      63.86      11.66
  16.20      67.31      8.406
  16.20      69.99      8.999
  16.20      73.42      9.633
  16.20      76.87      9.143
  16.20      79.17      7.436
  16.20      81.86      5.945
  16.20      84.54      5.359
  16.20      86.84      4.669
  16.20      89.91      3.669
  16.20      90.69      3.197
  16.20      91.84      2.646
  16.20      92.99      2.386
  16.20      94.92      1.908
  16.20      96.46      1.634
  16.20      98.38      1.220
  16.20      100.3     0.7537
  16.20      103.4     0.7931
  16.20      106.0     0.9742
  16.20      107.6      1.137
  16.20      109.5      1.687
  16.20      114.8      1.628
  16.20      117.9      1.215
  16.20      119.4     0.8615
  16.20      122.9     0.3710
  16.20      126.4     0.1930
  16.20      130.2     0.4250
  16.20      131.7     0.6642
  16.20      135.1     0.8157
  16.20      138.9     0.9513
  16.20      140.8      1.230
  16.20      143.5      1.647
  16.20      145.4      2.130
  16.20      148.0      2.617
  16.20      151.5      3.882
  16.20      153.4      3.948
  16.20      156.5      2.658
  16.20      159.5      2.018
  16.20      162.2     0.9469
  16.20      163.8     0.3436
  16.20      166.8     0.8986
  16.20      168.3      2.606
  16.20      170.2      5.091
  16.20      173.6      7.817
  16.20      175.5      10.29
  16.30      26.38      2444.
  16.30      30.23      1562.
  16.30      32.56      1107.
  16.30      35.27      720.2
  16.30      37.25      381.1
  16.30      39.98      223.5
  16.30      42.71      131.1
  16.30      45.40      99.55
  16.30      48.06      96.17
  16.30      51.10      96.16
  16.30      54.16      78.21
  16.30      56.09      59.39
  16.30      58.45      33.08
  16.30      61.55      19.74
  16.30      63.53      11.38
  16.30      67.35      8.793
  16.30      69.26      8.208
  16.30      71.90      8.792
  16.30      74.55      8.943
  16.30      77.98      7.927
  16.30      81.03      7.027
  16.30      84.08      6.123
  16.30      86.39      5.066
  16.30      89.07      3.981
  16.30      91.77      2.971
  16.30      92.58      2.070
  16.30      93.36      1.684
  16.30      95.29      1.324
  16.30      96.86     0.9065
  16.30      97.68     0.6102
  16.30      100.4     0.5226
  16.30      103.3     0.9542
  16.30      106.6      1.866
  16.30      108.1      2.416
  16.30      110.4      2.772
  16.30      112.6      2.969
  16.30      114.9      2.678
  16.30      117.6      1.802
  16.30      120.7      1.021
  16.30      122.7     0.5221
  16.30      125.0     0.4174
  16.30      126.9     0.3637
  16.30      129.2     0.5403
  16.30      131.0     0.6993
  16.30      135.2     0.6991
  16.30      138.2     0.6092
  16.30      141.3     0.6870
  16.30      143.1     0.8592
  16.30      146.1      1.191
  16.30      148.0      1.709
  16.30      150.2      2.290
  16.30      152.4      2.815
  16.30      154.7      2.582
  16.30      156.7      1.799
  16.30      159.4      1.092
  16.30      161.8     0.3165
  16.30      165.0     0.1089
  16.30      166.7     0.5394
  16.30      168.8      1.894
  16.30      171.3      4.036
  16.30      173.6      6.313
  16.30      175.0      8.031
  16.40      27.63      2349.
  16.40      30.78      1447.
  16.40      32.39      939.2
  16.40      35.92      620.1
  16.40      38.70      356.5
  16.40      41.12      191.3
  16.40      43.50      122.0
  16.40      44.31      99.14
  16.40      48.51      99.15
  16.40      51.97      87.85
  16.40      54.30      75.19
  16.40      56.27      54.13
  16.40      59.07      30.06
  16.40      61.47      17.29
  16.40      63.85      11.03
  16.40      68.09      9.275
  16.40      71.17      8.077
  16.40      75.38      7.803
  16.40      78.08      7.157
  16.40      80.02      5.917
  16.40      83.85      5.717
  16.40      88.09      4.893
  16.40      90.43      3.710
  16.40      92.79      2.718
  16.40      93.61      2.097
  16.40      94.43      1.563
  16.40      96.03      1.087
  16.40      96.91     0.6035
  16.40      98.93     0.3592
  16.40      101.3     0.2252
  16.40      103.1     0.4345
  16.40      105.6      1.050
  16.40      108.2      1.510
  16.40      110.4      1.992
  16.40      113.5      2.134
  16.40      116.1      2.135
  16.40      117.7      1.564
  16.40      119.7     0.9306
  16.40      122.5     0.7432
  16.40      125.6     0.5080
  16.40      128.7     0.4824
  16.40      132.1     0.5540
  16.40      135.8     0.7831
  16.40      139.6     0.9151
  16.40      141.8      1.293
  16.40      143.3      1.460
  16.40      146.0      1.620
  16.40      147.5      1.828
  16.40      151.3      1.960
  16.40      153.2      1.736
  16.40      155.6      1.411
  16.40      157.2     0.8844
  16.40      160.4     0.5544
  16.40      162.3     0.3790
  16.40      166.4     0.7188
  16.40      167.8      1.487
  16.40      170.3      3.238
  16.40      172.2      4.656
  16.40      174.0      6.469
  16.40      176.3      7.691
  16.50      25.67      2158.
  16.50      28.47      1453.
  16.50      31.66      961.4
  16.50      34.50      593.8
  16.50      37.74      330.8
  16.50      40.98      190.8
  16.50      43.05      117.8
  16.50      44.65      94.21
  16.50      48.85      92.64
  16.50      51.53      89.52
  16.50      54.26      76.69
  16.50      56.28      54.36
  16.50      59.16      28.76
  16.50      64.13      8.772
  16.50      66.90      6.548
  16.50      69.98      6.114
  16.50      72.62      6.666
  16.50      77.58      6.784
  16.50      78.77      5.912
  16.50      82.60      5.714
  16.50      85.69      5.155
  16.50      88.03      4.416
  16.50      90.78      3.471
  16.50      92.82      2.377
  16.50      92.92      1.744
  16.50      94.15      1.347
  16.50      95.45     0.8319
  16.50      97.51     0.5228
  16.50      98.87     0.2765
  16.50      103.2     0.6889
  16.50      105.6      1.349
  16.50      108.5      2.110
  16.50      112.3      2.341
  16.50      115.0      2.040
  16.50      118.2      1.422
  16.50      120.2     0.9406
  16.50      123.5     0.4189
  16.50      125.3     0.2033
  16.50      128.4     0.1772
  16.50      132.1     0.2417
  16.50      134.3     0.3076
  16.50      136.9     0.3783
  16.50      139.5     0.4815
  16.50      141.4     0.6235
  16.50      144.4     0.7282
  16.50      146.9      1.064
  16.50      150.7      1.354
  16.50      153.0      1.046
  16.50      155.4     0.7809
  16.50      158.2     0.4823
  16.50      160.7     0.2687
  16.50      163.5     0.1872
  16.50      165.2     0.3926
  16.50      167.3     0.7172
  16.50      169.7      1.478
  16.50      170.7      2.235
  16.50      173.6      3.265
  16.50      175.5      3.559
  16.60      26.06      2370.
  16.60      30.40      1537.
  16.60      32.79      1088.
  16.60      35.21      693.8
  16.60      37.31      330.1
  16.60      39.76      186.6
  16.60      42.19      113.0
  16.60      44.53      100.1
  16.60      46.83      105.3
  16.60      50.33      93.25
  16.60      52.69      77.07
  16.60      56.28      45.87
  16.60      58.00      21.45
  16.60      60.87      9.857
  16.60      62.92      5.870
  16.60      65.65      5.197
  16.60      69.07      6.386
  16.60      72.95      5.851
  16.60      76.48      4.511
  16.60      78.86      3.420
  16.60      82.37      2.925
  16.60      84.69      2.823
  16.60      86.64      2.544
  16.60      89.39      2.031
  16.60      91.00      1.514
  16.60      92.57      1.364
  16.60      94.54      1.128
  16.60      96.54     0.8549
  16.60      97.80     0.5271
  16.60      98.38     0.2262
  16.60      105.5     0.6248
  16.60      107.7      1.162
  16.60      109.5      1.851
  16.60      111.7      2.799
  16.60      114.4      2.997
  16.60      117.5      2.699
  16.60      119.5      2.118
  16.60      122.3      1.423
  16.60      124.0     0.7009
  16.60      126.2     0.1761
  16.60      128.5     0.4057E-01
  16.60      131.3     0.1381
  16.60      134.9     0.4616
  16.60      136.7     0.8440
  16.60      138.1      1.299
  16.60      141.5      1.414
  16.60      143.8      1.769
  16.60      146.5      1.960
  16.60      149.2      2.248
  16.60      152.6      2.285
  16.60      154.6      1.889
  16.60      157.8      1.205
  16.60      159.5     0.6036
  16.60      164.2     0.4123
  16.60      166.6      1.503
  16.60      168.8      2.749
  16.60      171.7      5.768
  16.60      173.9      8.140
  16.60      175.8      11.10
  16.70      29.34      2279.
  16.70      31.76      1342.
  16.70      34.87      1040.
  16.70      37.68      612.1
  16.70      40.13      319.5
  16.70      42.92      194.7
  16.70      44.97      112.6
  16.70      47.30      93.42
  16.70      49.95      98.53
  16.70      52.64      92.17
  16.70      54.95      81.88
  16.70      57.38      47.38
  16.70      60.23      23.10
  16.70      62.29      12.48
  16.70      64.32      7.730
  16.70      67.74      7.882
  16.70      70.00      8.750
  16.70      73.44      8.331
  16.70      75.34      8.342
  16.70      78.07      6.574
  16.70      80.45      4.516
  16.70      82.42      3.496
  16.70      85.50      3.161
  16.70      88.22      2.534
  16.70      90.95      1.997
  16.70      91.43      1.347
  16.70      92.23      1.135
  16.70      94.20     0.8939
  16.70      96.04     0.2604
  16.70      99.16     0.1950
  16.70      101.6     0.4603
  16.70      105.7     0.6618
  16.70      108.3     0.9028
  16.70      110.1      1.210
  16.70      113.2      1.255
  16.70      115.1      1.040
  16.70      117.1     0.8481
  16.70      120.6     0.6461
  16.70      122.9     0.4515
  16.70      125.6     0.4681
  16.70      130.6     0.4386
  16.70      134.1     0.3229
  16.70      136.1     0.2295
  16.70      137.3     0.1421
  16.70      140.0     0.1605
  16.70      142.8     0.3362
  16.70      145.7     0.5933
  16.70      147.9     0.8665
  16.70      150.8      1.333
  16.70      153.1      1.455
  16.70      155.8      1.361
  16.70      157.7      1.251
  16.70      159.7     0.9041
  16.70      161.7     0.5897
  16.70      163.7     0.4191
  16.70      167.1     0.4201
  16.70      169.2     0.8353
  16.70      171.8      1.376
  16.70      173.6      2.115
  16.70      175.8      2.693
  16.80      29.74      2099.
  16.80      32.47      1335.
  16.80      35.20      943.2
  16.80      38.32      589.8
  16.80      39.91      320.8
  16.80      42.65      190.4
  16.80      43.84      121.1
  16.80      47.72      96.65
  16.80      52.35      88.64
  16.80      55.08      67.12
  16.80      57.81      43.46
  16.80      60.18      21.67
  16.80      62.53      12.42
  16.80      64.48      9.082
  16.80      67.97      8.185
  16.80      70.28      8.477
  16.80      73.75      8.481
  16.80      76.47      6.885
  16.80      79.97      4.948
  16.80      83.84      4.460
  16.80      87.31      4.385
  16.80      89.25      4.020
  16.80      91.20      2.940
  16.80      92.00      2.112
  16.80      93.56      1.544
  16.80      93.96      1.253
  16.80      95.92     0.8257
  16.80      96.72     0.5831
  16.80      101.0     0.6254
  16.80      103.2      1.345
  16.80      107.1      2.008
  16.80      108.6      2.349
  16.80      111.3      2.350
  16.80      113.2      2.081
  16.80      116.7      1.279
  16.80      118.7     0.5845
  16.80      122.7     0.2169
  16.80      126.1     0.4666
  16.80      129.1     0.9694
  16.80      130.6      1.237
  16.80      134.5      1.327
  16.80      138.8     0.9052
  16.80      140.3     0.5562
  16.80      143.1     0.2872
  16.80      147.3     0.5102
  16.80      149.6     0.7484
  16.80      151.9      1.329
  16.80      153.8      1.582
  16.80      157.6      1.611
  16.80      159.6      1.452
  16.80      161.5      1.178
  16.80      163.1     0.7239
  16.80      165.1     0.3309
  16.80      171.2     0.5779
  16.80      173.9      1.222
  16.80      175.8      2.133
  16.80      177.3      2.818
  16.90      26.95      2043.
  16.90      31.25      1371.
  16.90      33.25      935.6
  16.90      36.41      606.2
  16.90      38.47      318.7
  16.90      42.43      170.6
  16.90      43.68      108.5
  16.90      47.55      89.73
  16.90      48.71      86.68
  16.90      51.78      82.33
  16.90      54.54      59.21
  16.90      56.93      37.69
  16.90      59.38      19.47
  16.90      61.43      10.60
  16.90      64.19      7.622
  16.90      67.62      8.037
  16.90      70.32      7.245
  16.90      73.03      6.308
  16.90      75.39      4.779
  16.90      77.76      3.496
  16.90      79.72      2.790
  16.90      82.41      2.650
  16.90      85.06      3.047
  16.90      87.34      3.212
  16.90      90.80      3.051
  16.90      91.61      2.477
  16.90      92.40      2.232
  16.90      93.62      1.633
  16.90      95.61      1.134
  16.90      96.46     0.7734
  16.90      98.13     0.4209
  16.90      99.88     0.1618
  16.90      102.7     0.3931
  16.90      105.6     0.9548
  16.90      107.8      1.582
  16.90      109.7      1.819
  16.90      111.9      2.128
  16.90      115.0      1.821
  16.90      117.0      1.265
  16.90      120.2     0.6312
  16.90      122.3     0.3557
  16.90      123.5     0.2225
  16.90      126.6     0.2649
  16.90      128.5     0.2516
  16.90      130.2     0.5046
  16.90      132.9     0.5803
  16.90      134.8     0.5140
  16.90      136.7     0.4797
  16.90      138.7     0.3571
  16.90      140.9     0.4972
  16.90      144.3     0.7294
  16.90      146.5      1.070
  16.90      148.3      1.625
  16.90      151.0      1.969
  16.90      152.9      2.039
  16.90      155.2      1.806
  16.90      157.9      1.345
  16.90      159.6     0.8413
  16.90      162.1     0.3349
  16.90      164.4     0.6649E-01
  16.90      166.7     0.3073
  16.90      170.3     0.9693
  16.90      172.0      2.234
  16.90      174.2      3.702
  16.90      176.8      5.155
  17.00      28.90      2061.
  17.00      31.66      1401.
  17.00      33.66      902.6
  17.00      35.27      571.5
  17.00      38.85      288.0
  17.00      41.26      150.3
  17.00      44.44      88.73
  17.00      46.79      77.11
  17.00      49.52      77.13
  17.00      53.03      74.49
  17.00      55.39      57.23
  17.00      56.99      38.88
  17.00      60.21      15.32
  17.00      62.98      10.97
  17.00      63.81      6.946
  17.00      66.93      6.591
  17.00      70.45      6.039
  17.00      73.96      5.832
  17.00      77.87      4.808
  17.00      80.22      4.328
  17.00      82.96      3.965
  17.00      85.31      3.568
  17.00      88.83      3.101
  17.00      90.82      2.144
  17.00      92.43      1.382
  17.00      92.87     0.8300
  17.00      93.70     0.5348
  17.00      95.36     0.2182
  17.00      96.60     0.1099
  17.00      99.40     0.5840E-01
  17.00      101.1     0.3510
  17.00      103.8     0.9071
  17.00      106.1      1.459
  17.00      109.1      2.110
  17.00      113.0      2.187
  17.00      115.8      1.710
  17.00      119.3      1.337
  17.00      121.7     0.8321
  17.00      123.7     0.5959
  17.00      125.7     0.4421
  17.00      128.4     0.4500
  17.00      131.5     0.3980
  17.00      132.7     0.2952
  17.00      135.5     0.2902
  17.00      137.8     0.2753
  17.00      139.4     0.2522
  17.00      141.7     0.2310
  17.00      144.0     0.2613
  17.00      146.0     0.3116
  17.00      149.4     0.4753
  17.00      151.0     0.5471
  17.00      153.7     0.5769
  17.00      156.1     0.4673
  17.00      159.6     0.3065
  17.00      163.5     0.2083
  17.00      168.2     0.3291
  17.00      170.4     0.5880
  17.00      173.1      1.168
  17.00      175.4      1.750
  17.00      176.9      2.086
  17.10      25.47      1862.
  17.10      28.67      1320.
  17.10      30.35      918.5
  17.10      33.60      586.7
  17.10      36.59      284.2
  17.10      39.91      152.7
  17.10      42.38      101.0
  17.10      44.37      83.55
  17.10      46.66      83.61
  17.10      50.14      75.46
  17.10      52.53      60.32
  17.10      54.97      42.00
  17.10      57.96      20.00
  17.10      61.27      11.12
  17.10      63.78      6.630
  17.10      66.13      5.879
  17.10      67.71      5.123
  17.10      71.16      5.041
  17.10      74.62      4.709
  17.10      78.52      3.967
  17.10      81.18      4.039
  17.10      83.86      4.043
  17.10      86.19      3.647
  17.10      90.17      2.497
  17.10      91.08      1.799
  17.10      91.97      1.318
  17.10      92.90     0.9017
  17.10      94.34     0.4520
  17.10      96.39     0.3257
  17.10      97.71     0.2152
  17.10      100.3     0.5970
  17.10      102.7      1.300
  17.10      104.8      2.111
  17.10      106.6      2.737
  17.10      110.7      2.886
  17.10      113.9      2.080
  17.10      117.3      1.099
  17.10      119.3     0.3115
  17.10      121.4     0.8983E-01
  17.10      125.2     0.2171
  17.10      127.1     0.5918
  17.10      129.8      1.203
  17.10      131.7      1.335
  17.10      134.0      1.291
  17.10      136.0      1.050
  17.10      138.2     0.5639
  17.10      140.7     0.3030
  17.10      143.4     0.1172
  17.10      146.1     0.2736
  17.10      148.1     0.5371
  17.10      150.5      1.111
  17.10      152.6      1.517
  17.10      156.6      1.213
  17.10      159.8     0.8745
  17.10      162.0     0.3753
  17.10      165.2     0.1160
  17.10      167.3     0.4243
  17.10      168.4      1.305
  17.10      170.3      3.152
  17.10      172.8      4.858
  17.10      174.9      6.635
  17.20      28.04      1810.
  17.20      30.77      1217.
  17.20      33.89      832.4
  17.20      35.86      447.7
  17.20      38.22      249.1
  17.20      40.96      159.1
  17.20      43.32      81.24
  17.20      45.26      73.22
  17.20      47.57      78.37
  17.20      49.50      79.67
  17.20      52.21      71.78
  17.20      55.32      55.39
  17.20      58.05      35.37
  17.20      59.65      16.02
  17.20      62.41      8.177
  17.20      65.14      5.222
  17.20      67.86      4.243
  17.20      69.79      4.240
  17.20      72.88      4.235
  17.20      74.43      3.753
  17.20      79.07      3.379
  17.20      82.56      2.991
  17.20      85.64      3.146
  17.20      87.97      2.647
  17.20      91.47      1.841
  17.20      93.05      1.197
  17.20      93.08     0.7918
  17.20      94.63     0.6778
  17.20      95.84     0.3288
  17.20      97.82     0.1769
  17.20      102.0     0.4034
  17.20      103.5      1.075
  17.20      107.3      1.568
  17.20      111.2      1.860
  17.20      113.9      1.765
  17.20      116.6      1.362
  17.20      119.0     0.7074
  17.20      121.7     0.2650
  17.20      124.1     0.1376
  17.20      126.0     0.1974
  17.20      129.0     0.4279
  17.20      131.3     0.6351
  17.20      134.0     0.7800
  17.20      138.3     0.6904
  17.20      140.2     0.4188
  17.20      143.3     0.2914
  17.20      144.9     0.2065
  17.20      148.0     0.2287
  17.20      150.3     0.2809
  17.20      153.0     0.4241
  17.20      155.3     0.4539
  17.20      158.4     0.4942
  17.20      161.5     0.3266
  17.20      163.0     0.2565
  17.20      165.4     0.1980
  17.20      168.8     0.3550
  17.20      171.1     0.7964
  17.20      173.3      1.640
  17.20      176.4      2.311
  17.20      177.9      2.839
  17.30      26.02      1930.
  17.30      30.31      1520.
  17.30      32.33      862.7
  17.30      35.11      533.8
  17.30      37.93      264.2
  17.30      40.74      135.3
  17.30      44.28      91.28
  17.30      46.62      83.82
  17.30      49.32      83.88
  17.30      50.90      70.68
  17.30      53.64      54.67
  17.30      56.04      32.68
  17.30      58.86      16.46
  17.30      61.65      9.507
  17.30      64.01      7.353
  17.30      66.72      6.989
  17.30      70.99      6.205
  17.30      75.28      4.969
  17.30      78.02      3.978
  17.30      79.99      3.184
  17.30      83.05      3.916
  17.30      86.15      3.787
  17.30      88.47      3.789
  17.30      89.66      3.085
  17.30      91.27      2.079
  17.30      92.10      1.425
  17.30      93.68      1.181
  17.30      94.94     0.6256
  17.30      96.53     0.4516
  17.30      97.84     0.1819
  17.30      100.4     0.4149
  17.30      102.6      1.068
  17.30      105.6      1.949
  17.30      108.6      2.846
  17.30      112.1      2.898
  17.30      115.6      1.954
  17.30      117.3     0.9505
  17.30      120.1     0.3764
  17.30      122.6     0.1192
  17.30      125.2     0.3901
  17.30      128.1     0.9867
  17.30      129.6      1.652
  17.30      132.7      1.833
  17.30      135.0      1.772
  17.30      137.7      1.469
  17.30      139.3     0.8929
  17.30      141.0     0.5523
  17.30      144.5     0.5073
  17.30      146.3     0.7933
  17.30      149.3      1.352
  17.30      151.6      2.226
  17.30      153.1      2.736
  17.30      155.4      2.834
  17.30      158.5      2.118
  17.30      160.1      1.556
  17.30      162.2     0.5849
  17.30      167.7     0.3880
  17.30      171.3      1.790
  17.30      173.5      4.375
  17.30      174.2      6.722
  17.30      177.3      9.165
  17.40      27.60      1865.
  17.40      31.09      1321.
  17.40      33.12      556.9
  17.40      35.81      493.5
  17.40      38.20      251.7
  17.40      40.96      137.5
  17.40      43.32      87.78
  17.40      46.00      83.34
  17.40      48.30      79.13
  17.40      50.99      70.11
  17.40      54.08      56.99
  17.40      57.21      34.54
  17.40      59.22      16.44
  17.40      61.58      10.49
  17.40      64.30      7.557
  17.40      66.24      6.143
  17.40      69.70      5.443
  17.40      72.41      4.274
  17.40      75.10      3.853
  17.40      75.88      3.414
  17.40      79.72      2.973
  17.40      83.15      3.025
  17.40      86.23      2.634
  17.40      90.10      1.865
  17.40      90.94      1.073
  17.40      92.51     0.8427
  17.40      92.93     0.6176
  17.40      94.94     0.3043
  17.40      96.94     0.1634
  17.40      97.89     0.4555E-01
  17.40      100.4     0.1399
  17.40      103.6     0.5762
  17.40      104.3      1.091
  17.40      106.5      1.710
  17.40      109.6      1.997
  17.40      112.2      2.373
  17.40      115.3      1.769
  17.40      117.7      1.274
  17.40      119.7     0.7208
  17.40      122.1     0.1974
  17.40      126.1     0.6317E-01
  17.40      126.8     0.1524
  17.40      129.7     0.4521
  17.40      131.9     0.8562
  17.40      136.0     0.9829
  17.40      138.0     0.8270
  17.40      141.5     0.5278
  17.40      143.9     0.3090
  17.40      146.2     0.1660
  17.40      148.8     0.2786
  17.40      149.9     0.6720
  17.40      153.2      1.109
  17.40      155.1      1.251
  17.40      157.0      1.128
  17.40      159.8     0.8264
  17.40      162.2     0.3197
  17.40      164.3     0.1023
  17.40      167.2     0.2983
  17.40      169.2      1.486
  17.40      170.6      3.345
  17.40      173.6      5.239
  17.40      176.3      7.148
  17.50      25.91      2037.
  17.50      28.74      1374.
  17.50      30.87      754.2
  17.50      33.72      475.0
  17.50      36.29      227.3
  17.50      39.23      112.6
  17.50      41.70      69.69
  17.50      44.35      75.99
  17.50      46.64      80.05
  17.50      50.11      74.81
  17.50      52.97      45.52
  17.50      55.82      28.67
  17.50      58.38      14.20
  17.50      61.26      8.206
  17.50      63.68      5.827
  17.50      69.02      6.250
  17.50      70.99      5.451
  17.50      74.21      3.553
  17.50      78.46      3.209
  17.50      82.28      3.325
  17.50      84.63      2.900
  17.50      86.62      2.362
  17.50      88.28      1.677
  17.50      90.83     0.8303
  17.50      92.67     0.3646
  17.50      93.27     0.1966
  17.50      95.47     0.9093E-01
  17.50      96.09     0.1373
  17.50      97.80     0.2419
  17.50      99.73     0.6659
  17.50      102.6      1.215
  17.50      105.2      1.419
  17.50      107.8      1.714
  17.50      111.6      1.716
  17.50      114.1      1.099
  17.50      117.3     0.8220
  17.50      120.6     0.4142
  17.50      123.0     0.3150
  17.50      124.6     0.2747
  17.50      126.6     0.6156
  17.50      129.1     0.9959
  17.50      131.6      1.454
  17.50      134.3      1.612
  17.50      136.6      1.670
  17.50      138.9      1.360
  17.50      140.9      1.127
  17.50      143.1     0.6184
  17.50      145.6     0.3636
  17.50      148.4     0.2138
  17.50      150.1     0.4549
  17.50      153.1     0.5313
  17.50      155.2     0.8594
  17.50      156.7     0.9208
  17.50      159.8     0.7631
  17.50      161.9     0.4973
  17.50      164.5     0.2339
  17.50      166.9     0.1633
  17.50      168.8     0.5428
  17.50      170.8      1.175
  17.50      174.0      2.418
  17.50      175.4      3.351
  17.60      26.06      2071.
  17.60      29.95      1418.
  17.60      31.55      906.6
  17.60      34.71      513.9
  17.60      38.66      232.9
  17.60      40.31      119.1
  17.60      43.42      87.38
  17.60      46.47      90.37
  17.60      48.77      88.78
  17.60      50.71      76.02
  17.60      54.98      52.94
  17.60      56.60      31.07
  17.60      58.63      15.62
  17.60      61.39      9.484
  17.60      64.86      8.118
  17.60      69.48      6.598
  17.60      72.57      5.552
  17.60      73.38      4.217
  17.60      75.29      4.288
  17.60      76.85      3.672
  17.60      80.32      3.144
  17.60      84.15      3.034
  17.60      87.23      2.688
  17.60      89.96      1.972
  17.60      90.88     0.7797
  17.60      92.12     0.4346
  17.60      93.31     0.3416
  17.60      95.39     0.1305
  17.60      96.21     0.9410E-01
  17.60      98.36     0.2109
  17.60      100.1     0.7388
  17.60      103.0      1.418
  17.60      105.3      1.998
  17.60      109.1      2.031
  17.60      112.5      1.799
  17.60      115.7      1.131
  17.60      117.7     0.4706
  17.60      120.2     0.1540
  17.60      122.7     0.6297E-01
  17.60      124.8     0.1890
  17.60      127.3     0.4383
  17.60      129.6     0.5571
  17.60      133.0     0.6387
  17.60      136.1     0.5757
  17.60      137.6     0.4846
  17.60      139.2     0.3495
  17.60      140.8     0.2942
  17.60      143.5     0.2352
  17.60      145.7     0.3489
  17.60      147.9     0.5089
  17.60      150.9     0.7550
  17.60      152.8     0.7810
  17.60      155.9     0.7671
  17.60      157.9     0.4739
  17.60      159.5     0.2263
  17.60      161.8     0.3989E-01
  17.60      163.5     0.1398
  17.60      167.7     0.9082
  17.60      169.5      2.589
  17.60      172.0      4.720
  17.60      173.5      6.653
  17.60      176.9      8.751
  17.70      28.20      1751.
  17.70      31.36      1263.
  17.70      33.76      807.1
  17.70      36.17      489.9
  17.70      39.00      218.1
  17.70      41.03      123.6
  17.70      44.20      83.17
  17.70      49.28      86.13
  17.70      52.42      73.79
  17.70      55.21      48.82
  17.70      57.61      31.20
  17.70      59.65      15.40
  17.70      61.65      10.73
  17.70      64.79      9.192
  17.70      67.93      8.151
  17.70      69.92      6.296
  17.70      73.08      4.781
  17.70      75.07      3.447
  17.70      78.21      3.005
  17.70      81.70      3.633
  17.70      85.22      3.761
  17.70      87.57      3.393
  17.70      89.58      2.245
  17.70      91.59      1.362
  17.70      92.05     0.7852
  17.70      93.68     0.4765
  17.70      95.33     0.2352
  17.70      96.16     0.1556
  17.70      100.7     0.5288
  17.70      104.1      1.252
  17.70      106.0      2.172
  17.70      107.5      2.537
  17.70      110.7      2.538
  17.70      113.4      2.539
  17.70      115.8      1.862
  17.70      117.4      1.170
  17.70      119.8     0.4861
  17.70      122.7     0.1730
  17.70      124.3     0.1314
  17.70      127.7     0.3957
  17.70      130.3     0.7486
  17.70      134.2      1.057
  17.70      135.8      1.113
  17.70      137.7     0.9372
  17.70      140.1     0.5787
  17.70      141.8     0.3060
  17.70      144.3     0.9327E-01
  17.70      147.3     0.1795
  17.70      150.3     0.5135
  17.70      152.6      1.023
  17.70      156.5      1.155
  17.70      159.2     0.9393
  17.70      161.6     0.4967
  17.70      164.5     0.1622
  17.70      169.0     0.8626
  17.70      171.6      2.467
  17.70      174.6      4.668
  17.70      175.8      7.181
  17.70      178.5      9.463
  17.80      29.94      1783.
  17.80      33.04      1215.
  17.80      34.98      872.4
  17.80      37.69      490.7
  17.80      40.81      208.8
  17.80      42.37      105.7
  17.80      44.69      81.40
  17.80      47.78      78.63
  17.80      50.48      77.29
  17.80      53.56      66.07
  17.80      55.89      45.81
  17.80      58.61      26.68
  17.80      61.33      12.83
  17.80      63.27      8.009
  17.80      65.98      6.612
  17.80      68.67      6.730
  17.80      70.60      5.854
  17.80      74.08      4.131
  17.80      77.18      2.766
  17.80      79.50      2.057
  17.80      81.82      1.918
  17.80      83.73      2.537
  17.80      87.58      2.818
  17.80      89.51      2.970
  17.80      91.83      2.208
  17.80      92.61      1.670
  17.80      93.39      1.286
  17.80      95.33     0.9231
  17.80      95.74     0.5101
  17.80      97.68     0.3298
  17.80      99.26     0.1158
  17.80      101.9     0.1888
  17.80      104.6     0.7111
  17.80      106.1      1.480
  17.80      109.2      2.211
  17.80      111.1      2.456
  17.80      114.2      2.776
  17.80      116.1      2.174
  17.80      119.2      1.482
  17.80      121.2     0.6999
  17.80      122.7     0.2457
  17.80      124.7     0.7770E-01
  17.80      127.8     0.1482
  17.80      130.0     0.4078
  17.80      132.3     0.6309
  17.80      135.4     0.9427
  17.80      138.9     0.9430
  17.80      142.4     0.7012
  17.80      143.9     0.4534
  17.80      146.2     0.3371
  17.80      148.5     0.3144
  17.80      150.8     0.4781
  17.80      153.9     0.6212
  17.80      156.2     0.8359
  17.80      158.5     0.8965
  17.80      161.2     0.8076
  17.80      162.8     0.4786
  17.80      164.4     0.1966
  17.80      166.7     0.9126E-01
  17.80      169.3     0.4313
  17.80      172.4      1.050
  17.80      175.1      2.148
  17.80      177.0      3.099
  17.90      29.36      1689.
  17.90      32.45      1215.
  17.90      35.16      889.8
  17.90      38.26      468.4
  17.90      39.82      207.2
  17.90      42.92      107.2
  17.90      45.24      77.14
  17.90      47.17      73.25
  17.90      49.87      72.04
  17.90      52.96      56.53
  17.90      56.44      41.39
  17.90      58.76      23.35
  17.90      60.71      12.29
  17.90      62.26      8.841
  17.90      63.80      7.970
  17.90      65.35      7.060
  17.90      68.05      5.351
  17.90      70.76      3.530
  17.90      72.70      2.249
  17.90      75.40      1.827
  17.90      79.25      2.101
  17.90      81.18      2.415
  17.90      83.10      2.925
  17.90      86.18      2.827
  17.90      89.27      2.378
  17.90      90.44      1.568
  17.90      91.99     0.9318
  17.90      92.39     0.6038
  17.90      93.17     0.3846
  17.90      93.97     0.1480
  17.90      95.91     0.6326E-01
  17.90      97.84     0.7529E-01
  17.90      100.5     0.3988
  17.90      103.6      1.037
  17.90      107.4      1.747
  17.90      109.3      2.152
  17.90      112.8      2.432
  17.90      116.3      1.781
  17.90      118.2      1.040
  17.90      119.8     0.4848
  17.90      122.1     0.1772
  17.90      123.3     0.6477E-01
  17.90      127.1     0.2185
  17.90      130.6     0.5120
  17.90      132.9     0.8329
  17.90      136.3     0.8482
  17.90      139.0     0.5997
  17.90      142.1     0.4391
  17.90      143.7     0.2351
  17.90      147.5     0.3961
  17.90      150.6     0.8077
  17.90      154.0      1.164
  17.90      156.0      1.185
  17.90      158.3     0.9794
  17.90      159.1     0.5621
  17.90      161.8     0.1331
  17.90      164.9     0.2021
  17.90      168.3      1.148
  17.90      170.6      3.198
  17.90      173.3      6.634
  17.90      175.2      10.79
  17.90      178.7      14.26
  18.00      28.94      1798.
  18.00      30.49      1619.
  18.00      35.17      863.2
  18.00      36.79      502.2
  18.00      39.22      192.1
  18.00      41.24      97.17
  18.00      43.57      77.43
  18.00      47.02      78.82
  18.00      49.32      74.80
  18.00      51.65      61.73
  18.00      54.00      42.77
  18.00      57.91      24.03
  18.00      60.31      12.59
  18.00      62.66      8.572
  18.00      65.76      6.597
  18.00      68.46      5.737
  18.00      71.19      4.117
  18.00      73.93      2.852
  18.00      76.26      2.234
  18.00      78.53      2.708
  18.00      80.04      3.282
  18.00      84.23      3.710
  18.00      87.68      3.583
  18.00      88.48      2.957
  18.00      90.85      1.720
  18.00      92.48     0.9332
  18.00      93.70     0.5429
  18.00      94.55     0.3214
  18.00      95.98     0.4784E-01
  18.00      98.21     0.7669E-01
  18.00      101.4     0.4482
  18.00      103.9      1.172
  18.00      106.9      1.912
  18.00      109.2      2.318
  18.00      111.5      2.443
  18.00      114.2      2.319
  18.00      116.1      1.816
  18.00      118.5      1.020
  18.00      120.6     0.4040
  18.00      121.5     0.9639E-01
  18.00      128.3     0.2657
  18.00      130.8     0.6149
  18.00      132.7     0.8877
  18.00      135.7      1.039
  18.00      138.1     0.9037
  18.00      140.4     0.6954
  18.00      142.0     0.5077
  18.00      144.0     0.2754
  18.00      146.4     0.1521
  18.00      148.6     0.2525
  18.00      151.1     0.6266
  18.00      154.5      1.040
  18.00      155.6      1.261
  18.00      159.8      1.261
  18.00      160.6      1.097
  18.00      162.3     0.5357
  18.00      164.7     0.1445
  18.00      167.3     0.3285
  18.00      170.2      1.402
  18.00      172.3      3.418
  18.00      173.8      5.876
  18.00      177.2      7.639
ENDDATA           3580
ENDSUBENT         3593
ENDENTRY             3
