ENTRY            10269   20011204   20020117
SUBENT        10269001   20011204   20020117
BIB                 12         19
INSTITUTE  (1USACOL)
REFERENCE  (J,PR/C,8,1827,197311)
           (C,65ANTWERP,,526,1965)
AUTHOR     (F.Rahn,H.S.Camarda,G.Hacken,W.W.Havens Jr,H.I.Liou,
           J.Rainwater,U.N.Singh,M.Slagowitz,S.Wynchank)
TITLE      Neutron Resonance Spectroscopy.XIII. Na to 320 keV.
FACILITY   (SYNCH) Nevis Synchrocyclotron Neutron Velocity
            Spectrometer
SAMPLE     Samples with inverse thickness in the range 4.8 to 550
            b/atom.
METHOD     (TOF)
ANALYSIS   (MLA) Multi-level Wigner-Eisenbud analysis
CORRECTION Data corrected for background and effects of sample
            container
ERR-ANALYS No information on uncertainties.
STATUS     (APRVD) Approved by author
HISTORY    (19750224C)
           (19821213A) Converted to REACTION formalism
           (20011204A) Converted to new date formats, lower case.
ENDBIB              19
COMMON               1          3
EN-RSL
NSEC/M
 0.2
ENDCOMMON            3
ENDSUBENT           26
SUBENT        10269002   20011204   20020117
BIB                  2          4
REACTION  1(11-NA-23(N,TOT),,WID)
          2(11-NA-23(N,0),,J)
          3(11-NA-23(N,0),,L)
STATUS     Data taken from Table II of reference.
ENDBIB               4
NOCOMMON             0          0
DATA                 4          7
EN-RES     DATA      1DATA      2DATA      3
KEV        KEV        NO-DIM     NO-DIM
  2.850     0.400     1.         0.
 53.15      1.08      2.         1.
199.0       4.5       1.         0.
212.5      15.        0.         1.
238.        3.9       2.         1.
242.        3.5       0.         1.
297.        1.8       2.         0.
ENDDATA              9
ENDSUBENT           18
SUBENT        10269003   20011204   20020117
BIB                  3          5
REACTION   (11-NA-23(N,TOT),,SIG)
COMMENT    Author regards data around 35 keV to be spurious
            due to probable experimental difficulties.
STATUS     Data received on punched cards from H. Liou, February
            1975.
ENDBIB               5
NOCOMMON             0          0
DATA                 2        709
EN         DATA
EV         B
       87.6       2.97
       91.3       2.89
       95.2       3.07
       99.4       3.03
      103.9       3.04
      108.7       3.06
      113.9       3.10
      119.4       2.96
      125.3       3.15
      131.7       3.10
      138.6       3.09
      146.0       3.11
      154.0       3.08
      162.8       3.10
      172.3       3.18
      182.6       3.16
      193.9       3.16
      206.3       3.17
      219.9       3.22
      234.9       3.23
      251.6       3.21
      264.5       3.23
      274.2       3.18
      284.4       3.27
      295.2       3.26
      306.6       3.25
      318.7       3.34
      331.6       3.52
      345.2       3.48
      359.7       3.38
      375.1       3.36
      391.6       3.29
      409.1       3.32
      427.9       3.27
      447.9       3.32
      469.4       3.20
      492.5       3.36
      517.4       3.39
      544.2       3.42
      573.1       3.37
      604.4       3.42
      638.3       3.35
      675.1       3.39
      715.3       3.46
      759.1       3.48
      807.1       3.54
      859.7       3.61
      874.8       3.67
      889.1       3.77
      903.8       3.62
      918.9       3.66
      934.3       3.59
      950.2       3.63
      966.4       3.77
      983.1       3.80
     1000.2       3.93
     1017.7       3.82
     1035.7       3.85
     1054.2       3.85
     1073.2       3.87
     1092.8       4.11
     1112.8       4.08
     1133.4       3.97
     1154.6       4.07
     1176.4       4.15
     1198.8       4.21
     1221.9       4.27
     1245.6       4.27
     1270.0       4.54
     1295.2       4.50
     1321.1       4.63
     1347.8       4.78
     1375.3       4.84
     1403.7       5.03
     1432.9       5.13
     1463.1       5.25
     1494.2       5.65
     1526.4       5.77
     1559.6       6.02
     1593.9       6.11
     1629.3       6.41
     1665.9       6.53
     1703.8       6.99
     1743.0       7.32
     1783.5       7.85
     1825.5       8.49
     1869.0       9.48
     1914.0      10.58
     1960.7      11.56
     2009.1      13.59
     2059.4      15.47
     2111.5      16.99
     2165.7      21.23
     2222.0      24.36
     2280.5      30.44
     2341.3      37.47
     2404.6      48.86
     2470.5      67.15
     2512.2      84.56
     2547.1     104.26
     2568.3     106.11
     2577.2     120.70
     2586.2     114.14
     2595.2     124.36
     2604.3     124.95
     2613.4     133.27
     2622.6     138.93
     2631.8     156.52
     2641.1     155.40
     2650.4     156.50
     2659.8     168.08
     2669.2     174.06
     2678.7     194.97
     2688.2     215.56
     2697.7     218.73
     2707.4     263.07
     2717.0     223.41
     2726.8     251.92
     2736.5     279.15
     2746.4     246.37
     2756.2     272.77
     2766.2     313.86
     2776.2     312.61
     2786.2     316.05
     2796.3     316.65
     2806.4     320.45
     2816.7     341.91
     2826.9     361.84
     2837.2     343.37
     2847.6     346.34
     2858.0     338.98
     2868.5     363.82
     2879.1     325.49
     2889.7     326.44
     2900.3     341.31
     2911.1     301.96
     2921.8     316.80
     2932.7     304.06
     2943.6     302.21
     2954.6     279.20
     2965.6     271.47
     2976.7     260.95
     2987.8     246.88
     2999.0     223.24
     3010.3     231.56
     3021.6     194.97
     3033.0     199.09
     3044.5     187.70
     3056.0     186.97
     3067.6     169.24
     3079.3     157.94
     3091.0     158.08
     3102.8     142.33
     3114.7     134.36
     3126.6     120.25
     3138.6     125.62
     3150.7     108.93
     3162.9     105.58
     3175.1      96.43
     3187.4     109.88
     3219.6      96.47
     3270.2      76.62
     3322.1      71.89
     3375.1      62.39
     3429.5      52.11
     3485.1      43.95
     3542.1      39.12
     3600.6      35.96
     3660.5      32.80
     3721.9      29.93
     3784.9      26.77
     3849.4      24.56
     3915.7      23.48
     3983.7      21.47
     4053.4      19.92
     4125.0      17.57
     4198.5      16.48
     4274.0      15.67
     4351.6      14.99
     4431.3      14.16
     4513.2      13.20
     4597.3      12.50
     4683.9      11.90
     4772.9      11.13
     4864.5      10.50
     4958.8      10.68
     5055.8      10.00
     5155.7       9.70
     5258.6       9.50
     5364.6       8.90
     5473.8       8.92
     5586.4       8.66
     5702.5       8.40
     5822.3       7.83
     5910.0       8.01
     5972.7       8.30
     6036.4       8.02
     6101.1       8.13
     6166.9       7.55
     6233.7       7.56
     6301.7       7.59
     6370.7       7.33
     6440.9       7.19
     6512.3       7.48
     6584.8       7.03
     6658.6       7.07
     6733.6       6.35
     6809.9       6.90
     6887.5       6.44
     6966.5       6.85
     7046.8       6.75
     7128.5       6.75
     7211.6       6.58
     7296.2       6.63
     7382.3       6.23
     7469.9       6.19
     7559.1       6.33
     7649.8       6.41
     7742.3       6.38
     7836.4       6.32
     7932.3       6.19
     8029.9       6.06
     8129.3       6.25
     8230.6       5.96
     8333.8       5.92
     8438.9       5.95
     8546.1       5.75
     8655.3       5.80
     8766.6       5.71
     8880.1       5.78
     8995.8       5.58
     9113.8       5.61
     9234.1       5.66
     9356.8       5.48
     9481.9       5.41
     9609.6       5.27
     9739.9       5.29
     9872.9       5.22
     9974.4       5.24
    10042.9       5.25
    10112.2       5.22
    10182.1       5.24
    10252.8       5.33
    10324.3       5.03
    10396.5       5.18
    10469.4       5.17
    10543.2       5.12
    10617.7       5.06
    10693.0       5.17
    10769.1       5.14
    10846.0       5.24
    10923.7       5.13
    11002.3       5.01
    11081.7       4.77
    11162.0       5.00
    11243.2       5.19
    11325.3       5.15
    11408.2       5.02
    11492.1       5.09
    11576.9       4.84
    11662.6       4.92
    11749.4       4.83
    11837.0       4.89
    11925.7       4.86
    12015.3       4.73
    12106.0       4.96
    12197.7       4.78
    12290.5       4.56
    12384.3       4.63
    12479.2       4.61
    12575.2       4.79
    12672.3       4.68
    12770.5       4.71
    12869.9       4.69
    12970.4       4.63
    13072.1       4.81
    13175.0       4.86
    13279.2       4.72
    13384.6       4.59
    13491.2       4.72
    13599.1       4.73
    13708.3       4.59
    13818.9       4.65
    13930.8       4.58
    14044.0       4.51
    14158.6       4.68
    14274.7       4.68
    14392.2       4.49
    14511.1       4.67
    14631.5       4.52
    14753.4       4.56
    14876.9       4.53
    15001.9       4.48
    15128.4       4.66
    15256.6       4.34
    15386.5       4.60
    15518.0       4.55
    15651.2       4.46
    15786.1       4.60
    15922.7       4.56
    16061.2       4.58
    16201.4       4.44
    16343.5       4.55
    16487.5       4.47
    16633.4       4.43
    16781.2       4.55
    16931.1       4.48
    17082.9       4.50
    17236.8       4.34
    17392.7       4.27
    17550.8       4.30
    17711.1       4.26
    17873.6       4.01
    18038.3       3.95
    18205.3       3.97
    18374.6       4.00
    18546.3       3.93
    18720.5       3.85
    18897.1       4.00
    19076.2       4.02
    19257.8       3.89
    19442.1       3.84
    19629.0       3.95
    19818.6       3.90
    20011.0       3.98
    20206.2       3.93
    20404.3       3.93
    20605.3       3.64
    20809.3       3.69
    21016.3       3.85
    21226.4       3.76
    21439.7       3.81
    21656.3       3.78
    21876.1       3.72
    22099.3       3.76
    22325.9       3.56
    22556.1       3.65
    22789.8       3.76
    23027.1       3.78
    23268.2       3.70
    23513.1       3.77
    23761.9       3.71
    24014.7       3.87
    24271.5       3.66
    24532.4       3.64
    24797.6       3.48
    25067.1       3.52
    25341.0       3.69
    25619.5       3.57
    25902.5       3.61
    26190.3       3.60
    26482.9       3.62
    26780.4       3.50
    27082.9       3.65
    27390.7       3.67
    27703.7       3.63
    28022.1       3.68
    28346.0       3.69
    28675.5       3.71
    29010.8       3.60
    29352.1       3.68
    29699.4       3.50
    30052.9       3.87
    30412.8       3.98
    30779.2       3.90
    31152.2       3.99
    31532.0       3.88
    31918.8       4.04
    32312.9       4.38
    32714.2       3.99
    33123.1       3.99
    33539.6       3.91
    33964.1       3.95
    34396.7       3.53
    34837.6       3.36
    35287.1       3.75
    35745.3       3.83
    36212.5       3.98
    36688.9       4.02
    37174.7       4.29
    37670.3       4.26
    38175.9       4.84
    38691.7       4.36
    39218.0       4.54
    39755.2       4.30
    40303.4       4.26
    40863.1       4.43
    41434.5       4.20
    42018.0       4.30
    42613.9       4.36
    43222.6       4.12
    43844.4       4.15
    44479.7       4.20
    45128.9       4.32
    45792.4       4.39
    46470.7       4.30
    47164.2       4.38
    47873.3       4.26
    48598.5       4.16
    49340.3       4.10
    49793.6       4.20
    50022.6       4.06
    50253.1       4.14
    50485.3       4.30
    50719.1       4.63
    50954.5       4.91
    51191.5       5.48
    51430.2       6.02
    51670.6       6.67
    51912.7       7.92
    52176.0      10.98
    52307.0      12.34
    52438.0      14.25
    52570.0      17.65
    52702.0      20.83
    52835.0      25.37
    52968.0      30.54
    53101.0      34.03
    53236.0      34.61
    53371.0      31.37
    53506.0      26.48
    53642.0      21.23
    53778.0      17.24
    53950.0      13.54
    54156.0      10.49
    54364.0       8.56
    54573.0       7.40
    54626.0       6.95
    54845.2       6.46
    55065.6       5.87
    55287.5       5.39
    55645.2       5.34
    56097.2       5.08
    56554.8       4.92
    57018.0       4.87
    57486.8       4.70
    57961.6       4.53
    58442.2       4.32
    58928.8       4.35
    59421.5       4.37
    59920.5       4.36
    60425.7       4.27
    60937.3       4.06
    61455.5       4.26
    61980.4       4.30
    62511.9       4.15
    63050.4       4.06
    63595.8       4.10
    64148.3       4.25
    64708.1       4.14
    65275.2       4.17
    65849.8       4.07
    66432.1       4.03
    67022.1       4.23
    67619.9       3.94
    68225.8       4.06
    68839.9       3.93
    69462.4       3.97
    70093.3       4.06
    70732.8       3.89
    71381.2       4.01
    72038.5       3.97
    72704.9       4.01
    73380.6       4.08
    74065.8       3.77
    74760.6       3.98
    75465.2       4.01
    76179.9       4.06
    76904.7       3.83
    77639.9       4.01
    78385.8       3.88
    79142.4       3.80
    79910.0       3.87
    80688.9       3.68
    81479.2       3.79
    82281.2       3.73
    83095.1       3.38
    83921.1       3.23
    84759.4       3.16
    85610.4       3.56
    86474.4       3.49
    87351.4       3.68
    88241.8       3.30
    89145.9       3.62
    90064.1       3.58
    90996.4       3.59
    91943.3       3.43
    92905.1       3.51
    93882.0       3.70
    94874.4       3.71
    95882.7       3.74
    96907.1       3.68
    97948.0       3.47
    99005.8       3.65
   100080.8       3.74
   101173.4       3.43
   102283.9       3.47
   103412.9       3.62
   104560.7       3.53
   105727.7       3.53
   106914.3       3.54
   108121.1       3.41
   109348.3       3.59
   110596.6       3.36
   111866.4       3.51
   113158.2       3.19
   114472.4       3.23
   115809.8       3.19
   117170.6       3.31
   118555.7       3.27
   119965.4       3.22
   120967.3       3.35
   121690.6       3.51
   122420.3       3.35
   123156.8       3.23
   123899.8       2.93
   124649.5       3.29
   125406.1       3.04
   126169.7       3.41
   126940.3       3.15
   127717.8       3.12
   128502.6       2.88
   129294.6       3.11
   130093.9       3.08
   130900.8       3.12
   131715.1       3.09
   132537.1       3.25
   133366.6       3.55
   134204.3       3.34
   135049.7       3.27
   135903.0       3.50
   136764.5       3.21
   137634.4       3.38
   138512.4       3.07
   139398.9       3.17
   140294.0       3.16
   141197.6       3.17
   142110.1       3.13
   143031.4       3.13
   143961.6       3.12
   144901.1       3.30
   145849.7       3.18
   146807.7       2.98
   147775.2       3.03
   148752.2       3.33
   149739.0       2.95
   150735.6       3.38
   151742.3       3.24
   152758.9       3.05
   153785.9       2.89
   154823.3       3.08
   155871.3       2.93
   156929.8       2.72
   157999.2       2.81
   159079.6       2.87
   160171.0       3.04
   161273.8       3.15
   162388.0       3.42
   163513.8       2.87
   164651.3       2.93
   165800.7       2.79
   166962.3       3.01
   168135.9       3.11
   169322.1       2.75
   170520.9       2.90
   171732.4       2.96
   172956.9       3.13
   174194.6       3.01
   175445.6       3.01
   176710.1       2.88
   177988.3       3.00
   179280.4       3.07
   180586.8       3.05
   181907.3       3.11
   183242.5       3.00
   184592.3       2.93
   185957.3       2.88
   187337.4       2.68
   188732.7       2.90
   190143.9       2.81
   191570.8       2.99
   192724.1       3.26
   193014.0       3.24
   193304.6       2.96
   193595.8       3.10
   193887.7       3.38
   194180.3       3.45
   194473.5       3.60
   194767.4       3.51
   195062.0       3.67
   195653.1       3.86
   195949.6       4.12
   196246.9       3.96
   196544.9       4.39
   196843.4       4.25
   197142.8       4.65
   197442.8       4.65
   197743.3       5.02
   198044.7       5.44
   198649.4       5.90
   198952.8       6.20
   199256.9       6.79
   199561.7       7.13
   199867.3       7.00
   200173.4       7.28
   200480.3       7.38
   200787.9       7.21
   201096.2       7.22
   201715.1       6.54
   202648.5       5.56
   203588.6       5.22
   204535.1       4.92
   205488.4       4.84
   206448.3       4.59
   207414.9       4.80
   208388.3       4.65
   209368.6       4.70
   210355.9       4.82
   211350.1       4.83
   212351.4       4.81
   213359.8       4.66
   214375.4       4.80
   215398.4       4.41
   216428.5       4.28
   217466.3       4.16
   218511.4       4.03
   219564.0       3.78
   220624.4       3.75
   221692.3       3.44
   222768.2       3.37
   223851.6       3.40
   224943.3       3.36
   226042.8       3.27
   227150.5       3.34
   228266.3       3.27
   229390.3       3.30
   230522.6       3.49
   231663.4       3.45
   232812.8       3.70
   233197.7       3.87
   233583.6       4.13
   233970.5       4.28
   234358.4       4.48
   234747.3       5.06
   235137.0       5.70
   235527.8       5.71
   235919.6       6.11
   236706.0       6.77
   237100.6       7.30
   237496.3       7.66
   237892.9       7.96
   238290.7       8.00
   238689.3       7.85
   239089.1       7.44
   239489.6       7.15
   239891.3       6.36
   240697.7       5.85
   241102.5       5.33
   241508.2       5.37
   241914.9       5.29
   242322.8       5.30
   242731.6       5.25
   243141.4       4.78
   243552.3       4.59
   243964.2       4.12
   245206.4       3.64
   247297.7       3.34
   249415.9       3.09
   251561.5       2.99
   253735.0       2.84
   255936.6       2.86
   258167.1       2.88
   260426.8       2.62
   262716.4       2.73
   265036.3       2.68
   267387.0       2.63
   269769.2       2.73
   272183.3       2.59
   274630.0       2.58
   277109.8       2.63
   279623.2       2.71
   282171.1       2.56
   284754.0       2.37
   287372.6       2.21
   290027.4       2.15
   292177.7       2.00
   292719.2       1.70
   293262.0       1.54
   293806.4       1.32
   294352.3       1.54
   294899.7       1.38
   295448.6       1.60
   295999.0       2.19
   296551.1       2.95
   297659.7       4.65
   298216.3       5.28
   298774.6       4.62
   299334.3       4.66
   299895.8       3.89
   300458.8       4.09
   301023.3       3.65
   301589.3       3.50
   302157.0       3.72
   303869.9       3.36
   306757.1       3.03
   309685.8       3.09
   312656.4       2.89
   315670.0       2.98
   318727.5       2.96
ENDDATA            711
ENDSUBENT          721
ENDENTRY             3
