ENTRY            14212   20090505   20090724   20090712       1353
SUBENT        14212001   20090505   20090724   20090712       1353
BIB                 11         19
TITLE      Total neutron cross section of Phosphorus
AUTHOR     (K.F.Hansen,R.M.Kiehn,C.Goodman)
INSTITUTE  (1USAMIT)
REFERENCE  (J,PR,92,652,1953)
FACILITY   (CCW)
SAMPLE     Red phosphorus in steel cylinder with inner dimensions
           length of 5.08 cm, diameter of 2.54 cm and wall
           thickness of 0.127 mm (5 mils)
DETECTOR   Hydrogen recoil detector with adjustable bias
           was used for neutron counting.
           (LONGC) BF3 long counters placed at 15 deg and 90 deg
           with respect to the neutron beam were used for
           neutron beam monitoring.
METHOD     (TRN)
ERR-ANALYS (EN-ERR)      Energy uncertainty in experiment
           (EN-ERR-DIG)  Uncertainty in digitizing energy
           (ERR-DIG)     Uncertainty in digitizing cross section
INC-SOURCE (P-LI7)
HISTORY    (20081230C)
ENDBIB              19
COMMON               3          3
EN-ERR     EN-ERR-DIG ERR-DIG
KEV        PER-CENT   PER-CENT
2.0        0.6        0.5
ENDCOMMON            3
ENDSUBENT           26
SUBENT        14212002   20090505   20090724   20090712       1353
BIB                  2          2
REACTION   (15-P-31(N,TOT),,SIG)
STATUS     (CURVE) Data taken from fig. 2 of the reference
ENDBIB               2
NOCOMMON             0          0
DATA                 2        367
EN         DATA
KEV        B
     116.31       2.44
     118.05       2.15
     119.80       2.31
     120.67       2.23
     125.04       2.29
     126.78       1.93
     129.40       1.24
     131.15       2.88
     132.89       2.29
     135.51       2.86
     139.01       2.64
     140.75       2.33
     142.50       2.52
     143.37       4.04
     145.99       6.17
     148.61       4.53
     150.36       3.79
     153.85       2.88
     155.59       2.68
     158.21       1.93
     160.83       1.68
     160.84       2.01
     161.71       2.35
     164.32       2.01
     164.33       2.68
     164.33       3.04
     167.82       4.32
     171.31       4.71
     173.06       3.27
     173.06       3.57
     173.93       2.58
     176.55       2.39
     178.29       2.13
     179.17       2.70
     182.66       2.94
     183.53       2.48
     183.53       2.70
     184.41       3.86
     185.86       4.50
     186.50       4.68
     189.06       3.87
     191.62       3.39
     191.62       3.48
     192.90       3.30
     194.82       3.04
     196.10       2.83
     196.11       3.12
     198.02       2.58
     199.94       2.26
     201.86       2.28
     205.06       2.90
     205.06       2.99
     205.70       3.58
     210.18       2.46
     210.18       3.06
     210.18       3.94
     214.02       1.90
     214.02       2.46
     218.50       2.73
     222.98       2.44
     222.98       2.77
     227.46       2.33
     228.10       2.44
     231.30       2.45
     231.31       2.73
     231.94       2.64
     235.14       4.03
     235.78       4.33
     236.42       4.10
     239.62       4.63
     244.73       3.12
     244.74       3.19
     244.75       3.30
     245.38       2.58
     249.86       1.67
     250.50       2.03
     254.34       2.16
     254.35       2.58
     258.82       3.90
     259.46       3.77
     262.66       2.45
     263.30       2.09
     263.30       3.09
     265.22       2.31
     267.13       3.00
     267.14       3.22
     276.74       2.60
     277.38       2.54
     280.58       2.54
     281.22       2.62
     285.06       1.74
     285.06       2.10
     290.18       1.60
     290.18       1.76
     294.66       2.23
     294.66       2.51
     299.14       1.96
     307.46       1.70
     308.10       1.77
     312.58       1.64
     313.22       1.89
     317.06       2.05
     317.07       2.68
     317.70       2.09
     317.71       2.22
     318.98       2.55
     320.90       2.67
     321.54       1.90
     321.54       2.07
     323.46       2.52
     324.10       2.67
     326.01       1.99
     326.02       3.14
     326.66       1.86
     327.30       3.04
     329.86       2.33
     330.50       2.78
     331.14       1.93
     332.42       2.87
     334.34       2.42
     334.98       2.49
     334.98       3.48
     339.45       2.77
     339.46       3.27
     341.38       3.90
     343.94       2.90
     343.94       3.07
     344.58       3.91
     345.86       4.99
     348.41       5.57
     348.42       5.70
     348.43       5.83
     352.26       5.85
     354.18       4.99
     354.19       4.17
     354.82       4.05
     358.02       4.26
     359.30       4.33
     361.86       4.86
     364.42       4.89
     365.70       3.07
     366.98       3.23
     366.98       3.30
     369.54       3.26
     370.81       3.13
     370.82       3.62
     370.83       3.77
     373.38       3.26
     374.02       3.04
     375.29       2.33
     379.77       2.18
     383.61       2.33
     388.09       2.23
     393.21       2.78
     397.04       2.09
     397.05       2.28
     400.89       2.74
     401.53       2.83
     405.36       2.52
     405.37       2.60
     406.01       2.29
     409.85       1.80
     411.12       2.06
     411.13       2.16
     411.14       2.23
     413.05       3.10
     414.97       2.90
     415.61       4.14
     416.25       3.13
     417.53       3.59
     419.44       3.85
     419.45       4.46
     421.38       7.05
     423.30       6.21
     423.94       6.35
     424.58       7.18
     426.50       5.53
     428.40       4.21
     428.41       4.29
     428.42       4.47
     430.97       3.58
     432.89       3.46
     433.53       3.07
     434.17       3.58
     438.01       2.71
     438.65       2.25
     441.21       3.48
     444.41       3.26
     446.32       1.67
     446.33       2.16
     448.89       2.65
     450.80       3.09
     450.81       3.90
     450.82       5.31
     453.37       5.54
     454.65       4.56
     455.93       4.78
     457.85       4.36
     461.05       4.57
     461.05       4.68
     462.34       6.64
     464.90       6.40
     465.53       5.17
     466.17       5.38
     468.72       4.20
     468.73       5.33
     471.29       4.16
     473.85       3.07
     473.86       3.38
     474.49       3.32
     477.68       3.38
     477.69       3.58
     481.53       2.60
     482.17       2.78
     486.65       2.90
     487.93       2.78
     491.13       2.94
     495.61       3.03
     495.61       3.12
     499.45       2.58
     500.09       2.48
     504.56       2.15
     504.57       2.46
     509.05       1.99
     509.69       2.10
     512.89       1.89
     518.01       2.77
     518.02       3.03
     522.48       3.81
     522.49       3.94
     525.69       3.77
     526.97       3.48
     532.09       2.52
     533.37       1.89
     535.29       1.66
     535.93       1.96
     537.21       1.42
     538.49       1.77
     539.77       2.25
     539.78       2.54
     540.41       2.60
     542.33       4.62
     544.25       5.02
     544.88       4.07
     544.89       4.46
     546.81       5.63
     547.45       4.69
     547.45       4.82
     551.29       5.53
     554.49       4.86
     556.41       4.53
     557.68       4.14
     557.69       4.86
     558.33       4.21
     560.25       4.04
     560.89       4.14
     562.17       4.33
     562.81       4.42
     566.65       3.97
     567.29       3.66
     571.13       3.49
     571.77       3.84
     576.25       2.90
     576.25       3.07
     580.09       3.32
     580.73       3.22
     585.21       3.49
     587.76       3.29
     587.77       3.38
     593.53       3.35
     598.65       2.70
     602.49       2.96
     606.97       2.87
     608.25       2.64
     609.53       3.12
     611.45       3.19
     612.09       3.36
     615.93       2.90
     618.49       2.32
     621.68       1.48
     621.69       2.25
     621.70       2.42
     623.61       1.79
     625.52       1.84
     625.53       2.06
     630.01       2.54
     634.49       2.36
     635.13       2.25
     638.97       2.99
     644.09       2.81
     647.93       2.83
     652.40       2.36
     652.41       2.46
     660.73       2.16
     663.92       1.47
     663.93       1.54
     667.13       2.06
     667.77       3.10
     668.41       2.18
     669.05       3.69
     670.33       3.39
     670.97       3.79
     672.89       3.48
     674.81       3.06
     675.44       2.99
     675.45       3.43
     677.37       2.88
     679.29       2.46
     681.84       2.52
     681.85       2.77
     683.13       2.81
     688.89       2.68
     693.37       2.74
     693.38       2.87
     697.20       2.45
     697.21       2.55
     701.69       2.77
     705.53       3.00
     710.64       2.90
     711.28       2.67
     715.12       2.42
     719.60       2.00
     719.61       2.23
     724.07       1.90
     724.08       2.10
     728.56       2.60
     733.04       2.33
     733.05       2.46
     737.52       2.51
     738.80       2.91
     742.00       3.23
     750.96       2.39
     750.97       2.77
     754.80       3.48
     756.08       3.75
     759.92       3.92
     764.40       3.51
     764.47       3.81
     768.24       2.75
     768.88       2.88
     774.00       2.68
     777.84       2.64
     778.48       2.00
     782.32       2.18
     787.44       3.06
     788.08       3.36
     791.28       2.70
     792.56       2.62
     793.84       2.26
     796.40       2.60
     796.44       2.91
     799.60       2.48
     800.24       2.29
     803.44       2.32
     804.72       2.51
     809.20       2.20
     809.22       2.38
     813.04       3.25
     814.32       3.39
     818.16       2.09
     818.80       1.97
     823.28       2.28
     823.28       2.55
     827.76       2.29
     828.40       2.60
     832.86       2.51
     832.88       2.58
ENDDATA            369
ENDSUBENT          376
ENDENTRY             2
