ENTRY            14218   20160812   20170504   20170427       1422
SUBENT        14218001   20160812   20170504   20170427       1422
BIB                 11         26
TITLE      Total Neutron Cross Section of Water
AUTHOR     (J.M.Neill,J.L.Russell Jr,J.R.Brown)
REFERENCE  (J,NSE,33,265,1968)
REL-REF    (A,,D.J.Hughes+,R,BNL-325,1958)
           (A,11149001,E.Melkonian,J,PR,76,1744,1949)
           (A,11150001,E.Melkonian,J,PR,76,1750,1949)
INSTITUTE  (1USAGGA)
FACILITY   (LINAC,1USAGGA)
SAMPLE     The H2O samples were between two thin quartz disks.
           The sample thicknesses were used: 0.3213+-0.0025,
           0.7635+-0.0025, and 1.2713+-0.0025 cm. The sample
           temperature was 23 degrees Celsius.
DETECTOR   (BF3)
METHOD     (TOF) 4 in. cadmium covered cube of 1 wt.% of borated
           polyethylene that acted as a source of thermal
           neutrons. The assembly was excited by fast neutrons
           obtained from LINAC electron pulse on tungsten
           target. The neutron beam was extracted through a hole
           and collimated along 16 m flight path to a bank of 32
           BF3 detectors.
ERR-ANALYS (DATA-ERR) In general, the dominant sources of error
           in the experiment were either counting statistics or
           uncertainty in the sample thickness. Sample
           temperature possible variations +-3 degrees would
           result in negligible error.
HISTORY    (20160812C) BP
ENDBIB              26
COMMON               1          3
TEMP
K
      296.0
ENDCOMMON            3
ENDSUBENT           33
SUBENT        14218002   20160812   20170504   20170427       1422
BIB                  2          2
REACTION   (1-H-WTR(N,TOT),,SIG)
STATUS     (CURVE) Fig. 1, page 266.
ENDBIB               2
NOCOMMON             0          0
DATA                 3        132
EN         DATA       DATA-ERR
EV         B          B
  3.627E-03    189.669
  3.808E-03    179.371
  3.990E-03    175.659      7.766
  4.194E-03    161.815
  4.427E-03    170.431
  4.636E-03    168.070
  4.860E-03    163.007
  5.200E-03    164.701
  5.453E-03    158.456
  5.715E-03    153.731
  5.977E-03    155.591
  6.324E-03    156.609
  6.773E-03    155.600      3.712
  7.018E-03    150.874
  7.265E-03    149.526
  7.700E-03    145.477
  8.324E-03    150.211
  8.626E-03    145.485
  9.332E-03    148.193
  9.557E-03    144.817
  1.001E-02    141.105      2.026
  1.061E-02    138.407
  1.111E-02    135.539
  1.176E-02    136.388
  1.261E-02    130.482
  1.304E-02    131.667
  1.366E-02    129.812
  1.463E-02    128.804
  1.515E-02    126.273      1.519
  1.622E-02    125.434
  1.698E-02    123.411
  1.799E-02    121.388
  1.883E-02    119.872
  1.996E-02    115.992
  2.137E-02    115.659
  2.213E-02    113.128
  2.371E-02    110.431
  2.512E-02    107.902
  2.630E-02    106.216
  2.786E-02    103.519
  2.918E-02    101.495
  3.090E-02     99.304
  3.272E-02     98.126
  3.427E-02     95.427
  3.671E-02     94.081
  3.758E-02     91.718
  4.117E-02     90.374
  4.312E-02     88.182
  4.515E-02     86.496
  4.780E-02     85.318
  5.063E-02     83.296
  5.423E-02     81.612
  5.677E-02     80.940
  5.944E-02     79.254
  6.365E-02     78.584
  6.590E-02     76.560
  6.977E-02     75.382
  7.472E-02     74.542
  7.910E-02     74.040
  8.374E-02     73.199
  8.766E-02     72.358
  9.388E-02     71.181
  1.005E-01     70.173
  1.076E-01     69.671
  1.089E-01     68.152
  1.193E-01     67.652
  1.249E-01     66.473
  1.338E-01     65.296
  1.400E-01     64.455
  1.517E-01     63.616
  1.588E-01     62.437
  1.681E-01     61.259
  1.779E-01     61.432
  1.905E-01     60.424
  1.995E-01     59.076
  2.136E-01     58.743
  2.262E-01     57.396
  2.506E-01     56.390
  2.653E-01     55.381
  2.841E-01     54.542
  3.149E-01     53.198
  3.410E-01     52.528
  3.570E-01     51.180
  3.867E-01     50.004
  4.187E-01     50.347
  4.383E-01     49.000
  4.800E-01     49.175
  5.082E-01     48.672
  5.319E-01     48.000
  5.694E-01     48.174
  5.958E-01     48.346
  6.451E-01     48.521
  6.676E-01     47.848
  7.067E-01     47.514
  7.651E-01     47.857
  8.008E-01     47.354
  8.477E-01     47.189
  9.076E-01     46.856
  9.940E-01     46.694
  1.064E+00     46.530
  1.152E+00     46.198
  1.248E+00     46.204
  1.351E+00     46.041
  1.463E+00     45.877
  1.621E+00     45.716
  1.775E+00     45.722
  1.966E+00     45.730
  2.128E+00     46.242
  2.203E+00     45.062
  2.358E+00     45.236
  2.524E+00     45.917
  2.642E+00     44.738
  2.829E+00     44.743
  2.994E+00     45.084
  3.169E+00     45.088
  3.431E+00     44.925
  3.633E+00     44.085
  3.888E+00     45.103
  4.210E+00     45.109
  4.559E+00     44.777
  4.880E+00     44.951
  5.405E+00     44.958
  5.918E+00     45.471
  6.338E+00     44.463
  7.102E+00     43.964
  7.777E+00     44.140
  8.615E+00     43.978
  9.762E+00     43.987
  1.106E+01     43.827
  1.225E+01     44.679
  1.388E+01     43.674
  1.609E+01     43.854
ENDDATA            134
ENDSUBENT          141
ENDENTRY             2
