ENTRY            12984   19871207              20050926       0000
SUBENT        12984001   19871207              20050926       0000
BIB                 13         28
INSTITUTE  (1USAORL,1USALAS)
REFERENCE  (J,NSE,97,239,8711)
AUTHOR     (R.L.MACKLIN,P.G.YOUNG)
TITLE      NEUTRON CAPTURE CROSS SECTIONS OF RHENIUM FROM 3 KEV
            TO 1900 KEV
FACILITY   (LINAC) ORELA
METHOD     (TOF) 40.212 METER FLIGHT PATH
DETECTOR   (SCIN) TWO FLUOROCARBON SCINTILLATORS FOR CAPTURE
             GAMMA RAY DETECTION
SAMPLE     NATURAL RHENIUM METAL 2.54 X 5.08 X.013 CM WEIGHING
            3.005 GR CONTAINING LESS THAN 10-PPM OF ANY SINGLE
            IMPURITY
MONITOR    (79-AU-197(N,G)79-AU-198,,SIG)
           SATURATED RESONANCE TECHNIQUE
CORRECTION DATA WERE CORRECTED FOR DEAD-TIME LOSS, AMPLIFIER
            GAIN, GAMMA ENERGY LOSS IN THE SAMPLE, SCATTERED
            NEUTRON BACKGROUND, RESONANCE SELF-PROTECTION AND
            SCATTERING IN THE SAMPLE
ERR-ANALYS (ERR-S) STATISTICAL UNCERTAINTY LESS THAN .9% BELOW
            400 KEV.
           SYSTEMATIC UNCERTAINTIES ARE 4% BELOW 200 KEV, 5% FROM
            200 TO 1500 KEV, AND 6% AT 1900 KEV.
STATUS     DATA RECEIVED IN PRIVATE COMMUNICATION FROM R.L.
            MACKLIN 86/10/20
           (APRVD) R.L.MACKLIN, 86/11/11.
HISTORY    (861030C)
           (870605A) BIB CORRECTIONS.
           (871207A) REFERENCE UPDATE.
ENDBIB              28
COMMON               1          3
EN-NRM
EV
 4.9
ENDCOMMON            3
ENDSUBENT           35
SUBENT        12984002   19861112              20050926       0000
BIB                  1          1
REACTION   (75-RE-0(N,G),,SIG,,AV)
ENDBIB               1
NOCOMMON             0          0
DATA                 4         30
EN-MIN     EN-MAX     DATA       ERR-S
KEV        KEV        MB         MB
    3.        4.       4405.
    4.        6.       3300.
    6.        8.       2581.
    8.       10.       1985.
   10.       15.       1547.
   15.       20.       1241.
   20.       30.        973.
   30.       40.        818.
   40.       60.        671.
   60.       80.        589.
   80.      100.        530.
  100.      150.        495.
  150.      200.        416.
  200.      300.        368.
  300.      400.        293.
  400.      500.        260.3     2.6
  500.      600.        243.2     2.8
  600.      700.        227.5     3.0
  700.      800.        206.7     2.9
  800.      900.        187.0     4.0
  900.     1000.        165.6     4.3
 1000.     1100.        151.4     4.7
 1100.     1200.        131.9     4.4
 1200.     1300.        116.7     4.4
 1300.     1400.        114.8     5.1
 1400.     1500.         98.7     5.1
 1500.     1600.        100.7     5.9
 1600.     1700.         91.7     6.2
 1700.     1800.         90.5     6.5
 1800.     1900.         72.6     6.4
ENDDATA             32
ENDSUBENT           38
ENDENTRY             2
