ENTRY            10515   20040427   20040517
SUBENT        10515001   20040427   20040517
BIB                 11         15
INSTITUTE  (1USACOL)
REFERENCE  (J,PR/C,11,1117,197504)
AUTHOR     (U.N.Singh,J.Rainwater,H.J.Liou,G.Hacken,J.B.Garg)
TITLE      Neutron resonance spectroscopy: Aluminum
FACILITY   (SYNCH,1USACOL) Nevis synchrocyclotron
INC-SOURCE (EVAP) Evaporation neutrons from protons on lead.
METHOD     (TOF) Time-of-flight
DETECTOR   (SCIN) Scintillation detectors for self-indication
                  measurements
           (NAICR) Sodium iodide crystals viewing a boron slab.
CORRECTION Data given have been corrected for background.
STATUS     (APRVD) Approved by author.
HISTORY    (19750522C)
           (19830901A) Converted to REACTION formalism
           (20040427A) Updated to new date formats, lower case.
ENDBIB              15
NOCOMMON             0          0
ENDSUBENT           18
SUBENT        10515002   20040427   20040517
BIB                  3          6
REACTION  1(13-AL-27(N,0),,EN)
          2(13-AL-27(N,EL),,WID)
          3(13-AL-27(N,0),,L)
          4(13-AL-27(N,0),,J)
ANALYSIS   (MLA) R-matrix multi-level shape analysis.
ERR-ANALYS (DATA-ERR) No information on source on uncertainties.
ENDBIB               6
NOCOMMON             0          0
DATA                 5          7
DATA      1DATA      2DATA-ERR  2DATA      3DATA      4
KEV        KEV        KEV        NO-DIM     NO-DIM
  5.895     0.017     0.002      1.         1.
 34.59      3.00      0.15       0.         2.
 85.69     11.0       0.6        0.         3.
119.6       3.60      0.30       1.         2.
142.0      19.0       2.0        0.         3.
158.2       3.2       0.3        1.         3.
202.0      14.5       1.5        0.         2.
ENDDATA              9
ENDSUBENT           20
SUBENT        10515003   20040427   20040517
BIB                  2          2
REACTION   (13-AL-27(N,EL),,STF)
ERR-ANALYS (DATA-ERR) No information on source on uncertainties.
ENDBIB               2
COMMON               2          3
EN-MIN     EN-MAX
KEV        KEV
 5.895      202.0
ENDCOMMON            3
DATA                 4          2
DATA       +DATA-ERR  -DATA-ERR  MOMENTUM L
NO-DIM     NO-DIM     NO-DIM     NO-DIM
   3.25E-04    4.5E-04    1.7E-04 0.
   1.8 E-04    3.5E-04    1.1E-04 1.
ENDDATA              4
ENDSUBENT           15
SUBENT        10515004   20040427   20040517
BIB                  2          2
REACTION   (13-AL-27(N,TOT),,SIG)
ERR-ANALYS No information on uncertainties.
ENDBIB               2
NOCOMMON             0          0
DATA                 2        432
EN         DATA
EV         B
4059.0     1.12
4151.176   1.13
4246.535   1.10
4345.211   1.08
4447.375   1.13
4553.176   1.09
4662.801   1.13
4776.438   1.15
4894.273   1.14
5016.531   1.14
5143.422   1.13
5275.191   1.15
5412.090   1.18
5554.387   1.18
5632.277   1.20
5704.      1.36
5724.      1.44
5742.7     1.52
5761.8     1.51
5781.      1.74
5800.      2.3
5820.      2.8
5834.      3.6
5844.      4.
5854.      5.9
5864.      7.9
5874.      15.
5881.      33.
5886.      43.
5891.      80.
5896.      86.
5901.      78.
5906.      63.
5911.      45.
5916.      21.
5923.      12.
5933.      7.4
5943.      5.
5959.      3.4
5978.      2.3
5999.      1.9
6019.      1.75
6040.      1.69
6070.      1.38
6109.      1.32
6130.703   1.14
6151.789   1.36
6172.984   1.26
6194.289   1.18
6215.703   1.28
6237.227   1.29
6258.867   1.19
6280.617   1.16
6313.457   1.15
6402.297   1.20
6493.027   1.11
6585.695   1.16
6680.367   1.17
6777.094   1.14
6875.934   1.07
6976.953   1.11
7080.219   1.12
7185.781   1.13
7293.727   1.19
7404.141   1.14
7517.066   1.16
7632.598   1.13
7750.809   1.14
7871.793   1.09
7995.625   1.17
8058.645   1.18
8318.332   1.08
8612.590   1.08
8899.723   1.07
9201.469   1.06
9518.816   1.02
9852.863   1.02
10204.813  1.04
10575.969  1.02
10967.738  1.01
11381.691  0.98
11819.527  0.98
12283.117  0.98
12774.527  0.92
13296.031  0.93
13850.148  0.87
14439.621  0.88
15067.555  0.88
15737.363  0.84
16452.832  0.78
17218.219  0.76
18038.313  0.75
18918.402  0.71
19864.516  0.67
20112.113  0.65
20621.445  0.65
21150.391  0.67
21699.918  0.60
22271.145  0.56
22865.254  0.50
23483.430  0.51
24127.039  0.51
24797.469  0.51
25496.223  0.53
26224.949  0.51
26985.363  0.58
27779.540  0.78
28608.883  0.82
29476.125  1.11
30383.430  1.64
31333.281  2.94
31455.117  3.11
31700.992  3.85
31949.723  4.48
32201.395  5.20
32456.066  6.91
32713.781  8.12
32974.574  10.25
33238.448  12.44
33505.582  17.30
33775.883  21.50
34049.508  24.90
34326.473  31.70
34606.820  34.70
34890.598  35.10
35177.898  31.06
35468.742  28.43
35763.234  25.80
36061.418  21.56
36363.316  20.30
36669.027  17.03
36978.637  14.36
37292.160  11.96
37609.672  11.18
37931.297  10.21
38257.039  9.75
38586.996  8.57
38921.234  7.76
39259.863  7.29
39602.879  6.67
39950.457  6.25
40480.453  5.47
41203.680  4.90
41946.441  4.40
42709.480  4.06
43493.543  3.67
44299.387  3.32
45127.820  3.08
45979.727  2.89
46855.980  2.68
47457.516  2.52
48685.320  2.38
49640.465  2.24
50623.961  2.08
51636.992  2.02
52680.664  1.90
53756.383  1.86
54865.359  1.77
56009.008  1.67
57188.820  1.55
58406.293  1.53
59663.094  1.57
61375.113  1.66
62131.512  1.41
62901.941  1.61
63686.777  1.60
64486.398  1.33
65301.160  1.13
66131.5    1.45
66977.750  1.44
67840.375  1.57
68719.750  1.88
69616.375  1.37
70530.625  1.78
71463.0    1.77
72413.938  1.92
73384.063  2.34
74373.813  2.33
75383.750  2.82
76414.313  3.21
77466.250  3.71
78540.0    4.40
79636.188  5.88
80755.5    7.50
81898.688  9.99
83066.188  12.95
84258.938  16.33
85477.563  17.74
86722.750  20.29
87995.375  18.48
89296.125  18.65
90626.0    17.21
91985.875  12.70
93376.563  10.20
94799.0    8.77
96254.188  7.18
97743.188  6.10
99266.938  5.29
100826.625 4.69
102423.313 4.30
104058.313 3.84
105732.750 3.20
106299.875 3.07
106871.563 3.03
107447.875 3.07
108028.938 2.65
108614.625 2.96
109205.188 2.70
109800.5   2.24
110400.750 2.65
111005.938 2.38
111616.063 2.26
112231.250 2.34
112851.563 2.71
113476.938 2.29
114107.625 2.64
114743.500 3.04
115384.750 3.01
116031.5   3.79
116683.5   4.24
117341.125 5.20
118004.375 6.49
118673.188 8.41
119347.750 10.23
120028.0   10.86
120714.188 8.24
121406.250 5.77
122104.188 3.88
122808.250 3.08
123518.438 2.19
124234.625 1.55
124957.313 1.54
125686.125 1.75
126421.438 1.40
127163.250 1.21
127911.5   1.46
128666.438 1.68
129428.125 1.14
130196.5   1.65
130971.875 1.73
131754.063 1.92
132543.313 2.58
133339.688 2.80
134143.188 3.41
134954.125 4.03
135772.375 4.59
136598.0   5.26
138300.    7.11
139100.    8.48
140000.    9.35
140800.    10.06
141700.    11.6
142600.    12.02
143500.    12.35
144400.    13.03
145300.    13.68
146200.    12.02
147100.    12.09
148100.    11.98
149000.    10.92
150000.    11.34
150900.    10.16
151900.    9.93
152800.    10.70
153834.5   10.20
154830.625 11.23
155836.438 11.85
156852.125 13.81
157877.813 17.52
158913.5   14.34
159959.438 11.56
161015.750 10.09
162082.5   8.78
163160.0   7.95
164248.063 6.97
165347.313 6.83
166457.625 6.15
167578.938 6.16
168711.813 5.85
169856.    5.64
171012.0   5.08
172179.938 4.93
173359.688 5.02
174551.813 4.77
175756.188 4.83
176973.0   4.59
178202.625 4.23
179444.938 4.27
180700.375 4.18
181969.063 4.14
183251.188 3.85
184546.750 3.71
185856.375 3.70
187179.688 3.61
188517.375 3.65
189869.313 3.59
191236.0   3.65
192617.438 3.66
194013.750 3.99
195425.625 4.11
196852.750 4.76
198295.563 5.08
199754.375 5.93
201229.188 7.12
202720.563 7.94
204228.563 8.30
205753.313 8.65
207295.438 8.07
208854.813 7.40
210431.813 7.11
212026.875 6.41
213640.125 6.52
215271.688 5.67
216922.125 5.06
218591.563 4.63
220280.289 5.03
220847.800 4.76
221417.307 4.53
221989.050 5.35
222562.924 5.47
223138.794 5.38
223717.302 5.33
224297.851 4.76
225466.042 3.76
227235.421 4.00
229025.423 3.91
230836.912 3.71
232669.860 3.79
234524.786 3.42
236402.109 3.38
238301.724 2.97
240224.733 3.16
242170.929 3.04
244140.803 2.79
246134.862 2.78
248153.299 2.56
250196.918 2.32
252265.930 2.15
254360.556 2.29
255064.487 2.75
255771.428 3.08
256481.349 4.25
257194.295 2.84
258628.994 2.00
260803.297 2.00
263005.480 1.70
265235.483 1.66
267494.097 2.13
269781.857 1.99
272098.734 2.36
274445.727 3.23
276823.475 4.84
279231.861 6.52
281672.105 6.89
284144.103 6.50
286649.227 6.31
289187.490 5.88
291759.490 5.79
294365.972 5.02
297007.739 5.21
299684.986 4.60
302398.726 4.64
305149.227 4.94
307937.860 4.90
308875.858 4.91
309818.223 5.03
310764.849 5.36
311715.736 5.66
312670.856 6.09
313630.610 5.89
314594.730 5.38
315563.365 5.06
316536.366 4.32
319482.982 4.10
322470.352 3.90
325500.354 3.41
328572.720 3.17
331689.223 3.28
334850.490 3.09
338056.474 2.88
341309.234 2.78
344609.096 2.87
347956.717 3.04
351353.853 2.92
354800.477 2.90
358298.480 3.48
359475.970 3.74
360659.226 4.37
361848.354 5.08
363043.606 5.48
364244.103 7.57
365450.978 7.32
366663.977 7.45
367882.981 6.56
369108.110 5.59
370339.363 5.25
371576.726 4.80
372820.481 4.57
374069.854 4.55
375326.111 4.04
376588.478 2.95
377857.357 2.21
379132.717 1.99
380414.485 1.82
381702.855 1.62
382997.602 2.44
384298.741 2.63
385606.735 4.22
386921.614 4.00
388242.974 3.61
389571.234 3.46
390906.482 3.36
392248.347 3.31
393597.364 3.44
394952.729 3.23
396315.604 3.04
397685.736 2.96
399062.603 3.36
400446.981 3.16
401838.481 3.43
403237.104 3.50
404643.222 3.95
406056.106 4.46
407477.095 4.58
408905.223 4.68
410341.098 4.97
411784.589 5.69
413235.604 6.25
414694.219 5.64
416160.717 5.68
417634.472 5.50
419116.467 4.96
ENDDATA            434
ENDSUBENT          441
ENDENTRY             4
