ENTRY            10511   20040427   20040517
SUBENT        10511001   20040427   20040517
BIB                 11         14
INSTITUTE  (1USADKE,1USATNL)
REFERENCE  (J,AP,89,284,1975)
AUTHOR     (J.G.Malan,W.F.E.Pineo,M.Divadeenam,B.H.Choi,
           E.G.Bilpuch,H.W.Newson)
TITLE      s- and p-wave neutron spectroscopy. Xc. Intermediate
            structure: 88Sr
FACILITY   (VDG,1USATNL) Van-de-Graaff.
INC-SOURCE (P-LI7) Protons on LiF targets.
SAMPLE     Sample thickness 0.084 atoms/b.
CORRECTION Not corrected for background (estimated small).
ERR-ANALYS No information on uncertainties.
STATUS     (APRVD) Approved by M.Divadeenam 1978/3/1
HISTORY    (19780119C)
           (20040427A) Updated to new date formats, lower case.
ENDBIB              14
NOCOMMON             0          0
ENDSUBENT           17
SUBENT        10511002   20040427   20040517
BIB                  1          1
REACTION   (38-SR-0(N,TOT),,SIG)
ENDBIB               1
NOCOMMON             0          0
DATA                 2       1737
EN         DATA
KEV        B
  75.0        8.458
  75.9        8.997
  76.8        9.283
  77.8        8.297
  78.7        8.700
  79.6        8.787
  80.5        8.278
  81.4        9.116
  82.3        8.307
  83.2        8.055
  84.1        8.411
  85.0        7.685
  85.9        8.191
  86.7        8.083
  87.6        8.280
  88.5        8.413
  89.3        7.657
  90.2        7.342
  91.0        8.373
  91.9       10.158
  92.7        8.507
  93.5        6.690
  94.4        8.750
  95.2       12.390
  96.0       13.995
  96.8       14.291
  97.7       13.716
  98.5       15.717
  99.3       14.029
 100.1       12.426
 100.9       10.977
 101.7       11.237
 102.5       10.418
 103.3        9.534
 104.1        9.218
 104.8        9.391
 105.6        8.770
 105.6        8.694
 105.9        9.553
 106.3        9.135
 106.4        8.879
 106.6        8.623
 106.9        8.531
 107.2        8.428
 107.2        8.351
 107.5        7.735
 107.8        7.659
 108.0        7.390
 108.1        8.101
 108.4        7.485
 108.7        9.500
 108.7        8.554
 109.0        9.622
 109.4       10.008
 109.5       10.425
 109.7        9.933
 110.0       10.872
 110.3       10.436
 110.3       10.526
 110.6       10.992
 110.9       10.455
 111.0       10.271
 111.2       10.772
 111.5       10.789
 111.8       10.888
 111.8       10.685
 112.6       11.969
 112.6       12.707
 113.3       12.885
 114.1       11.418
 114.8        9.654
 115.6       10.375
 116.3        9.253
 117.1        9.999
 117.8        9.380
 118.6        9.723
 119.3       10.288
 120.1        9.528
 120.8        9.911
 121.5       10.817
 122.3       11.767
 123.0       12.706
 123.7       15.366
 124.5       20.701
 125.2       23.435
 125.9       22.302
 126.6       19.907
 127.4       15.987
 128.1       12.477
 128.8       12.269
 129.5       11.000
 130.2       10.644
 131.0        9.837
 131.7        9.171
 132.4        9.471
 133.1        9.103
 133.8        9.123
 134.5        9.376
 135.2        8.959
 135.9        8.796
 136.6        8.730
 137.3        8.446
 138.0        8.167
 138.7        8.043
 139.4        8.412
 140.1        8.218
 140.8        7.943
 141.5        7.840
 142.2        7.725
 142.9        6.666
 143.6        6.767
 144.3        8.279
 145.0        9.679
 145.7       10.415
 146.4       10.070
 147.0       10.208
 147.7        9.666
 148.4        9.509
 149.1        9.270
 149.8        9.372
 150.5        9.647
 151.1       10.074
 151.8       10.953
 151.8       11.379
 152.5       13.948
 153.2       17.156
 153.8       16.210
 154.5       13.917
 155.2       12.453
 155.9       14.505
 156.5       14.986
 157.2       11.819
 157.9       11.216
 158.5       10.121
 158.9        8.909
 159.2        9.514
 159.6        8.303
 159.9        8.895
 160.2        8.633
 160.5        8.671
 160.9        8.781
 161.2        8.215
 161.6        8.384
 161.9        8.061
 162.3        8.692
 162.5        9.053
 163.0        8.807
 163.2        8.635
 163.6        8.584
 163.9        8.357
 164.3        8.233
 164.5        8.397
 165.0        8.589
 165.2        8.356
 165.6        8.472
 166.3        8.478
 167.0        8.822
 167.7        8.187
 168.3        8.044
 169.0        8.178
 169.7        8.032
 170.3        8.095
 171.0        8.965
 171.7        9.911
 172.3       13.384
 173.0       11.820
 173.7        9.596
 174.3        9.224
 175.0        8.404
 175.7        8.056
 176.3        8.169
 177.0        8.065
 177.6        7.854
 178.3        8.211
 179.0        8.130
 179.6        8.293
 180.3        8.268
 180.9        8.210
 181.6        7.835
 182.2        7.831
 182.9        9.051
 183.6        8.990
 184.2        8.710
 184.9        8.314
 185.5        8.328
 186.2        8.479
 186.8        8.963
 187.5        8.638
 188.1        8.423
 188.8        8.712
 189.4        8.474
 190.1        8.244
 190.7        7.987
 191.4        7.899
 192.0        8.726
 192.6        8.244
 193.3        8.776
 193.9        8.941
 194.6        9.560
 195.2       10.171
 195.9       12.598
 196.5       17.146
 197.2       19.769
 197.8       15.113
 198.4       12.106
 199.1        9.962
 199.7        9.611
 200.4        8.833
 201.0        8.491
 201.6        9.246
 202.3       11.756
 202.9       10.416
 203.1       11.255
 203.5        8.813
 203.8        8.872
 204.2        8.516
 204.4        8.750
 204.8        8.541
 205.0        8.485
 205.5        8.941
 205.6        8.967
 206.1        9.255
 206.3        9.431
 206.7        8.352
 206.9        9.468
 207.4        7.907
 207.5        8.259
 208.1        7.793
 208.8        7.641
 209.4        7.853
 210.0        7.831
 210.6        7.617
 211.3        7.872
 211.9        7.764
 212.5        8.103
 213.1        7.981
 213.7        7.905
 214.4        8.062
 215.0        8.884
 215.6       11.372
 216.2       14.646
 216.8       12.673
 217.5        9.806
 218.1        8.611
 218.7        7.840
 219.3        7.830
 219.9        7.367
 220.5        7.479
 221.2        7.142
 221.8        7.461
 222.4        7.534
 223.0        7.402
 223.6        7.193
 224.2        7.185
 224.8        7.284
 225.5        7.532
 226.1        7.513
 226.7        7.937
 227.3        7.493
 227.9        8.291
 228.5        8.747
 229.1       10.344
 229.7       15.087
 230.4       16.315
 231.0       11.172
 231.6        7.588
 232.2        9.655
 232.8       11.332
 233.4       11.853
 234.0       10.997
 234.6       10.430
 235.2       10.466
 235.8       10.019
 236.4        9.499
 237.0        9.554
 237.6       10.292
 238.3        9.110
 238.9        9.214
 239.5        8.953
 240.1        9.223
 240.7        8.675
 241.3        9.041
 241.9        9.001
 242.5        9.718
 243.1        9.456
 243.7        9.325
 244.3       10.074
 244.9        9.715
 245.5       10.188
 245.5       10.618
 246.1       11.051
 246.7       12.046
 247.3       14.135
 247.9       17.332
 248.5       19.214
 249.1       18.006
 249.7       14.241
 250.3       12.060
 250.9        9.822
 251.5        9.155
 252.1        8.413
 252.7        8.885
 253.3        8.656
 253.9        8.174
 254.5        8.164
 255.1        7.989
 255.7        7.889
 256.3        7.359
 256.9        7.018
 257.5        7.154
 258.1        6.705
 258.7        6.396
 259.3        5.903
 259.9        7.652
 259.9        7.658
 260.5        8.722
 261.1        9.256
 261.6        8.878
 262.2        9.083
 262.6        9.184
 262.8        9.139
 263.2        9.226
 263.4        9.238
 263.8        9.221
 264.0        9.649
 264.5        9.947
 264.6        9.092
 265.1        9.380
 265.2        8.649
 265.7        8.405
 265.8        8.610
 266.3        9.136
 266.4        9.581
 267.0        9.779
 267.0        9.322
 267.6        9.205
 267.6        9.940
 267.6        9.807
 268.2        9.541
 268.2       10.596
 268.8        9.901
 268.8       10.176
 269.4        9.521
 269.4        9.630
 269.9        9.915
 270.1        9.840
 270.5       10.180
 270.7       10.012
 271.1       10.255
 271.3       10.306
 271.7       10.169
 271.9       10.304
 272.3       10.266
 272.5       10.243
 272.9       10.640
 273.1        9.687
 273.5       10.438
 273.8       10.283
 274.1        9.752
 274.4       10.251
 274.7       10.545
 275.0       10.386
 275.3       10.922
 275.6       10.212
 275.8       10.959
 276.2       10.354
 276.8       10.196
 277.5       10.452
 277.5       12.211
 278.1       11.039
 278.1       11.791
 278.7       11.367
 278.7       11.754
 278.7       11.091
 279.2       12.379
 279.3       11.049
 279.3       11.771
 279.7       11.874
 279.9       11.333
 279.9       12.535
 280.3       11.671
 280.5       12.456
 280.5       12.417
 280.5       13.263
 280.9       11.250
 281.2       12.357
 281.2       11.834
 281.2       12.541
 281.4       11.043
 281.8       12.226
 281.8       11.572
 281.8       13.175
 282.0       11.598
 282.4       12.979
 282.4       12.075
 282.4       13.202
 282.6       12.481
 283.0       12.995
 283.0       12.891
 283.0       13.999
 283.1       12.363
 283.6       12.816
 283.6       12.203
 283.6       14.287
 283.7       13.463
 284.2       13.273
 284.2       13.832
 284.2       12.898
 284.2       14.471
 284.8       13.598
 284.8       13.861
 285.4       14.829
 285.5       13.186
 285.9       15.065
 286.1       14.164
 286.5       15.472
 286.7       15.198
 287.0       16.093
 287.3       16.363
 287.6       16.947
 287.9       17.223
 288.2       17.154
 288.5       16.936
 288.7       17.671
 289.1       17.699
 289.3        8.665
 289.3       18.909
 289.7       18.567
 289.8       19.803
 290.4       19.046
 290.4       19.969
 291.0       19.669
 291.0       20.851
 291.5       21.672
 291.6       20.060
 292.1       20.936
 292.2       20.697
 292.6       21.363
 292.8       21.234
 293.2       21.123
 293.4       20.785
 293.8       20.885
 294.0       20.587
 294.3       20.361
 294.6       20.363
 294.9       18.783
 295.2       19.221
 295.4       18.487
 296.0       17.432
 296.5       15.497
 297.1       14.671
 297.7       14.255
 298.2       12.229
 298.8       11.705
 299.3       11.175
 299.9       10.396
 300.4        9.373
 301.0        9.128
 301.5        7.889
 302.1        8.132
 302.7        6.741
 303.1        7.716
 303.2        7.610
 303.7       12.806
 303.8       11.141
 304.3       14.929
 304.3       15.394
 304.9       15.529
 304.9       15.349
 305.4       14.251
 305.5       13.570
 306.0       12.195
 306.1       11.920
 306.5       10.609
 306.5       10.811
 306.6       10.675
 307.1        9.859
 307.2       10.359
 307.6        9.417
 307.8        8.792
 308.4        9.344
 309.0        9.295
 309.5        9.148
 310.1        8.094
 310.7        8.084
 311.3        7.468
 311.9        7.733
 312.4        7.529
 313.0        7.251
 313.6        7.971
 314.2        7.813
 314.8        7.931
 315.3        8.400
 315.9        8.277
 316.5        8.183
 317.1        8.259
 317.6        8.960
 318.2        9.169
 318.8        9.162
 318.8        8.861
 319.4        9.559
 319.4        9.979
 320.0       10.640
 320.0        9.981
 320.5       10.126
 320.5       10.563
 321.1       11.615
 321.7       12.502
 322.3       13.552
 322.8       14.080
 323.4       15.520
 324.0       17.177
 324.6       17.659
 325.1       18.000
 325.7       18.784
 326.3       19.626
 326.9       19.061
 327.5       19.979
 328.0       20.034
 328.6       20.246
 329.2       19.273
 329.8       19.428
 330.3       19.430
 330.9       18.853
 331.5       17.842
 332.0       17.366
 332.6       16.551
 333.2       14.881
 333.8       14.409
 334.3       14.353
 334.9       13.305
 335.5       13.270
 335.6       11.984
 336.1       12.409
 336.1       11.420
 336.6       11.309
 336.7       11.140
 337.2       10.957
 337.2       11.211
 337.8       11.016
 337.8       11.006
 338.4       10.946
 338.4        9.927
 338.9        9.854
 338.9        9.668
 339.5        9.696
 339.5        9.454
 340.1        8.799
 340.1        9.077
 340.6        8.288
 340.6        8.431
 341.2        7.689
 341.2        8.380
 341.8        8.371
 341.8        8.165
 342.3       14.072
 342.3        7.658
 342.9       14.966
 342.9        7.652
 343.4        8.106
 344.0        9.079
 344.6       10.914
 345.1       13.911
 345.7       15.474
 346.3       15.064
 346.8       14.191
 346.8       13.395
 347.4       13.008
 347.4       11.759
 348.0       12.509
 348.0       12.473
 348.5       12.149
 348.5       12.415
 349.1       11.717
 349.1       11.607
 349.6       11.442
 349.6       11.151
 350.2       10.691
 350.2       10.072
 350.8        9.823
 350.8       10.454
 351.3        9.816
 351.3       10.317
 351.9       10.098
 351.9       10.123
 352.4        9.571
 352.4        9.282
 353.0        8.794
 353.0        8.905
 353.6        9.048
 353.6        8.781
 354.1        9.231
 354.1        9.615
 354.7        9.363
 354.7        9.734
 355.2       10.180
 355.2       10.348
 355.8        9.873
 355.8        9.992
 356.4        8.980
 356.4        8.883
 356.9        8.717
 356.9        8.579
 356.9        8.518
 357.5        8.838
 357.5        7.949
 358.0        8.303
 358.0        7.760
 358.0        8.103
 358.6        8.048
 358.6        8.101
 358.6        7.918
 358.6        7.970
 359.2        7.559
 359.2        7.893
 359.2        8.356
 359.2        7.818
 359.7        8.840
 359.7        7.919
 360.3        8.248
 360.3        7.872
 360.4        8.928
 360.8        8.472
 360.8        8.027
 360.9        7.976
 361.4        7.580
 361.5        8.125
 362.0        7.315
 362.0        7.816
 362.5        7.283
 362.6        6.915
 363.1        7.483
 363.2        7.198
 363.6        7.263
 363.7        7.136
 364.3        7.280
 364.9        8.613
 365.4       10.930
 366.0       10.910
 366.6       10.158
 367.1        9.169
 367.7        8.623
 368.3        8.486
 368.8        8.997
 369.4        9.025
 369.9        8.136
 370.5        7.763
 371.1        7.580
 371.6        7.221
 372.2        7.766
 372.8        7.645
 373.3        7.368
 373.9        7.603
 374.4        7.821
 375.0        7.313
 375.6        7.381
 376.1        6.985
 376.7        7.309
 377.3        7.029
 377.8        7.202
 378.4        7.987
 378.9        7.761
 379.5        8.069
 380.1        7.956
 380.6        7.913
 381.2        7.609
 381.7        8.104
 382.3        8.590
 382.3        8.826
 382.9        9.878
 382.9        9.828
 383.4        9.326
 383.4        8.930
 384.0        8.902
 384.0        9.055
 384.5        8.521
 384.5        8.445
 385.1        9.397
 385.7       11.473
 386.2       13.898
 386.8       14.754
 387.3       15.211
 387.9       14.065
 388.5       13.073
 389.0       11.123
 389.6        9.764
 390.1        9.191
 390.7        9.074
 391.3        8.678
 391.5        8.866
 391.8        7.954
 392.1        8.393
 392.4        7.403
 392.6        8.087
 392.9        8.032
 393.2        8.000
 393.5        7.939
 393.8        8.503
 394.1        8.090
 394.3        8.016
 394.6        7.900
 394.9        8.050
 395.2        7.745
 395.4        8.085
 395.7        8.313
 396.0        7.969
 396.3        8.385
 396.6        8.089
 396.8        7.610
 397.4        8.322
 397.7        8.759
 398.0        8.463
 398.5        7.831
 398.8        9.039
 399.1        8.294
 399.6        8.810
 399.9        8.591
 400.2        8.926
 400.7       10.380
 401.3       10.147
 401.9       10.576
 402.1       10.341
 402.4       10.465
 402.7       10.836
 403.0       11.004
 403.2       11.881
 403.5       11.342
 403.8       12.263
 404.1       11.902
 404.4       12.243
 404.6       12.143
 404.9       12.732
 405.2       12.389
 405.5       11.720
 405.8       12.236
 406.0       11.978
 406.6       11.605
 407.1       10.669
 407.7       10.618
 408.3        9.721
 408.8        9.238
 409.4        9.171
 409.9        9.837
 410.5        9.693
 411.0        9.252
 411.6        8.818
 412.1        7.308
 412.7        7.214
 413.3        7.523
 413.8        6.913
 414.4        7.334
 414.9        7.260
 415.5        6.808
 416.0        7.444
 416.0        6.438
 416.6        6.373
 416.6        6.901
 417.1        6.615
 417.1        6.359
 417.7        6.961
 418.3        6.040
 418.8        5.772
 419.4        5.764
 419.9        6.636
 420.5        7.229
 421.0        7.864
 421.6        8.269
 422.1        9.412
 422.7       11.613
 423.2       12.765
 423.8       12.505
 424.3       10.781
 424.9        9.948
 425.5        8.858
 426.0        9.121
 426.6        8.602
 427.1        8.608
 427.7        8.674
 428.2        8.436
 428.8        8.276
 429.3        8.328
 429.9        8.531
 430.4        9.265
 431.0       11.022
 431.5       10.521
 432.1        9.374
 432.6        8.347
 433.2        8.166
 433.7        8.674
 434.3        8.390
 434.8        8.232
 435.4        8.535
 436.0        9.076
 436.5       10.247
 437.1       10.974
 437.6       11.300
 438.2       10.823
 438.7       11.335
 439.3       11.258
 439.8       11.386
 440.4       12.425
 440.9       13.121
 441.5       12.715
 442.0       14.091
 442.6       15.813
 443.1       16.976
 443.7       17.440
 444.2       17.227
 444.8       16.589
 445.3       15.578
 445.9       14.634
 446.4       14.408
 447.0       13.302
 447.5       12.989
 448.1       11.642
 448.6       10.868
 449.2        9.986
 449.7        9.651
 450.3        8.822
 450.8        8.216
 451.4        8.171
 451.9        7.708
 452.5        7.727
 453.0        7.825
 453.6        7.528
 454.1        7.747
 454.7        7.120
 455.2        6.692
 455.8        6.996
 456.3        7.000
 456.9        6.974
 457.4        7.279
 458.0        7.021
 458.5        6.750
 459.1        7.167
 459.6        7.285
 460.2        7.413
 460.7        7.075
 461.2        7.232
 461.8        6.589
 462.3        6.905
 462.9        6.793
 463.4        7.166
 464.0        6.741
 464.5        6.996
 465.1        6.670
 465.6        7.020
 466.2        6.791
 466.7        6.811
 467.3        6.887
 467.8        6.562
 467.8        6.782
 467.8        6.648
 468.4        7.080
 468.4        6.473
 468.9        6.917
 469.5        7.131
 470.0        7.767
 470.6        8.384
 471.1        7.761
 471.6        7.796
 472.2        7.175
 472.7        7.651
 473.3        7.783
 473.8        7.350
 474.4        7.911
 474.9        7.866
 474.9        7.819
 475.4        8.770
 475.5        8.273
 476.0        9.887
 476.0        9.789
 476.5        8.630
 476.6        8.999
 477.1        7.896
 477.1        7.576
 477.6        6.736
 478.1        6.096
 478.7        6.649
 479.2        7.370
 479.7        7.331
 480.3        7.707
 480.8        7.745
 481.3        7.773
 481.9        8.353
 482.4        8.080
 483.0        8.532
 483.5        8.234
 484.0        8.163
 484.6        8.353
 485.1        8.713
 485.6        9.106
 486.2        9.745
 486.7       10.395
 487.2       11.355
 487.8       12.435
 488.3       13.873
 488.8       12.906
 489.4       11.001
 489.9        6.4267
 490.4        9.615
 491.0        8.549
 491.5        9.077
 492.0        9.612
 492.6       10.186
 493.1       12.028
 493.7       13.013
 494.2       12.771
 494.7       11.103
 495.3        9.801
 495.8        9.531
 496.3        7.985
 496.9        8.071
 497.4        8.226
 497.9        8.335
 498.5        8.403
 499.0        8.462
 499.5        9.016
 500.1        8.999
 500.6        9.397
 501.1        9.367
 501.7       10.032
 502.2       11.181
 502.7       12.089
 503.3       13.238
 503.8       12.578
 503.8       12.187
 503.8       12.965
 504.3       11.056
 504.9       10.448
 505.4       10.317
 505.9       10.211
 506.5       10.494
 507.0       11.060
 507.5       11.379
 508.1       10.793
 508.6       10.329
 509.1        9.639
 509.7        9.729
 510.2        9.645
 510.7        9.570
 511.3       10.138
 511.8        9.878
 512.3       10.917
 512.9       10.643
 513.4       10.899
 513.9       11.361
 514.5       12.111
 515.0       12.370
 515.5       12.700
 516.0       12.450
 516.6       12.531
 517.1       12.894
 517.6       14.530
 518.2       15.458
 518.7       15.675
 519.2       16.049
 519.8       16.950
 520.3       17.409
 520.8       18.019
 521.4       18.690
 521.9       19.505
 522.4       19.761
 523.0       20.244
 523.5       19.904
 524.0       19.852
 524.6       19.572
 525.1       19.966
 525.6       19.094
 526.1       18.784
 526.7       18.412
 527.2       17.104
 527.7       16.980
 528.3       15.431
 528.8       14.599
 529.3       14.996
 529.9       13.901
 530.4       13.230
 530.9       12.571
 531.5       12.135
 532.0       11.630
 532.5       10.862
 533.0       11.423
 533.6       10.839
 533.6       10.539
 534.1       10.457
 534.6        9.743
 534.6        9.944
 535.2       10.353
 535.7       12.019
 535.7       12.514
 536.2       13.986
 536.8       14.878
 536.8       14.580
 537.3       14.213
 537.8       13.639
 538.3       13.011
 538.9       12.341
 539.4       11.826
 539.9       11.669
 540.5       10.935
 541.0       10.966
 541.5       10.787
 542.0       11.859
 542.6       12.535
 542.6       13.669
 543.1       14.489
 543.6       13.871
 544.2       12.143
 544.7       12.068
 545.2       11.085
 545.7       12.549
 545.8       11.412
 546.3       12.672
 546.3       12.829
 546.8       12.165
 546.8       12.868
 547.3       11.369
 547.3       11.071
 547.9       10.506
 547.9       10.229
 548.4       10.028
 548.4        9.442
 548.9        8.846
 548.9        8.655
 549.5        8.123
 549.5        8.191
 550.0        8.061
 550.0        7.564
 550.5        7.206
 550.5        7.581
 551.0        6.732
 551.1        7.262
 551.6        7.129
 551.6        7.211
 552.1        7.622
 552.1        7.661
 552.6        8.044
 552.7        8.992
 553.2        9.852
 553.2       11.270
 553.7       10.061
 553.8       10.747
 554.2       10.091
 554.3        9.924
 554.7        8.483
 554.8        8.434
 555.3        7.760
 555.4        7.688
 555.8        7.006
 555.9        7.453
 556.3        6.821
 556.4        7.193
 556.9        7.061
 557.0        7.483
 557.5        7.069
 558.0        7.153
 558.6        6.866
 559.1        7.348
 559.6        8.142
 560.2        8.239
 560.7        8.556
 561.2        9.944
 561.8       10.223
 562.3       11.266
 562.8       12.294
 563.4       13.063
 563.9       13.170
 564.4       14.660
 565.0       14.634
 565.5       14.042
 566.1       14.255
 566.6       14.419
 567.1       12.292
 567.7       11.291
 568.2       10.464
 568.7        9.800
 569.3        9.499
 569.8        9.134
 570.3        9.173
 570.9        9.048
 571.4       11.063
 571.9       11.488
 572.5       10.142
 573.0        8.364
 573.5        8.109
 574.1        6.922
 574.6        8.209
 575.1        8.423
 575.7        7.270
 576.2        6.803
 576.7        6.348
 576.7        5.785
 577.3        6.784
 577.3        7.685
 577.8        6.403
 577.8        6.112
 578.3        6.923
 578.9        7.157
 579.4        7.793
 579.9        8.334
 580.5        8.876
 581.0       10.214
 581.5       10.621
 582.1       11.272
 582.6       10.331
 583.1        7.098
 583.7        5.437
 584.2        4.292
 584.7        4.329
 585.3        6.056
 585.8        7.802
 586.3        8.587
 586.9       10.183
 587.4       10.746
 587.9       11.698
 588.4       12.320
 589.0       12.849
 589.5       14.077
 590.0       14.576
 590.6       14.698
 591.1       14.733
 591.6       15.337
 592.2       15.384
 592.7       14.935
 593.2       15.361
 593.8       14.841
 594.3       14.227
 594.8       13.969
 595.4       13.499
 595.9       13.595
 596.4       13.570
 597.0       12.485
 597.5       12.043
 598.0       11.868
 598.6       11.458
 599.1       11.407
 599.6       10.846
 600.2       10.488
 600.7       10.909
 601.2       10.681
 601.7        9.684
 602.3        9.735
 602.8        9.726
 603.3        9.370
 603.9        8.546
 604.4        8.767
 604.9        8.532
 605.5        8.842
 606.0        8.885
 606.5        8.081
 607.1        8.360
 607.6        8.553
 608.1        7.834
 608.6        8.338
 609.2        7.696
 609.7        7.405
 609.7        7.390
 610.2        8.027
 610.3        7.351
 610.8        7.931
 610.8        8.086
 611.3        7.583
 611.3        7.921
 611.8        8.257
 611.9        7.721
 612.4        8.169
 612.4        7.645
 612.9        7.681
 612.9        7.749
 613.4        8.230
 613.4        7.112
 614.0        7.331
 614.0        7.529
 614.5        6.783
 614.5        7.249
 615.0        6.732
 615.0        6.602
 615.5        6.860
 616.1        8.412
 616.6        8.287
 617.1        9.708
 617.6        9.408
 618.2        9.684
 618.7       10.471
 619.2        9.973
 619.8        9.262
 620.8        7.533
 621.3        7.602
 621.9        7.738
 622.4        7.406
 622.9        7.648
 623.4        7.917
 624.0        7.759
 624.5        7.395
 625.0        6.712
 625.5        6.438
 626.1        6.695
 626.6        6.585
 627.1        7.390
 627.6        7.716
 628.2        7.539
 628.7        7.058
 629.2        6.530
 629.7        6.061
 630.3        6.138
 630.8        6.209
 631.3        6.154
 631.8        6.048
 632.4        5.371
 632.9        5.487
 633.4        6.709
 633.9        7.281
 634.5        6.881
 635.0        7.088
 635.5        7.393
 636.0        8.223
 636.6        8.173
 637.1        8.919
 637.6        9.039
 638.1       10.303
 638.7       11.244
 639.2       11.686
 639.7       12.339
 640.2       13.196
 640.8       13.244
 641.3       13.217
 641.8       12.301
 642.3       12.006
 642.9       11.390
 643.4       11.271
 643.9       11.063
 644.4        9.499
 645.0        8.662
 645.5        8.015
 646.0        8.118
 646.5        7.418
 647.1        7.273
 647.6        6.695
 648.1        6.397
 648.6        6.118
 649.2        6.560
 649.7        6.048
 650.2        5.991
 650.7        5.973
 651.3        5.799
 651.8        6.103
 652.3        6.077
 652.8        6.326
 653.3        6.492
 653.9        6.273
 654.4        6.052
 654.9        6.386
 655.4        5.823
 656.0        6.092
 656.5        6.193
 657.0        6.480
 657.5        6.476
 658.1        6.327
 658.6        6.664
 659.1        7.151
 659.6        8.025
 660.2        7.993
 660.7        8.489
 661.2        8.870
 661.7        9.862
 662.3       10.310
 662.8        8.640
 663.3        8.403
 663.8        8.282
 664.3        8.844
 664.9        9.641
 665.4       10.014
 665.9       10.493
 666.4       11.471
 667.0       11.884
 667.5       12.185
 668.0       12.239
 668.5       12.355
 669.1       12.327
 669.6       11.565
 670.1       10.048
 670.6        9.343
 671.1        9.807
 671.7        8.754
 672.2        8.673
 672.7        8.326
 673.2        7.866
 673.8        7.484
 674.3        7.652
 674.8        6.995
 675.3        7.045
 675.8        7.050
 676.4        7.496
 676.9        6.858
 677.4        7.599
 677.9        7.664
 678.5        8.968
 679.0        9.699
 679.5        9.539
 680.0       10.407
 680.5       11.793
 681.1       12.235
 681.6       12.517
 682.1       11.922
 682.6       11.430
 683.2       11.357
 683.7       11.054
 684.2       10.148
 684.2        9.588
 685.2        9.593
 685.8        8.425
 686.3        8.224
 686.8        7.602
 687.3        7.791
 687.9        7.572
 688.4        7.374
 688.9        7.652
 689.4        6.720
 689.9        6.947
 690.5        7.385
 691.0        7.214
 691.5        7.305
 692.0        7.703
 692.5        8.276
 693.1        8.204
 693.6        8.538
 694.1        8.767
 694.6        9.751
 695.2        9.586
 695.7        9.256
 695.7        9.591
 696.2        9.608
 696.7        9.583
 697.2       10.594
 697.8       11.399
 697.8       11.917
 698.3       12.739
 698.3       12.914
 698.8       13.079
 698.8       13.844
 699.3       13.191
 699.3       13.825
 699.8       13.054
 699.8       13.809
 700.4       11.028
 700.4       11.753
 700.9       10.564
 700.9       10.480
 701.4       10.208
 701.4       10.141
 701.9        9.510
 701.9        9.914
 702.5        9.020
 702.5        9.252
 703.0        8.908
 703.0        8.981
 703.5        9.053
 704.0        8.657
 704.5        9.129
 705.1        9.195
 705.6        9.763
 706.1       10.660
 706.6       10.651
 707.1       10.622
 707.7       11.025
 708.2       11.554
 708.7       11.923
 709.2       11.503
 709.7       11.260
 710.3       10.745
 710.8        9.252
 711.3        8.118
 711.8        7.851
 712.3        7.199
 712.9        6.851
 713.4        7.060
 713.9        7.234
 714.4        7.517
 714.4        7.518
 714.9        7.831
 715.5        7.832
 716.0        8.468
 716.5        8.684
 717.0        8.404
 717.5        9.430
 718.1        9.380
 718.6        9.379
 719.1        9.216
 719.6        9.217
 720.1        8.859
 720.7        9.003
 721.2        8.862
 721.7        9.539
 722.2       10.564
 722.7       11.360
 723.3       10.566
 723.8        9.539
 724.3        8.848
 724.8        7.834
 725.3        7.266
 725.9        7.729
 726.4        7.721
 726.4        7.545
 726.9        7.872
 727.4        7.713
 727.9        8.200
 728.5        8.414
 729.0        8.203
 729.5        8.891
 730.0        9.353
 730.5       10.147
 731.1       10.834
 731.6       11.513
 732.1       12.156
 732.6       11.402
 733.1       10.826
 733.7        9.958
 734.2        8.476
 734.7        7.752
 735.2        7.215
 735.7        6.779
 736.3        6.603
 736.8        6.621
 737.3        6.908
 737.3        6.221
 737.8        6.683
 737.8        6.846
 738.3        7.509
 738.3        7.538
 738.9        9.226
 738.9        9.176
 739.4        9.969
 739.9       11.046
 740.4        9.989
 740.9        9.063
 741.4        7.696
 742.0        6.843
 742.5        5.278
 743.0        4.758
 743.0        4.936
 743.5        5.093
 743.5        4.709
 744.0        4.827
 744.0        4.732
 744.6        5.177
 744.6        5.131
 745.1        6.093
 745.6        5.789
 746.1        6.546
 746.6        6.529
 747.2        6.723
 747.7        6.709
 748.2        7.499
 748.7        6.971
 749.2        7.438
 749.7        7.798
 750.3        8.139
 750.8        8.020
 751.3        7.611
 751.8        8.503
 752.3        8.128
 752.9        8.935
 753.4        8.788
 753.9       10.184
 754.4       10.324
 754.9       11.189
 755.4       11.106
 756.0       10.364
 756.5        9.340
 757.0        8.284
 757.5        7.455
 758.0        7.281
 758.6        6.939
 759.6        7.306
 760.1        7.172
 760.6        7.862
 761.1        8.558
 761.7        8.468
 762.2        9.026
 762.7        8.723
 763.2        8.135
 763.7        8.189
 764.3        8.978
 764.8       10.236
 765.3       10.566
 765.8       10.487
 766.3       11.387
 766.8       11.734
 767.4       12.025
 767.9       11.580
 768.4       11.166
 768.9       11.101
 769.4        9.978
 769.9        8.989
 770.5        7.625
 771.0        7.077
 771.0        7.202
 771.5        7.159
 771.5        7.037
 772.0        8.319
 772.1        8.373
 772.5        7.852
 772.6        8.691
 773.1        8.979
 773.1        8.734
 773.6       10.390
 773.6       10.506
 774.1       11.566
 774.1       11.558
 774.6       11.689
 774.7       12.380
 775.1       11.986
 775.2       11.946
 775.6       11.893
 775.7       11.829
 776.2       11.198
 776.2       11.836
 776.7       11.538
 776.8       11.564
 777.2       11.229
 777.3       11.435
 777.7       10.540
 777.8       11.358
 778.2        9.454
 778.3        9.914
 778.7        8.682
 778.9        8.071
 779.3        8.732
 779.4        8.334
 779.9        9.213
 780.4        9.924
 781.0        9.409
 781.5        8.570
 782.0        8.303
 782.5        7.581
 783.1        7.621
 783.6        8.496
 784.1        8.845
 784.6       10.312
 785.2       11.057
 785.7       11.977
 786.2       11.979
 786.7       11.780
 787.3       11.766
 787.8       11.484
 788.3       11.080
 788.8        9.586
 789.4        8.985
 789.9        7.472
 790.4        6.734
 790.9        6.014
 791.5        6.263
 792.0        6.471
 792.5        7.584
 793.0        8.692
 793.5        9.996
 794.1       10.858
 794.6       11.775
 795.1       11.739
 795.6       11.600
 796.2       11.466
 796.7       11.513
 797.2       11.360
 797.7       12.267
 798.3       12.386
 798.8       12.002
 799.3       11.213
 799.8       10.607
 800.4       10.882
 800.9        9.743
 801.4       10.564
 801.9        9.411
 801.9       11.007
 801.9        9.627
 801.9        9.686
 802.4        9.225
 802.5        9.503
 803.0        8.550
 803.0        8.169
 803.5        8.649
 803.5        8.547
 804.0        8.269
 804.0        8.409
 804.5        7.783
 804.5        8.251
 805.0        7.222
 805.1        7.326
 805.6        7.101
 805.6        6.660
 806.1        6.714
 806.1        6.848
 806.6        7.339
 806.6        6.898
 807.1        6.859
 807.6        6.905
 808.2        7.073
 808.7        7.290
 809.2        6.745
 809.7        5.825
 810.2        5.729
 810.8        6.019
 811.3        5.312
 811.8        6.051
 812.3        6.923
 812.8        8.392
 813.4        8.101
 813.9        9.222
 814.4        8.578
 814.9        7.114
 815.4        7.635
 815.9        6.647
 816.5        6.307
 817.0        5.776
 817.5        6.230
 818.0        6.821
 818.5        7.506
 819.1        7.556
 819.6        8.391
 820.1        8.876
 820.6        9.430
 821.1        9.871
 821.7       10.071
 822.2       10.123
 822.7       10.070
 823.2       10.440
 823.7       10.675
 824.3       10.520
 824.8       10.035
 825.3        9.443
 825.8        7.639
 826.3        7.140
 826.9        8.861
 827.4        9.062
 827.4        8.804
 827.9       10.492
 828.4       10.624
 828.9        9.787
 829.5        9.973
 830.0        9.588
 830.5        8.630
 831.0        8.256
 831.5        9.284
 832.0        9.377
 832.6        9.380
 833.1        9.310
 833.6        8.763
 834.1        8.149
 834.6        5.761
 835.2        4.695
 835.2        5.762
 835.2        4.818
 835.7        4.956
 836.2        5.204
 836.7        5.932
 837.2        5.880
 837.8        5.809
 838.3        5.754
 838.8        6.100
 839.3        6.461
 839.8        6.051
 840.4        6.942
 840.9        6.322
 841.4        6.179
 841.9        6.442
 842.4        6.427
 842.9        6.338
 843.5        6.619
 844.0        6.976
 844.5        6.750
 844.5        6.822
 845.0        7.682
 845.5        7.834
 846.1        9.423
 846.6        9.966
 847.1       10.292
 847.6        9.097
 848.1        9.518
 848.1       10.233
 848.6       10.230
 849.2       10.220
 849.7        9.251
 850.2        8.478
 850.7        8.640
 851.2        8.562
 851.8        9.543
 852.3        9.977
 853.3       10.245
 853.8       10.732
 854.4       10.890
 854.9       10.492
 855.4       11.102
 855.9       10.490
 856.4       10.613
 856.9       10.787
 857.5       11.158
 858.0       10.678
 858.5       10.821
 859.0       10.725
 859.5        9.993
 860.0       10.464
 860.6        9.834
 861.1        9.314
 861.6        9.446
 862.1        9.299
 862.6        9.312
 863.2        8.828
 863.7        9.364
 864.2        9.268
 864.7        8.024
 865.2        8.220
 865.7        7.038
 866.3        6.840
 866.8        7.458
 867.3        7.463
 867.8        6.973
 868.3        6.780
 868.9        7.517
 869.4        9.606
 869.9        7.319
 870.4        7.111
 870.9        7.764
 871.4        7.561
 872.0        7.013
 872.5        7.362
 873.0        8.026
 873.5        8.218
 874.0        9.306
 874.5        8.689
 875.1        7.602
 875.6        6.781
 876.1        6.683
 876.6        7.067
 877.1        7.686
 877.7        7.850
 878.2        6.964
 878.7        6.748
ENDDATA           1739
ENDSUBENT         1745
SUBENT        10511003   20040427   20040517
BIB                  3          7
REACTION  1(38-SR-88(N,0),,EN)
          2(38-SR-88(N,0),,L)
          3(38-SR-88(N,0),,J)
          4(38-SR-88(N,EL),,WID)
          5(38-SR-88(N,EL),,WID/RED)
ANALYSIS   R-matrix analysis
HISTORY    (19830823U) Data sorted.
ENDBIB               7
NOCOMMON             0          0
DATA                 5        113
DATA      1DATA      2DATA      3DATA      4DATA      5
KEV        NO-DIM     NO-DIM     KEV        EV
  14.500    0.         0.5         0.19       1.58
  18.500    1.         0.5         0.037      8.264
  23.750    1.         0.5         0.095     14.725
  31.500    1.         0.5         0.220     22.631
  56.000    1.         0.5         0.150      6.788
  92.497    1.         0.5         0.350      7.918
  94.616    0.         0.5         0.58       1.92
  98.720    1.         0.5         0.406      8.413
 109.098    0.         0.5         0.16       0.51
 113.281    1.         0.5         0.277      4.776
 125.384    1.         0.5         2.311     34.850
 144.356    0.         0.5         0.29       0.78
 153.139    1.         0.5         1.015     11.812
 156.513    1.         1.5         0.300      3.395
 172.291    1.         0.5         0.450      4.510
 197.078    1.         1.5         0.880      7.459
 202.368    1.         0.5         0.464      3.807
 205.822    1.         0.5         0.172      1.382
 216.409    1.         1.5         0.497      3.757
 230.228    1.         1.5         1.377      9.660
 232.216    0.         0.5         2.15       4.50
 248.553    1.         1.5         1.334      8.541
 259.510    0.         0.5         0.38       0.76
 264.080    1.         0.5         0.243      1.449
 268.294    1.         1.5         0.200      1.170
 270.998    1.         1.5         0.200      1.157
 273.080    1.         0.5         0.478      2.740
 275.361    1.         0.5         0.465      2.640
 279.195    1.         0.5         0.692      3.866
 284.447    1.         0.5         0.200      1.094
 291.927    1.         1.5         8.871     47.075
 304.433    1.         1.5         1.040      5.260
 308.532    1.         0.5         0.280      1.395
 326.841    1.         1.5        10.051     46.911
 345.031    1.         1.5         1.123      4.934
 348.814    2.         1.5         0.273     12.665
 350.527    1.         1.5         0.170      0.734
 354.682    1.         1.5         0.250      1.065
 360.888    1.         0.5         0.121      0.506
 365.533    1.         1.5         0.539      2.222
 369.200    1.         1.5         0.150      0.612
 378.937    1.         1.5         0.111      0.440
 383.281    1.         0.5         1.214      4.752
 386.594    1.         1.5         1.765      6.845
 404.406    1.         0.5         8.019     29.626
 410.344    1.         1.5         0.181      0.658
 420.719    1.         0.5         0.173      0.613
 423.187    1.         1.5         1.277      4.495
 427.187    1.         0.5         0.907      3.161
 430.937    2.         1.5         0.825     23.903
 433.281    1.         1.5         0.337      1.157
 437.281    1.         0.5         4.014     13.648
 443.437    1.         1.5         5.368     17.986
 471.437    1.         0.5         1.603      5.039
 475.719    1.         0.5         3.036      9.455
 480.844    1.         0.5         1.754      5.402
 488.187    1.         1.5         3.632     11.014
 492.938    1.         1.5         2.123      6.374
 499.719    1.         0.5         2.552      7.556
 502.875    1.         1.5         2.324      6.837
 506.687    1.         1.5         0.649      1.895
 512.958    1.         0.5        20.148     58.093
 520.078    1.         0.5        12.482     35.491
 520.714    1.         1.5        12.436     35.317
 536.041    1.         1.5         1.443      3.980
 543.455    2.         1.5         1.118     19.645
 545.967    1.         1.5         0.678      1.836
 552.051    0.         0.5         0.72       0.98
 552.751    1.         1.5         0.722      1.931
 563.671    1.         1.5         5.643     14.805
 571.050    1.         1.5         0.506      1.311
 581.371    1.         1.5         2.115      5.382
 584.490    0.         0.5         0.85       1.12
 589.118    1.         1.5        10.117     25.414
 593.062    2.         1.5         0.485      7.097
 616.716    1.         1.5         1.158      2.782
 623.698    1.         0.5         0.483      1.148
 626.855    1.         1.5         0.311      0.736
 635.187    1.         0.5         5.710     13.335
 639.562    1.         1.5         4.483     10.400
 649.625    0.         0.5         1.03       1.29
 660.625    1.         0.5         8.043     18.092
 662.000    2.         1.5         0.451      5.265
 666.750    1.         1.5         5.393     12.025
 678.062    1.         0.5         5.228     11.473
 680.687    1.         1.5         2.844      6.219
 697.000    1.         0.5        18.545     39.658
 699.125    2.         2.5         1.173     12.268
 706.125    2.         1.5         0.778      7.976
 708.187    1.         1.5         1.945      4.098
 716.555    1.         0.5         9.465     19.725
 722.782    2.         2.5         0.618      6.048
 727.734    2.         1.5         0.286      2.761
 731.108    1.         1.5         3.073      6.286
 739.062    1.         1.5         2.733      5.535
 744.750    0.         0.5         3.73       4.35
 745.250    1.         0.5         6.364     12.789
 750.359    2.         1.5         0.434      3.944
 753.937    1.         1.5         2.592      5.154
 761.625    2.         1.5         0.819      7.228
 766.813    1.         1.5         6.411     12.551
 774.313    1.         1.5         7.196     13.963
 780.187    1.         1.5         1.147      2.210
 784.687    1.         1.5         4.662      8.937
 794.000    1.         1.5         7.115     13.495
 806.312    0.         0.5         7.81       8.74
 812.688    1.         1.5         1.326      2.463
 820.375    1.         1.5         6.102     11.238
 827.250    1.         1.5         1.870      3.418
 831.312    1.         1.5         1.009      1.836
 836.875    0.         0.5        10.28      11.30
 840.312    1.         0.5         3.233      5.828
 845.562    1.         1.5         4.875      8.739
ENDDATA            115
ENDSUBENT          127
ENDENTRY             3
