ENTRY            10539   20040511   20040517
SUBENT        10539001   20040511   20040517
BIB                 12         17
INSTITUTE  (1USACOL,1USAALB)
REFERENCE  (J,PR/C,13,124,197601)
           (C,75WASH,2,798,197503)
AUTHOR     (U.N.Singh,J.Rainwater,H.I.Liou,G.Hacken,J.B.Garg)
TITLE      Neutron resonance spectroscopy: 209Bi
FACILITY   (SYNCH,1USACOL) Nevis synchrocyclotron
INC-SOURCE (EVAP)
SAMPLE     Natural bismuth
METHOD     (TOF) Time-of-flight, 200 meter path.
DETECTOR   (SCIN) Scintillators for self-indication measurement
           (NAICR) Sodium-iodide crystals for viewing boron slab.
ERR-ANALYS (DATA-ERR) No information on contributions to
            uncertainty.
STATUS     (APRVD) Approved by author, 1976/3/22.
HISTORY    (19750912C)
           (19830901A) Converted to REACTION formalism
           (20040511A) Updated to new date formats, lower case.
ENDBIB              17
NOCOMMON             0          0
ENDSUBENT           20
SUBENT        10539002   20040511   20040517
BIB                  4          6
REACTION  1(83-BI-209(N,0),,EN)
          2(83-BI-209(N,EL),,WID,,G)
          3(83-BI-209(N,0),,L)
ANALYSIS   (AREA) Area analysis
CORRECTION Data corrected for Doppler broadening.
HISTORY    (19830901A) J moved to subentry 5. Data corrected.
ENDBIB               6
NOCOMMON             0          0
DATA                 4         20
DATA      1DATA      2DATA-ERR  2DATA      3
KEV        EV         EV         NO-DIM
 3.348       0.08      0.03      1.
 4.455       0.120     0.040     1.
 6.524       0.28      0.08      1.
 9.018       0.16      0.05      1.
 9.153       0.12      0.04      1.
 9.762       0.11      0.04      1.
17.45        0.50      0.15      1.
21.05        2.5       0.7       1.
25.28        9.5       3.0       1.
37.25        6.3       2.0       1.
39.19        1.7       0.5       1.
42.44        7.        2.        1.
44.17        1.4       0.4       1.
51.80        3.5       1.0       1.
52.84       12.        3.        0.
53.85       32.        8.        0.
57.60        5.8       1.5       1.
61.80       40.        8.        0.
67.07        6.7       2.0       1.
72.60       12.        4.        1.
ENDDATA             22
ENDSUBENT           33
SUBENT        10539003   20040511   20040517
BIB                  2          2
REACTION   (83-BI-209(N,EL),,STF)
HISTORY    (19830901A) Data corrected.
ENDBIB               2
NOCOMMON             0          0
DATA                 6          2
EN-MIN     EN-MAX     DATA       +DATA-ERR  -DATA-ERR  MOMENTUM L
KEV        KEV        NO-DIM     NO-DIM     NO-DIM     NO-DIM
0.800      69.50         0.62E-04   0.36E-04   0.20E-04 0.
3.348      72.60         0.13E-04   0.06E-04   0.04E-04 1.
ENDDATA              4
ENDSUBENT           11
SUBENT        10539004   20040511   20040517
BIB                  2          2
REACTION   (83-BI-209(N,TOT),,SIG)
STATUS     Data received on tape, Singh, 1975/12.
ENDBIB               2
NOCOMMON             0          0
DATA                 2        634
EN         DATA
EV         B
    507.340       8.86
    524.719       8.73
    543.040       8.98
    562.269       8.27
    582.570       8.58
    604.000       8.23
    626.619       7.80
    650.550       7.73
    675.869       7.42
    702.690       6.69
    731.150       5.53
    734.420       5.07
    737.709       5.27
    741.019       5.17
    744.359       5.19
    747.709       5.00
    751.090       5.00
    754.500       4.95
    757.920       4.45
    761.369       4.69
    764.849       5.31
    768.340       5.31
    771.859       6.42
    775.410       8.46
    778.979      11.23
    782.570      18.79
    786.190      30.08
    788.619      50.34
    789.840      57.70
    791.060      68.84
    792.279     103.16
    793.509     160.74
    794.740     189.24
    795.969     264.02
    797.199     370.27
    798.440     465.12
    799.680     513.68
    800.920     511.63
    802.170     481.30
    803.420     380.98
    804.670     361.15
    805.930     247.15
    807.180     207.02
    808.449     174.42
    809.709     139.08
    810.979     121.06
    812.250     108.56
    813.519      98.33
    814.800      88.09
    816.070      77.46
    817.359      77.91
    818.639      62.19
    819.930      57.10
    821.219      56.44
    822.509      50.34
    823.810      46.51
    825.109      46.41
    826.410      43.24
    827.719      41.58
    829.029      42.28
    831.660      37.19
    835.619      30.74
    839.619      29.53
    843.639      28.02
    847.690      25.95
    851.769      23.58
    855.879      22.93
    864.190      20.62
    876.889      18.36
    889.869      17.00
    903.129      16.57
    916.699      15.47
    930.570      14.70
    959.279      13.91
   1004.909      12.63
   1053.859      12.50
   1106.479      11.88
   1163.149      11.77
   1224.279      11.36
   1290.359      10.94
   1361.939      10.66
   1439.639      10.54
   1524.189      10.52
   1616.409      10.10
   1717.259       9.96
   1827.849       9.65
   1954.209       9.06
   2088.899       8.11
   2164.279       7.21
   2180.969       6.72
   2197.849       6.46
   2214.919       6.92
   2232.199       6.92
   2243.819       8.41
   2249.669       9.41
   2255.539      11.08
   2261.439      11.90
   2267.358      13.94
   2273.299      24.79
   2279.258      31.60
   2285.249      38.15
   2291.259      55.23
   2297.299      79.58
   2303.359     146.83
   2309.439     219.79
   2315.549     305.29
   2321.679     251.25
   2327.829     201.55
   2334.009     119.47
   2340.219      89.56
   2346.448      74.28
   2352.699      62.89
   2358.979      55.69
   2365.289      46.01
   2371.619      39.46
   2377.969      36.74
   2384.348      35.12
   2390.759      32.55
   2397.199      31.19
   2403.649      28.22
   2410.139      28.32
   2416.649      27.06
   2423.189      24.74
   2429.749      22.52
   2436.339      22.34
   2462.979      18.87
   2524.519      16.31
   2588.409      14.62
   2654.749      14.02
   2723.669      13.17
   2795.309      12.87
   2947.339      12.24
   3199.739      11.73
   3224.099      11.79
   3278.928      11.08
   3344.999      15.00
   3348.999      23.50
   3351.999      16.20
   3392.862      11.17
   3432.165      11.34
   3485.999      11.31
   3512.848      11.01
   3575.241      10.99
   3639.311      10.84
   3705.113      10.50
   3772.722      10.94
   3842.199      10.55
   3913.612      10.49
   3987.035      10.94
   4062.537      10.70
   4140.203      10.65
   4220.125      10.57
   4302.387      10.75
   4387.078      10.53
   4415.855      10.30
   4450.996      13.10
   4455.996      21.00
   4460.996      12.00
   4474.289      11.15
   4503.934      10.20
   4564.125      10.16
   4656.691       9.92
   4752.113      10.13
   4850.500       9.33
   4951.969       8.91
   4986.500       8.75
   5021.387       9.32
   5056.648       7.72
   5092.289      13.25
   5096.293      12.10
   5102.781      43.80
   5107.766      94.37
   5112.766     118.77
   5117.781      77.91
   5127.809      34.62
   5132.844      30.18
   5142.926      18.09
   5158.094      12.09
   5173.344      12.80
   5188.645      12.34
   5219.473      12.07
   5266.223      11.61
   5313.609      11.14
   5361.629      10.32
   5410.309      10.23
   5459.664       9.98
   5509.688      10.63
   5560.395      10.15
   5611.816      10.09
   5663.945       9.67
   5716.816      10.01
   5770.434       9.67
   5824.805       9.41
   6108.512       9.54
   6288.805       9.75
   6477.188       9.83
   6516.996      16.00
   6522.996      21.20
   6528.996      14.90
   6674.184       9.36
   6880.293       9.38
   7096.102       9.10
   7322.223       9.08
   7559.316       9.13
   7808.137       8.69
   8069.438       8.76
   8344.082       8.81
   8632.996       8.58
   8937.164       8.67
   9010.996      13.50
   9017.996      14.50
   9148.996      11.40
   9152.996      14.50
   9157.996      11.50
   9257.695       8.20
   9595.793       8.36
   9751.996       8.50
   9756.996      11.80
   9761.996      13.40
   9767.996      11.20
   9772.996       9.00
   9952.750       7.71
  10126.223       7.77
  10278.609       7.73
  10330.012       7.36
  10434.434       7.46
  10593.855       7.97
  10729.129       6.87
  10756.934       7.32
  10923.816       6.98
  11008.195       6.40
  11094.637       6.50
  11151.844       5.94
  11269.469       6.24
  11298.305       5.96
  11447.676       5.87
  11600.016       6.07
  11631.773       6.63
  11651.496       6.13
  11703.293       7.52
  11755.438       7.36
  11807.938       9.51
  11819.516      10.84
  11860.793      11.87
  11882.996      14.00
  11914.000      20.36
  11946.996      21.10
  11967.559      25.95
  12011.996      34.80
  12021.496      42.63
  12033.996      41.00
  12054.996      53.10
  12075.781      59.47
  12076.996      64.80
  12098.996      76.20
  12130.445      83.16
  12185.480      97.32
  12186.996     105.00
  12240.887      85.57
  12275.996      78.70
  12296.684      66.32
  12297.996      72.50
  12320.996      66.70
  12341.996      64.00
  12352.852      54.78
  12364.996      53.40
  12409.414      43.09
  12410.996      47.60
  12466.352      42.03
  12478.996      37.40
  12523.688      30.94
  12547.996      33.40
  12581.426      29.48
  12617.844      29.50
  12639.559      27.36
  12698.102      24.64
  12816.395      21.52
  12830.063      21.55
  12876.184      20.46
  12996.980      18.29
  13047.684      18.43
  13119.500      17.38
  13270.883      15.58
  13306.555      16.02
  13497.629      14.16
  13499.863      15.11
  13692.852      13.39
  13734.809      13.60
  13892.344      12.65
  13975.969      12.29
  14096.223      11.80
  14223.512      12.71
  14304.625      11.17
  14477.711      11.57
  14517.684      10.46
  14589.750      10.18
  14662.375       9.38
  14735.531       9.93
  14738.762      10.56
  14809.246       9.25
  14827.375       9.68
  14883.500       9.08
  14916.762       9.53
  14958.316       8.81
  15006.945       9.09
  15033.711       8.04
  15097.988       8.82
  15109.676       8.04
  15186.211       7.30
  15189.836       8.06
  15263.332       6.89
  15282.523       7.05
  15341.043       6.87
  15376.082       8.73
  15419.344       9.93
  15438.996      12.10
  15470.996      20.40
  15471.879      29.03
  15480.996      26.00
  15491.996      29.50
  15498.246      39.11
  15501.996      34.70
  15512.996      42.70
  15522.996      48.20
  15524.684      61.18
  15544.996      62.70
  15551.188      87.24
  15554.996      69.20
  15565.996      73.50
  15577.762      65.21
  15597.996      56.90
  15604.395      56.29
  15629.996      49.90
  15657.879      46.26
  15661.996      39.60
  15693.996      32.80
  15726.996      28.80
  15738.629      23.33
  15791.996      24.80
  15820.000      21.97
  15823.996      23.20
  15856.996      21.40
  15902.000      23.83
  15984.645      18.44
  15995.996      19.30
  16055.984      17.28
  16151.867      15.82
  16155.988      16.30
  16257.992      15.20
  16407.684      15.22
  16464.379      14.64
  16669.625      14.66
  16781.258      13.09
  16937.875      14.06
  17107.387      13.22
  17212.676      12.94
  17419.996      14.00
  17429.992      16.13
  17439.984      17.30
  17443.113      13.24
  17459.988      14.35
  17494.195      12.98
  17782.695      12.47
  17788.813      13.11
  18078.379      12.21
  18144.910      12.38
  18381.508      12.10
  18511.809      12.07
  18692.332      12.31
  18889.922      12.02
  19011.086      12.04
  19279.750      11.74
  19338.066      11.87
  19673.578      11.61
  19681.773      12.36
  20017.879      11.57
  20096.508      12.37
  20371.305      11.26
  20524.473      12.10
  20734.176      11.38
  20966.273      13.68
  21019.988      15.50
  21049.984      19.90
  21069.988      19.10
  21109.984      13.10
  21422.500      11.92
  21489.605      11.17
  21882.883      10.99
  21893.750      11.72
  22287.094      11.14
  22380.750      12.20
  22702.586      10.93
  22884.184      11.41
  23129.805      10.84
  23404.797      10.84
  23569.191      10.69
  23943.371      10.69
  24021.238      10.84
  24486.398      10.72
  24500.746      10.91
  24965.203      11.02
  25077.813      13.70
  25127.938      11.42
  25182.539      12.44
  25189.984      13.80
  25229.992      19.90
  25237.313      18.05
  25269.988      26.80
  25292.262      16.57
  25299.984      24.50
  25319.988      16.90
  25347.391      11.64
  25389.980      12.10
  25458.199      10.78
  25625.793      10.43
  25675.516      10.70
  25795.023      10.09
  25965.938       9.98
  26085.938      10.80
  26138.574      10.18
  26294.859       9.87
  26312.926       9.88
  26489.043      10.21
  26506.285       9.51
  26648.984       8.88
  26666.914       9.91
  26720.270       9.12
  26726.586       9.43
  26786.496       9.25
  26791.992       8.63
  26846.582       8.41
  26863.980       8.81
  26906.875       9.08
  26936.996       8.70
  26967.375       7.40
  26989.988       8.40
  26999.984      11.00
  27028.086      13.36
  27032.988      15.10
  27059.996      19.60
  27079.984      21.90
  27081.984      21.85
  27089.000      16.41
  27109.984      18.98
  27139.980      15.46
  27150.098      13.04
  27156.094      15.53
  27211.426      12.69
  27229.992      12.75
  27377.988      10.30
  27396.633      11.38
  27583.750      11.02
  27602.676      10.19
  27772.793      10.63
  27830.105      10.19
  27963.789      10.63
  28060.348       9.73
  28156.750      10.87
  28293.469      10.00
  28351.711      10.75
  28529.520       9.94
  28548.719      10.63
  28747.766      11.29
  28768.520       9.83
  28948.926      10.93
  29010.559       9.54
  29152.188      11.42
  29255.641      10.66
  29357.617      10.69
  29503.844      10.25
  29565.211      10.87
  29755.246       9.82
  29775.004      10.26
  29987.043       9.36
  30009.820       9.56
  30201.367      10.52
  30267.711       8.56
  30418.008       9.80
  30528.973       9.05
  30636.977      10.01
  30793.594       8.69
  30858.305       9.20
  31061.676       8.65
  31082.043       9.62
  31308.242       9.08
  31333.262       8.21
  31536.910       9.08
  31608.426       8.04
  31768.074       8.46
  31887.250       8.27
  32001.813       7.95
  32169.781       7.13
  32238.137       7.27
  32456.055       6.60
  32477.074       7.01
  32718.699       7.03
  32746.195       6.15
  32843.992       6.09
  32963.023       6.05
  33039.992       7.52
  33127.426       8.73
  33138.992      10.50
  33210.098      13.78
  33237.988      18.58
  33293.059      26.03
  33338.238      27.95
  33376.336      33.11
  33404.980      36.34
  33505.996      32.01
  33639.980      24.09
  33843.992      17.95
  33946.500      16.41
  34256.910      14.09
  34571.547      12.90
  34890.594      11.79
  35214.047      12.35
  35542.035      12.06
  35874.664      11.69
  36211.879      11.29
  36553.949      11.11
  36900.875      11.12
  37209.988      13.98
  37249.984      17.05
  37319.988      12.00
  37489.988      10.88
  37609.664      10.52
  37971.766       9.94
  38339.125      10.86
  38711.805      10.33
  39089.996      10.94
  39129.988      11.64
  39169.980      12.62
  39239.988      10.40
  39473.703       9.41
  39863.137      10.20
  40258.344       9.58
  40659.422       9.11
  41066.582       9.77
  41479.871      10.22
  41899.414       9.66
  42229.992      11.20
  42299.984      11.90
  42325.375      11.74
  42419.980      14.98
  42469.984      11.55
  42611.980       9.50
  42757.836       9.19
  43197.000       8.87
  43642.926       8.73
  44095.809       8.34
  44555.785       8.29
  45022.957       7.61
  45099.988       7.20
  45129.988       6.10
  45339.996       8.50
  45443.984      10.10
  45497.984      16.00
  45499.984      16.10
  45549.984      22.20
  45599.988      27.20
  45656.980      26.80
  45709.988      27.10
  45759.992      20.80
  45972.988      16.30
  45979.719      16.06
  46469.523      13.11
  46967.250      11.08
  47472.988      10.69
  47986.949      10.99
  48509.305      10.71
  49040.234      10.62
  49579.922      10.50
  50248.563       9.88
  50714.188      10.01
  51186.309      10.37
  51665.051       9.46
  52150.555       9.08
  52808.594      12.17
  52975.016      10.66
  53142.301       9.72
  53310.348       9.00
  53479.168       9.20
  53648.813       9.93
  53819.254      13.70
  53990.520      11.87
  54162.609      10.72
  54683.805      10.52
  55212.578       9.88
  55749.078       9.98
  56293.391       9.78
  56845.746       9.91
  57406.258       9.54
  57975.098       9.91
  58552.438       9.41
  59138.453       9.33
  59733.305       9.31
  60337.172       9.18
  60950.238       8.62
  61364.180       8.46
  61572.703      11.20
  61782.328      12.47
  61993.004      10.90
  62204.750      10.96
  62417.617       9.96
  62846.582      10.12
  63498.410       9.80
  64160.430       9.54
  64832.836       9.54
  65515.879       9.08
  66209.688       8.83
  66914.688       8.86
  67630.938       7.78
  68033.938       6.80
  68326.938       6.50
  68329.938       4.80
  68620.938       7.10
  68818.938       6.10
  68917.938       9.00
  69016.938      13.30
  69115.938      18.00
  69215.625      17.58
  69364.938      24.80
  70121.938      15.90
  70427.938      14.20
  71046.250      12.30
  71988.938      11.13
  72306.938      10.46
  72520.750      11.86
  72627.813      14.00
  72735.125      12.53
  72950.500      11.40
  73602.250      10.68
  73931.438      10.27
  74932.313      10.15
ENDDATA            636
ENDSUBENT          643
SUBENT        10539005   20040511   20040517
BIB                  3          6
REACTION  1(83-BI-209(N,0),,EN)
          2(83-BI-209(N,EL),,WID)
          3(83-BI-209(N,0),,J)
          4(83-BI-209(N,0),,L)
ANALYSIS   R-matrix analysis
HISTORY    (19830901A) J added from subentry 2.
ENDBIB               6
NOCOMMON             0          0
DATA                 5          9
DATA      1DATA      2DATA-ERR  2DATA      3DATA      4
KEV        EV         EV         NO-DIM     NO-DIM
 0.800       4.6        0.4       5.         0.
 2.312      19.5        1.0       4.         0.
 5.112       5.4        0.6       5.         0.
12.15      270.        45.        4.         0.
15.54      118.        20.        4.         0.
27.08       24.         6.        4.         0.
33.34      240.        40.        4.         0.
45.58      160.        30.        5.         0.
69.18      520.        70.        5.         0.
ENDDATA             11
ENDSUBENT           22
ENDENTRY             5
