ENTRY            10534   20210803   20220328   20220327       1490
SUBENT        10534001   20210803   20220328   20220327       1490
BIB                  9         21
TITLE      Kilovolt 33S(n,alpha0) and 33S(n,gamma) cross
           sections: Importance in the nucleosynthesis of the
           rare nucleus 36S
AUTHOR     (G.F.Auchampaugh,J.Halperin,R.L.Macklin,W.M.Howard)
REFERENCE  (J,PR/C,12,1126,1975)
           #doi:10.1103/PhysRevC.12.1126
           (J,NSE,78,110,1981) Corrigendum
           (P,ORNL-5025,114,197505)
INSTITUTE  (1USALAS,1USAORL)
METHOD     (TOF,PHD)
MONITOR    (92-U-235(N,F),,SIG) From ENDF/B-IV evaluation.
MONIT-REF  (,,3,ENDF/B-IV,,1975)
CORRECTION Data corrected for dead-time and background effects.
HISTORY    (19750811C)
           (19760910A) SANS 4 and 6 corrected.
           (19801209A) Status message added. Converted to
                       reaction formalism.
           (19830830A) BIB correction.
           (20040511A) Updated to new date formats, BIB updates.
           (20210803A) BP: Updated entry, added doi,
            added Corrigendum, digitized data.
ENDBIB              21
COMMON               1          3
EN-NRM
EV
     0.0253
ENDCOMMON            3
ENDSUBENT           28
SUBENT        10534002   20210803   20220328   20220327       1490
BIB                  6         13
REACTION  1(16-S-33(N,0),,EN)
          2(16-S-33(N,TOT),,WID)
          3(16-S-33(N,G),,WID/STR)
ANALYSIS   (AREA)
CORRECTION Data corrected for Doppler broadening, instrumental
           resolution, self-shielding and multiple scattering.
ERR-ANALYS (DATA-ERR) No information on uncertainties.
STATUS     (DEP,10534006)
           (TABLE) Table I, page 1131 of J,PR/C,12,1126,1975.
           (OUTDT) Cf. R.L.Macklin et al.,Nucl.Sci.Eng.78,110,1981
HISTORY    (19801209A) Subentries 2,3 combined.
           (20081126A) Reaction updated. Data error units
                       corrected, added STATUS OUTDT
ENDBIB              13
NOCOMMON             0          0
DATA                 6         39
DATA      1DATA      2DATA-ERR  2DATA-MAX  2DATA      3DATA-ERR  3
KEV        EV         EV         EV         EV         EV
      13.45       107.        20.                 0.087      0.006
      17.62       48.7        9.7                 0.556      0.032
      23.93       46.1        9.2                  1.03      0.055
      31.79                              15.      0.063      0.004
      52.00       330.        70.                 0.314      0.020
      53.51       240.        50.                 0.551      0.033
      59.07       340.        70.                 0.674      0.041
      77.74       480.       100.                  1.33       0.08
      81.19       580.       120.                  0.59       0.04
      87.45       240.        50.                  0.77       0.05
      88.32       260.        50.                  0.14       0.01
      100.7      1580.       300.                  0.94       0.08
      127.5       850.       170.                  0.30       0.04
      130.6       200.        40.                  0.34       0.04
      133.1       230.        40.                  0.42       0.03
      138.2       150.        30.                  0.92       0.07
      151.2       340.        70.                  0.86       0.07
      167.0      3300.       400.                  1.67       0.16
      177.6       760.       150.                  0.55       0.07
      196.6       710.       140.                  1.18       0.10
      199.1       700.       140.                  1.09       0.11
      202.4      1130.       200.                  1.92       0.15
      210.8       310.        60.                  0.30       0.05
      215.6                             120.       0.32       0.05
      221.2      1570.       300.                  0.73       0.11
      228.2       630.       130.                  0.57       0.08
      237.5       610.       120.                  1.60       0.14
      258.0       400.        80.                  1.50       0.12
      260.2       550.       110.                  0.81       0.09
      295.4       610.       120.                  2.05       0.16
      298.2       790.       160.                  1.92       0.16
      308.7       670.       140.                  1.20       0.22
      335.9       280.        60.                  0.70       0.13
      367.4       400.        80.                  1.26       0.18
      377.9      1400.       250.                  2.77       0.47
      391.3      1300.       250.                  3.06       0.38
      425.3      1700.       300.                  1.43       0.22
      465.4      3300.       500.                  3.18       0.33
      548.4      2300.       400.                  2.77       0.40
ENDDATA             41
ENDSUBENT           59
NOSUBENT      10534003     801209              20050926       0000
SUBENT        10534004   20210803   20220328   20220327       1490
BIB                  4          8
REACTION   (16-S-33(N,0),,D)
ERR-ANALYS (DATA-ERR) No information on sources of uncertainties.
STATUS     (DEP,10534006)
           (TABLE) page 1130 of J,PR/C,12,1126,1975.
           (OUTDT) Cf. R.L.Macklin et al.,Nucl.Sci.Eng.78,110,1981
HISTORY    (20081126A) Code added to ERR-ANALYS. Energy heading
                      corrected.
           (20210803A) BP: STATUS was added.
ENDBIB               8
NOCOMMON             0          0
DATA                 4          1
EN-RES-MIN EN-RES-MAX DATA       DATA-ERR
KEV        KEV        KEV        KEV
        13.       240.        9.1        0.9
ENDDATA              3
ENDSUBENT           16
SUBENT        10534005   20210803   20220328   20220327       1490
BIB                  4          7
REACTION   (16-S-33(N,G)16-S-34,,RI,,,DERIV)
ANALYSIS   Calculated from resonance parameters
STATUS     (DEP,10534006)
           (TABLE) page 1130 of J,PR/C,12,1126,1975.
           (OUTDT) Cf. R.L.Macklin et al.,Nucl.Sci.Eng.78,110,1981
HISTORY    (20210803A) BP: Removed uncertainty because it is not
                       explicitly listed, added STATUS OUTDT
ENDBIB               7
NOCOMMON             0          0
DATA                 2          1
EN-MIN     DATA
EV         MB
        0.5       33.4
ENDDATA              3
ENDSUBENT           15
SUBENT        10534006   20210803   20220328   20220327       1490
BIB                  6         23
REACTION   (16-S-33(N,G)16-S-34,,SIG)
FACILITY   (LINAC,1USAORL) The 40-m capture facility at ORELA.
DETECTOR   (SCIN) Two fluorocarbon liquid scintillators
            (NE-226), each 4-cm thick by 10-cm diameter, were
           mounted on 12.7-cm photomultipliers and viewed the
           capture sample normal to the beam
SAMPLE     The 33S sample (a disk 1.3-cm diameter by 0.4-cm
           thick) contained 1.089 g of sulfur, giving a sample
           thickness of 0.0132 atoms/b for 33S.
           (16-S-33,ENR=0.8821)
           (16-S-32,ENR=0.1096)
           (16-S-34,ENR=0.0081)
           (16-S-35,ENR=0.0001)
STATUS     (CURVE) Fig. 3, page 1130 of J,PR/C,12,1126,1975.
           (OUTDT)
           **** Capture cross section requires correction by a
           factor of 0.9850 due to error in processing code
            (private communication, Macklin and Winters,
           9/24/1980).
HISTORY    (19811218A) Reaction corrected.
           (19830830A) BIB correction.
           (20210803A) BP: Updated subentry, digitized data,
            STATUS OUTDT added
ENDBIB              23
NOCOMMON             0          0
DATA                 2       1200
EN         DATA
KEV        MB
      2.609     18.136
      2.637    -35.619
      2.691     31.738
      2.829    -30.783
      2.910     45.591
      3.047    -30.381
      3.183     37.127
      3.294    -34.412
      3.402     33.045
      3.540    -38.444
      3.676     33.548
      3.677    -47.160
      3.840     47.300
      3.923    -60.159
      4.060    -37.489
      4.086     38.785
      4.196    -41.721
      4.332     39.238
      4.470    -36.735
      4.523     48.557
      4.688     39.891
      4.743    -27.264
      4.961     44.878
      5.153    -17.543
      5.207     49.814
      5.399     32.231
      5.455    -34.925
      5.617     72.986
      5.673    -34.523
      5.782     37.418
      5.891     28.652
      5.947    -20.569
      6.083    -15.834
      6.137     42.555
      6.330    -15.381
      6.356     42.957
      6.493     38.725
      6.548    -10.496
      6.657     39.027
      6.740     -5.660
      6.876     30.461
      6.877    -18.860
      6.986     -9.691
      7.013     39.680
      7.122     17.462
      7.259     35.649
      7.260    -13.672
      7.423     44.918
      7.424     -8.887
      7.614     40.786
      7.670    -17.402
      7.833     41.188
      7.916     -7.982
      8.024     68.442
      8.134     50.709
      8.189     -7.480
      8.380     42.193
      8.463     -6.977
      8.572     38.062
      8.737    -10.958
      8.763     51.865
      8.927     43.199
      9.010    -23.907
      9.064     25.515
      9.229    -10.053
      9.310     52.870
      9.420     35.136
      9.503    -14.034
      9.639     22.087
      9.720     62.591
      9.721     -9.148
      9.885     40.474
      9.968    -22.147
     10.021     45.209
     10.213     41.078
     10.213      0.724
     10.377     45.863
     10.487      1.226
     10.623     41.831
     10.842     51.201
     10.979     33.517
     10.979     -6.836
     11.115     51.704
     11.225      7.067
     11.389     38.755
     11.581     34.623
     11.800     17.090
     12.073     31.044
     12.265     31.396
     12.346     62.933
     12.373    139.207
     12.509    193.263
     12.564    126.108
     12.592     67.869
     12.757     54.720
     12.839     32.452
     13.058     32.854
     13.277     37.740
     13.523     29.225
     13.824     34.261
     14.042     34.664
     14.261     30.582
     14.453     35.418
     14.644     35.769
     14.918     31.788
     15.136     41.158
     15.355     37.076
     15.465      1.407
     15.629     28.611
     15.738     28.813
     15.984     33.749
     16.092    146.043
     16.094     56.368
     16.321   1464.716
     16.361    509.729
     16.448    155.664
     16.449     57.022
     16.613     43.872
     16.778     35.206
     16.969     44.526
     17.215     40.494
     17.407     40.846
     17.653     32.331
     17.954     37.368
     18.173     33.286
     18.392     33.688
     18.556     33.990
     18.747     11.923
     18.857     30.059
     19.103     34.995
     19.294     30.863
     19.486     17.764
     19.705     31.617
     19.814     36.302
     20.033     32.221
     20.170      5.569
     20.306     32.723
     20.525     42.093
     20.717     11.059
     20.908     47.280
     21.209     47.833
     21.428     48.235
     21.646     44.154
     21.891    183.602
     21.892     58.057
     21.930   1313.606
     21.999   2291.212
     22.163    282.747
     22.166     80.979
     22.248     45.260
     22.412     41.078
     22.604     36.946
     22.768     37.247
     22.959     42.083
     23.123     42.384
     23.260     24.701
     23.479     38.554
     23.616     43.289
     23.862     43.742
     24.163     21.876
     24.354     49.130
     24.601     27.164
     24.682     49.733
     24.901     41.168
     25.175     50.638
     25.394     42.073
     25.695     47.109
     25.914     38.544
     26.050     47.763
     26.215     30.130
     26.378     43.882
     26.515     53.101
     26.707     48.969
     26.843     58.188
     27.089     54.157
     27.226     58.892
     27.390     50.226
     30.141      4.767
     30.331     -8.772
     30.626    153.425
     30.664     -5.464
     30.676     15.771
     30.940     15.048
     31.060     -5.449
     31.069      9.928
     31.269     13.230
     31.720     -6.888
     31.941    141.760
     31.997     15.089
     32.052     -4.313
     32.247     -9.065
     32.328     16.200
     32.525     14.010
     32.712     -6.118
     32.989     16.225
     33.117      9.640
     33.174     -6.467
     33.450     13.313
     33.636     -6.815
     33.979     14.432
     34.031     -8.997
     34.101     -3.869
     34.114     19.196
     34.231     -6.793
     34.381     22.501
     34.508     14.086
     34.693     -8.240
     34.708     16.656
     35.040     20.696
     35.090     -7.126
     35.373     25.102
     35.551     -8.939
     35.567     16.689
     35.898     17.800
     36.080     -8.187
     36.099     23.299
     36.214     -6.351
     36.492     17.456
     36.741     -8.894
     36.760     24.056
     36.886     13.078
     37.072     -7.051
     37.219     17.850
     37.401     -9.235
     37.414     12.000
     37.482     15.297
     37.668     -4.465
     37.734     -5.927
     37.811     13.845
     37.886     27.760
     38.142     13.858
     38.327     -8.834
     38.543     22.294
     38.739     18.640
     38.791     -6.253
     38.987     -9.175
     39.005     20.847
     39.122     -4.410
     39.403     23.425
     39.450     -8.791
     39.716     -5.120
     39.732     21.241
     39.847     -7.678
     39.992     13.196
     40.178     -6.933
     40.193     18.329
     40.574     -8.016
     40.648      6.631
     40.656     19.079
     41.051     16.165
     41.245      9.217
     41.301     -7.988
     41.378     11.784
     41.697     -7.607
     41.776     14.362
     41.847     21.687
     41.964     -2.838
     42.095     -5.762
     42.109     17.304
     42.559     -3.547
     42.623     -5.741
     42.771     20.258
     42.775     27.214
     42.835     16.965
     42.954     -4.630
     43.283     -7.913
     43.298     16.617
     43.368     24.308
     43.419     -2.050
     43.631     21.389
     43.680     -6.067
     43.880     -4.229
     43.897     25.060
     43.944     -7.522
     44.091     17.745
     44.146     -1.656
     44.357     20.684
     44.607     -3.469
     44.752     18.503
     44.804     -6.391
     45.013     13.021
     45.199     -7.840
     45.276      9.736
     45.344     14.132
     45.663     -5.626
     45.675     14.511
     45.879     24.037
     46.190     -7.802
     46.260     -2.308
     46.272     18.194
     46.466     11.978
     46.723     -0.826
     46.785     -7.780
     46.864     13.824
     47.131     17.495
     47.314     -7.027
     47.392     13.478
     47.712     -4.450
     47.729     23.375
     47.842     -8.838
     48.175     -4.066
     48.186     14.240
     48.571     -4.051
     48.649     15.722
     48.916     20.125
     48.970     -0.741
     49.113     17.204
     49.363     -6.583
     49.440     12.823
     49.498     -0.721
     49.577     19.784
     49.696     -1.079
     49.759     -6.202
     49.963      3.324
     50.038     17.239
     50.424      0.047
     50.431     11.763
     50.554     -2.877
     50.696     12.871
     50.755      1.158
     51.026     12.884
     51.088      5.564
     51.165     23.872
     51.490     14.732
     51.716     61.236
     51.994     83.579
     52.240     52.835
     52.292     30.139
     52.483     18.064
     52.742      8.556
     52.940      7.831
     52.951     27.601
     53.230     51.409
     53.255     93.512
     53.542    130.866
     53.625    159.791
     53.689     46.301
     53.781     89.871
     53.869     15.921
     53.997      7.505
     54.135     18.860
     54.190      0.190
     54.336     22.162
     54.397     14.110
     54.520     -1.994
     54.725     10.828
     54.787      3.874
     55.127     19.996
     55.248      0.597
     55.520     13.421
     55.645      1.344
     55.911      5.015
     55.974     -0.840
     55.983     14.903
     56.305      1.003
     56.377      9.792
     56.767     -0.078
     56.838      7.979
     57.230     -0.426
     57.365      4.338
     57.369     11.660
     57.504     17.157
     57.693      1.788
     57.899     14.243
     58.026      5.095
     58.160      8.029
     58.296     14.625
     58.501     26.714
     58.845     49.059
     59.238    153.415
     59.460     82.765
     59.489     20.894
     59.618     15.773
     59.680      9.552
     59.742      1.866
     59.744      5.527
     60.071     -0.318
     60.210     10.670
     60.478     17.270
     60.535      1.896
     60.809     19.113
     61.070     12.899
     61.196      1.921
     61.334     12.177
     61.599     12.920
     61.856      0.848
     61.994     11.836
     62.127     12.940
     62.252      0.863
     62.587      8.198
     62.647     -1.685
     62.789     14.063
     62.979      1.257
     63.251     14.081
     63.308     -2.026
     63.580     11.897
     63.772      0.189
     64.034     -2.730
     64.043     11.914
     64.167     -0.895
     64.308     13.755
     64.563     -2.710
     64.567      4.612
     64.898      5.357
     65.023     -7.452
     65.034     11.952
     65.092     -1.226
     65.301     17.088
     65.556      0.622
     65.761     11.247
     66.018      0.274
     66.090      9.429
     66.096     20.047
     66.148     -3.016
     66.551      7.616
     66.679      0.665
     66.752     11.285
     66.875     -4.087
     67.148     10.568
     67.210      4.713
     67.340      0.324
     67.347     12.772
     67.735     -2.590
     67.804      2.905
     67.944     15.724
     68.472     15.744
     68.532      4.397
     68.800     10.997
     69.193      5.154
     69.321     -1.065
     69.395     12.118
     69.855      8.108
     69.916     -1.774
     70.121     10.315
     70.189     12.880
     70.314      1.536
     70.519     13.259
     70.789     23.154
     70.977      5.222
     71.050     16.940
     71.372      2.308
     71.377     10.363
     71.832     -2.068
     71.970      7.822
     72.366      7.838
     72.428      0.884
     72.690     -3.866
     72.897     11.519
     73.088     -0.922
     73.291      7.507
     73.749      0.202
     73.758     15.213
     73.951      5.335
     74.154     14.129
     74.224     20.356
     74.346      4.252
     74.410      0.593
     74.680      9.024
     74.740     -0.859
     75.077      9.771
     75.137      0.255
     75.406      8.685
     75.600      1.737
     75.741     16.386
     75.800      4.307
     76.134     10.178
     76.460      2.502
     76.469     17.146
     76.529      7.264
     76.994     11.675
     77.001     24.123
     77.008     35.472
     77.506     94.434
     77.738    151.190
     77.900     90.056
     77.992    134.359
     78.085     68.097
     78.255     21.974
     78.328     32.960
     78.452     19.052
     78.648     15.399
     78.841      6.253
     79.171      5.534
     79.242     14.689
     79.641     18.731
     79.830      3.362
     79.835     10.684
     80.232     11.432
     80.370     21.688
     80.564     15.105
     80.774     35.249
     81.046     47.341
     81.190     67.849
     81.385     61.266
     81.568     36.012
     81.760     26.500
     81.823     20.645
     82.085     16.994
     82.347     13.343
     82.813     19.218
     82.865     -4.211
     83.005      9.341
     83.067      2.021
     83.267      4.957
     83.274     15.941
     83.795      3.147
     83.867     14.133
     84.196     10.850
     84.323      2.435
     84.525      9.398
     84.585     -1.583
     84.785      1.720
     84.858     13.438
     85.049      0.998
     85.187     10.156
     85.389     17.119
     85.581      7.608
     85.839     -4.464
     86.114     14.584
     86.176      6.898
     86.316     21.182
     86.776     15.708
     87.150     90.042
     87.253     39.889
     87.492    108.360
     87.755    106.906
     87.769     19.407
     87.961      8.065
     88.298     19.427
     88.308     35.902
     88.484      0.030
     88.502     28.953
     88.819      6.999
     89.015      3.345
     89.152     12.137
     89.348      8.483
     89.478      3.729
     89.741      1.542
     89.812     10.332
     90.715      2.348
     91.409     -1.168
     91.881      3.719
     92.817      7.044
     93.032     -6.441
     93.746      5.288
     93.969     -2.138
     94.440      1.772
     94.916     10.372
     96.065     -1.351
     96.311      8.813
     96.769      2.951
     97.250     14.287
     97.920     -7.013
     98.877     12.337
     99.333      5.303
     99.586     20.743
    100.526     26.804
    100.739     12.147
    101.663      6.286
    101.684     22.117
    101.891      2.965
    102.834     11.762
    103.283     -1.136
    103.286      1.210
    104.003     15.283
    104.681     -0.155
    104.932     13.917
    106.320      7.081
    107.006     -2.689
    107.486      8.648
    107.939     -1.123
    108.185      9.236
    109.120     11.779
    109.800     -2.291
    109.813      7.677
    110.978      8.071
    111.199     -0.528
    111.683     13.545
    112.361     -1.893
    113.071      6.318
    113.533      3.778
    114.222     -3.646
    114.233      5.344
    115.161      2.806
    115.386     -3.643
    116.095      4.372
    117.014     -4.421
    117.492      4.571
    117.945     -4.613
    118.182     -1.877
    118.895      9.461
    119.347     -0.701
    120.042     -3.435
    120.295     12.005
    120.753      6.143
    121.203     -5.582
    122.601     -5.382
    122.840     -0.496
    123.312      4.391
    123.548      6.737
    123.770     -1.080
    123.790     13.774
    125.164     -3.226
    125.410      6.742
    125.868      0.294
    126.103      2.054
    126.350     12.999
    127.501      3.426
    127.523     19.647
    128.213     13.199
    128.419     -6.539
    129.140     10.075
    129.823     -1.649
    130.798     31.578
    130.981     -5.750
    131.464      7.150
    132.395      6.761
    132.623      2.853
    133.081     -2.422
    133.124     30.216
    134.022      4.811
    134.241     -5.742
    135.426      9.897
    135.643     -2.024
    136.334     -7.495
    136.355      8.336
    136.806     -2.608
    136.818      6.773
    138.531     69.709
    139.136     -1.429
    139.150      9.125
    140.313      8.542
    140.759     -6.115
    141.712     10.109
    142.162     -1.616
    142.878     11.676
    143.325     -2.785
    144.033      5.034
    144.272      9.335
    144.488     -3.173
    145.415     -6.493
    145.437     10.510
    146.351     -2.972
    146.366      8.168
    147.748     -2.968
    147.994      7.390
    148.442     -6.484
    149.159      7.784
    149.844     -2.376
    149.848      0.751
    150.790      8.766
    151.250      4.272
    151.319     56.845
    151.711      1.342
    152.192     12.483
    152.639     -1.196
    153.121     10.727
    153.334     -4.126
    154.046      6.430
    155.675      6.043
    155.893     -5.878
    155.895     -4.314
    157.523     -5.092
    157.539      7.026
    158.235      5.073
    158.690     -3.134
    159.172      9.180
    159.625     -0.591
    160.086     -3.912
    160.337     10.356
    161.021     -0.587
    161.266      8.599
    161.493      4.105
    161.952     -1.366
    162.889      2.936
    162.894      6.845
    163.350     -0.190
    163.821      3.916
    164.059      7.630
    164.752      3.918
    164.992      9.196
    165.694     11.543
    166.161     12.521
    166.384      5.095
    167.084      6.856
    167.792     13.698
    168.256     12.527
    168.478      4.319
    168.715      7.642
    168.938      0.412
    169.871      1.392
    169.882      9.405
    170.797     -2.319
    171.507      6.282
    172.208      7.847
    172.429     -0.947
    172.902      4.527
    173.126     -2.117
    173.593     -1.139
    174.298      3.749
    175.221     -2.502
    175.464      5.511
    176.155      0.041
    176.399      8.250
    176.859      3.756
    176.871     12.942
    178.025      5.323
    178.273     17.050
    178.483      0.047
    179.179     -2.101
    179.888      5.914
    180.578     -0.338
    181.287      7.286
    182.207     -0.724
    182.673     -1.114
    182.682      5.922
    183.601     -3.066
    184.081      7.294
    184.536     -0.132
    184.544      5.340
    185.236      0.847
    185.476      6.125
    185.931     -1.691
    185.939      4.172
    186.635      2.024
    186.860     -3.448
    187.339      6.716
    187.795     -0.514
    188.031      1.832
    188.272      8.087
    188.734      5.156
    189.657     -0.900
    189.896      3.596
    190.819     -2.460
    191.048     -5.195
    191.532      8.291
    191.760      4.383
    192.683     -1.673
    192.695      7.513
    193.392      6.146
    193.849      0.089
    194.329     10.449
    195.490      8.497
    196.444     25.894
    198.279      4.987
    198.290     13.000
    199.708     28.834
    201.066     -0.282
    201.079      9.490
    202.017     14.769
    202.027     22.391
    203.427     24.545
    203.871      8.520
    204.090     -2.228
    204.799      5.787
    205.486     -2.615
    205.496      4.811
    206.899      9.506
    207.352     -0.460
    207.815     -2.218
    208.522      3.843
    209.446     -1.236
    210.386      5.216
    210.614      1.698
    210.858     10.494
    211.310     -0.449
    211.781      4.242
    212.704     -2.009
    212.951      8.154
    213.645      4.834
    214.337     -0.050
    214.573      2.686
    215.754     15.198
    215.973      5.036
    216.198     -1.218
    216.203      3.082
    216.895     -2.389
    217.838      6.800
    218.527     -0.039
    218.767      4.848
    219.923     -1.012
    220.172     10.910
    220.859      2.704
    221.333      8.959
    222.719      0.364
    222.960      7.204
    223.656      4.861
    223.877     -3.738
    224.582      1.150
    225.743     -0.996
    225.985      5.649
    226.682      4.479
    226.905     -2.752
    227.389     11.125
    228.314      6.046
    228.788     12.302
    229.007      2.531
    229.935     -0.008
    229.944      6.442
    229.946      7.810
    231.332     -0.590
    231.573      6.251
    232.968      4.887
    233.428      0.393
    233.674     10.556
    233.897      3.130
    235.059      1.374
    235.069      8.606
    236.217     -3.117
    236.228      5.286
    236.713     19.555
    238.102     13.891
    238.116     24.444
    238.559      7.247
    238.778     -3.110
    239.944     -2.130
    240.419      5.298
    241.111      0.023
    242.054      9.016
    242.508      0.613
    243.901     -2.315
    244.145      5.699
    245.534     -0.356
    246.009      7.463
    246.928     -1.916
    247.397      0.040
    247.403      4.731
    248.560     -0.543
    248.571      7.665
    248.800      5.321
    249.724     -0.735
    250.431      6.302
    251.819     -0.534
    252.057      3.180
    252.752      0.250
    253.456      4.747
    253.918      1.817
    254.158      7.290
    255.310     -1.306
    255.318      4.557
    256.023      9.249
    256.243     -0.522
    256.251      5.732
    256.956     10.424
    257.408      0.067
    258.140     26.063
    258.809      3.394
    259.063     19.420
    259.748      9.259
    260.454     15.320
    260.906      4.768
    261.366      0.665
    261.370      3.792
    262.061     -2.070
    262.534      3.208
    262.770      5.554
    262.990     -3.631
    264.158     -1.087
    264.165      4.190
    265.098      5.365
    265.321     -1.865
    266.022      0.091
    266.265      8.105
    266.485     -2.058
    267.648     -2.445
    267.660      6.349
    268.816      0.294
    269.520      4.400
    269.758      8.505
    269.975     -3.807
    269.976     -3.025
    271.383      4.992
    271.612      2.061
    272.317      6.949
    273.476      3.434
    273.704     -0.670
    273.715      7.539
    276.032     -0.859
    276.508      6.960
    276.961     -2.420
    277.672      7.159
    277.895     -0.072
    279.068      6.381
    279.291     -1.241
    279.994      2.474
    280.453     -2.801
    280.928      4.431
    281.386     -1.040
    281.864      7.952
    283.249     -1.034
    283.255      4.047
    283.257      5.415
    284.179     -1.423
    285.121      6.397
    285.583      4.053
    286.041     -1.809
    286.746      3.079
    286.973     -1.611
    287.214      4.449
    288.379      5.234
    288.603     -1.215
    289.080      7.385
    290.001     -0.821
    290.241      5.043
    290.929     -3.163
    291.864      0.162
    292.105      6.221
    293.501      5.443
    293.726     -0.420
    294.445     15.413
    294.898      5.251
    295.386     22.256
    296.541     15.223
    296.762      6.429
    298.871     17.184
    299.563     11.909
    299.808     21.681
    300.571      0.587
    302.988      7.814
    306.085     -2.712
    309.072     15.442
    309.737      1.201
    311.546      7.840
    314.634     -0.540
    315.842      3.171
    320.728      4.357
    320.744      0.065
    323.787      3.586
    326.248     -0.699
    328.059      5.355
    332.347      3.027
    332.968      0.298
    335.408      1.671
    336.595     11.040
    337.836      6.166
    339.688      1.489
    341.508      5.007
    342.757     -1.818
    343.354      1.696
    344.570      3.456
    345.808     -0.443
    348.223      7.369
    348.234      4.443
    349.467      1.715
    351.298      2.306
    351.898      5.234
    353.720      8.362
    354.970      1.147
    356.176      5.443
    358.030      0.376
    359.233      5.257
    362.310     -0.196
    362.903      4.683
    364.144     -0.190
    364.727      7.225
    367.195      1.185
    367.767     11.527
    370.257     -0.171
    371.463      4.125
    373.292      5.301
    374.532      0.622
    375.119      7.063
    375.747      2.577
    376.945      9.019
    378.773     10.586
    379.410      3.954
    380.010      6.688
    380.638      2.397
    382.451      7.866
    384.310      1.238
    384.896      7.874
    386.140      2.219
    387.948      9.054
    389.175      7.692
    389.805      2.816
    391.602     12.382
    393.465      4.974
    394.058      9.658
    394.083      3.025
    395.927      0.494
    397.740      5.767
    399.564      8.310
    401.429      0.121
    402.642      2.661
    405.681      7.158
    405.704      1.305
    409.351      6.584
    410.593      1.515
    413.633      5.622
    414.872      1.528
    416.711     -0.027
    419.139      4.468
    422.191      5.648
    422.821      0.773
    424.603     14.241
    424.646      2.925
    426.455      9.369
    427.682      8.397
    428.913      6.060
    428.929      1.962
    433.187      7.439
    433.204      2.951
    436.853      7.840
    437.483      2.965
    440.519      8.047
    442.372      3.175
    444.175     11.180
    447.245      7.482
    447.877      2.021
    449.719      0.076
    450.308      5.736
    452.137      7.107
    455.213      1.849
    457.027      7.123
    458.867      5.372
    460.100      2.645
    462.523      8.506
    464.365      6.170
    465.597      3.833
    466.786     12.616
    468.050      1.694
    468.645      5.988
    469.891     -0.056
    472.927      5.026
    474.782     -0.431
    477.817      5.236
    479.055      0.948
    479.644      6.998
    482.096      5.055
    483.333      1.156
    485.762      5.456
    487.619     -0.586
    488.214      3.708
    490.049      3.323
    494.322      4.898
    494.337      0.800
    496.774      2.954
    497.984      6.275
    497.994      3.738
    501.647      7.457
    502.272      3.752
    504.116      1.221
    504.714      4.735
    508.375      6.307
    509.009      0.456
    510.202      8.069
    510.825      5.144
    512.683     -1.289
    515.103      5.352
    515.731      0.867
    517.555      3.409
    517.560      2.043
    519.992      5.563
    520.010      0.685
    521.221      3.811
    523.041      7.328
    524.281      2.845
    527.348      0.123
    527.941      4.807
    529.769      6.374
    532.226      3.260
    534.655      7.364
    534.683      0.146
    538.327      6.205
    540.797     -0.421
    542.617      3.292
    543.836      4.271
    543.857     -1.387
    547.493      6.819
    547.511      2.332
    549.307     12.093
    550.556      5.073
    554.244     -0.184
    556.062      3.919
    557.292      1.972
    560.336      5.103
    562.186      0.817
    563.389      6.088
    566.452      4.147
    566.473     -1.121
    567.075      1.222
    570.728      4.940
    571.942      7.090
    571.964      1.432
    574.405      2.611
    576.842      4.569
    578.075      1.842
    579.285      5.162
    583.561      5.956
    583.582      0.493
    586.010      4.793
    588.450      6.166
    589.691      1.292
    590.272      9.098
    592.140      0.325
    593.344      5.011
    595.168      7.553
    595.190      1.895
    598.834      8.150
    600.697      0.351
    601.279      7.962
    605.569      5.049
    605.577      2.903
    606.169      8.172
    610.458      5.259
    611.079      2.725
    612.917      1.755
    614.736      5.468
    615.964      4.106
    618.413      3.138
    620.867      0.804
    621.473      2.172
    625.135      3.549
    626.351      5.309
    629.403      6.294
    630.022      4.345
    633.084      2.988
    637.977      2.028
    641.029      3.208
    642.857      4.580
    644.686      5.951
    648.347      7.523
    650.812      2.458
    654.474      3.835
    658.144      3.262
    660.577      6.391
    663.631      6.986
    664.247      5.817
    666.087      4.067
    668.535      3.294
    670.363      4.860
    673.403      8.967
    674.636      6.240
    679.532      4.694
    682.594      3.338
    685.658      1.201
    688.087      5.306
    692.370      4.344
    696.040      3.575
    696.641      6.308
    697.272      1.237
    701.547      2.226
    703.987      3.404
    708.273      1.662
    711.319      4.208
    711.325      2.647
    714.990      3.439
    718.654      4.230
    722.326      3.071
    723.555      1.514
    729.057      1.336
    732.717      3.299
    738.216      3.901
    743.720      3.138
    747.376      6.076
    747.382      4.515
    751.660      4.723
    754.102      5.511
    756.554      3.763
    760.836      2.801
    763.273      4.955
    764.502      3.203
    766.952      1.844
    769.394      2.828
    772.445      4.008
    774.270      6.355
    774.887      4.991
    779.167      4.614
    782.216      6.379
    784.056      4.824
    784.661      6.387
    788.947      4.644
    789.567      2.305
    792.004      4.459
    795.070      1.932
    795.672      4.275
    799.957      2.728
    803.615      5.080
    805.453      3.915
    807.292      2.555
    811.569      3.154
    812.797      1.597
    815.230      4.921
    815.848      2.972
    817.686      2.002
    819.512      3.959
    821.970      0.650
    821.973     -0.130
    823.797      2.217
    824.402      3.974
    828.682      3.598
    829.299      2.234
    833.573      3.418
    835.403      4.399
    836.009      5.766
    839.679      5.193
    839.682      4.412
    842.130      3.444
    843.969      2.279
    847.636      2.291
ENDDATA           1202
ENDSUBENT         1230
SUBENT        10534007   20210803   20220328   20220327       1490
BIB                  8         23
REACTION   (16-S-33(N,A)14-SI-30,PAR,SIG)
FACILITY   (VDG,1USALAS)
INC-SOURCE (P-LI7) Protons-on 7Li.
           Two lithium targets were used to produce the neutrons:
            1) Thin targets of both lithium metal and lithium-
               fluoride used to produce monoenergetic neutrons
               for energy region from 200 to 700 keV.
            2) Thick targets of same materials used to produce
               a continuous spectrum of neutrons in the energy
               region of 10 to 100 keV.
DETECTOR   (SOLST) Four 6-cm2 silicon surface barrier detectors.
SAMPLE     (16-S-33,ENR=0.9181) The 33S was evaporated onto 254-
           microm-thick 99.99% pure aluminum foils to an areal
           density of approximately 600 microg/ cm2. Four such
           samples were made with a total sulfur weight of 12.4
           mg.
ERR-ANALYS (ERR-S) Statistical uncertainty.
STATUS     (TABLE) Data taken from private comm., Auchampaugh,
           1975/12. Also shown in Fig.2, page 1129 of
           J,PR/C,12,1126,1975.
HISTORY    (19830830A) BIB correction.
           (19840426A) BIB, data heading correction.
           (20210803A) BP: Added sample, updated status.
ENDBIB              23
COMMON               1          3
E-LVL
MEV
         0.
ENDCOMMON            3
DATA                 3         30
EN         DATA       ERR-S
KEV        MB         MB
       11.3      1009.       101.
       12.1      1833.       127.
       13.0      5293.       200.
       14.0      6873.       208.
       15.2      3924.       143.
       16.4       751.        57.
       17.9       277.        32.
       19.6       168.        22.
       21.4       187.        21.
       23.6       246.        25.
       26.2       240.        19.
       29.1       120.        12.
       32.6       165.        14.
       36.8       266.        18.
       41.8       368.        17.
       47.9       734.        33.
       55.5       749.        19.
       65.0       846.        18.
       77.2       967.        18.
       93.2       374.         9.
      114.7       132.         5.
       194.       113.         6.
       253.        95.         6.
       310.        56.         4.
       365.        57.         4.
       421.        63.         3.
       477.       131.         6.
       533.       118.         5.
       589.        80.         4.
       643.       140.         7.
ENDDATA             32
ENDSUBENT           64
ENDENTRY             7
