ENTRY            C2662   20210926   20220328   20220327       C209
SUBENT        C2662001   20210926   20220328   20220327       C209
BIB                  8         21
TITLE      2.335-MeV isobaric analog resonance in 51V+p and the
           excited states of 51Cr studied via the (p,n) and
            (p,n gamma) reactions
AUTHOR     (J.J.Egan,K.K.Sekharan,G.C.Dutt,J.E.Wiest,F.Gabbard)
INSTITUTE  (1USAKTY)
REFERENCE  (J,PR/C,5,1562,1972)
           #doi:10.1103/PhysRevC.5.1562
FACILITY   (CYCLO,1USAKTY)
SAMPLE     Targets of 51V were made by vacuum evaporation of the
           natural vanadium metal onto carbon foils
           approximately 50 mu-g/cm2 in thickness.
ERR-ANALYS (ERR-1) The uncertainty in target thickness determined
                   by Coulomb scattering (5%),
           (ERR-2) uncertainty in the yields from the proton peak,
           (ERR-3) the beam current accuracy (2%),
           (ERR-4) the error in the measurement of the solid angle
                   subtended by the detector (1%),
           (ERR-5) an absolute uncertainty on the differential
                   cross sections (6%),
           (ERR-6) a relative uncertainty (1.5%).
HISTORY    (20210926C) OG
ENDBIB              21
COMMON               6          3
ERR-1      ERR-2      ERR-3      ERR-4      ERR-5      ERR-6
PER-CENT   PER-CENT   PER-CENT   PER-CENT   PER-CENT   PER-CENT
5.         1.5        2.         1.         6.         1.5
ENDCOMMON            3
ENDSUBENT           28
SUBENT        C2662002   20210926   20220328   20220327       C209
BIB                  5         16
REACTION   (23-V-51(P,N)24-CR-51,PAR,DA,G,REL)
DETECTOR   (GELI) 5-mm-thick Ge(Li) detector. The relative
           efficiency of the detector was measured using the known
           intensity ratios of the radiations from an 241Am
           source. The x-ray and gamma-ray radiation with energies
           of 13.9, 26.2, and 59.5 keV were employed. The absolute
           efficiency of the detector was obtained by normalizing
           the relative data to 100% at 59.5 keV after correction
           for absorption in the Be entrance window.
SAMPLE     A 7-mg/cm2-thick foil of natural vanadium (99.9% pure).
ERR-ANALYS (DATA-ERR) Errors shown in the graph. No further
            information on source of uncerainties
           (ERR-7,8.,10.) Uncertainties in the relative
           differential cross sections are 8-10%.
STATUS     (CURVE) Fig.3 (p.1564) in Phys.Rev.C,5,1562,1972 was
           digitized by GSYS2.4.7.
ENDBIB              16
COMMON               4          3
EN         E          LVL-INI    LVL-FIN
MEV        KEV        KEV        KEV
2.7        28.        777.       749.
ENDCOMMON            3
DATA                 3         13
ANG        DATA       DATA-ERR
ADEG       ARB-UNITS  ARB-UNITS
     15.160      6.393      0.166
     20.152      6.369      0.143
     29.787      6.297      0.160
     40.011      6.534      0.160
     49.761      6.426      0.143
     59.746      6.408      0.137
     69.498      6.359      0.160
     74.381      6.585      0.160
     98.990      6.405      0.160
    109.204      6.273      0.172
    118.959      6.332      0.137
    128.822      6.135      0.172
    138.469      6.473      0.160
ENDDATA             15
ENDSUBENT           40
SUBENT        C2662003   20210926   20220328   20220327       C209
BIB                  7         10
REACTION   (23-V-51(P,N)24-CR-51,,DA,,REL)
SAMPLE     The target was 15-20 keV thick.
METHOD     (TOF)
DETECTOR   (LONGC)
REL-REF    (I,,J.J.Egan+,J,PR/C,1,1767,1970)
ERR-ANALYS Errors are not shown in the graph.
           (ERR-7,8.,10.) Uncertainties in the relative
           differential cross sections are 8-10%.
STATUS     (CURVE) Fig.4 (p.1564) in Phys.Rev.C,5,1562,1972 was
           digitized by GSYS2.4.7.
ENDBIB              10
COMMON               1          3
ANG
ADEG
0.
ENDCOMMON            3
DATA                 2        157
EN         DATA
MEV        ARB-UNITS
      1.575      0.466
      1.578      0.890
      1.582      1.113
      1.587      1.254
      1.590      1.073
      1.592      0.911
      1.597      0.932
      1.600      1.033
      1.606      1.801
      1.611      2.670
      1.617      2.751
      1.622      2.954
      1.628      2.267
      1.632      2.994
      1.633      3.196
      1.641      3.520
      1.646      2.874
      1.652      2.369
      1.652      2.026
      1.661      2.552
      1.666      2.694
      1.673      2.452
      1.678      2.351
      1.683      2.836
      1.688      3.422
      1.692      2.938
      1.693      3.968
      1.699      2.958
      1.705      3.161
      1.713      4.010
      1.718      3.626
      1.723      2.940
      1.729      2.819
      1.734      2.718
      1.740      3.304
      1.745      4.415
      1.753      3.871
      1.758      4.194
      1.760      4.598
      1.770      4.215
      1.771      5.225
      1.779      4.943
      1.785      5.670
      1.791      6.903
      1.797      6.014
      1.804      5.672
      1.809      5.429
      1.815      5.692
      1.822      7.269
      1.828      7.935
      1.832      6.683
      1.837      7.148
      1.844      6.179
      1.849      5.715
      1.856      4.968
      1.861      6.120
      1.869      5.292
      1.876      7.009
      1.878      8.322
      1.890      6.445
      1.893      5.758
      1.897      7.758
      1.904      8.748
      1.911      8.688
      1.918      6.325
      1.923      7.275
      1.928      9.033
      1.936     10.669
      1.941      9.235
      1.946      9.963
      1.952      8.024
      1.957      8.650
      1.966      9.015
      1.968      9.964
      1.977     10.692
      1.982     12.429
      1.990     10.127
      1.996     11.117
      1.999     12.127
      2.009     11.280
      2.014      8.351
      2.021      9.685
      2.026     13.745
      2.033     14.493
      2.037     16.291
      2.045     14.514
      2.053     14.252
      2.058     16.474
      2.064     15.282
      2.072     16.959
      2.077     16.010
      2.084     12.961
      2.089     20.152
      2.094     20.556
      2.100     14.517
      2.106     13.972
      2.113     18.275
      2.120     17.225
      2.126     17.771
      2.133     20.518
      2.140     23.177
      2.147     16.634
      2.155     13.728
      2.164     14.134
      2.166     14.862
      2.172     15.267
      2.175     17.449
      2.184     21.976
      2.194     26.907
      2.198     24.807
      2.201     20.688
      2.210     34.909
      2.212     42.101
      2.223     41.619
      2.230     28.209
      2.237     20.535
      2.245     23.446
      2.246     20.134
      2.254     23.206
      2.260     25.066
      2.268     27.411
      2.274     30.563
      2.281     30.888
      2.285     35.737
      2.293     36.304
      2.301     35.014
      2.307     38.489
      2.313     33.643
      2.321     31.545
      2.325     38.332
      2.334     37.769
      2.339     84.953
      2.344     80.995
      2.349     81.966
      2.352     74.696
      2.353     72.757
      2.356     60.962
      2.360     54.984
      2.365     47.714
      2.367     39.717
      2.371     38.586
      2.373     32.608
      2.377     34.144
      2.385     27.279
      2.394     30.190
      2.399     37.463
      2.408     35.445
      2.414     29.306
      2.420     34.802
      2.427     38.843
      2.435     40.865
      2.445     37.151
      2.447     35.132
      2.454     36.346
      2.461     41.599
      2.469     47.256
      2.474     36.027
ENDDATA            159
ENDSUBENT          178
SUBENT        C2662004   20210926   20220328   20220327       C209
BIB                  5          7
REACTION   (23-V-51(P,EL)23-V-51,,DA)
DETECTOR   (SIBAR) Three silicon surface-barrier detectors
           operated simultaneously.
SAMPLE     The target was 0.64 keV thick for 2-MeV protons.
ERR-ANALYS Errors are not shown in the graph.
STATUS     (CURVE) Fig.5 (p.1565) in Phys.Rev.C,5,1562,1972 was
           digitized by GSYS2.4.7.
ENDBIB               7
NOCOMMON             0          0
DATA                 3        425
ANG        EN         DATA-CM
ADEG       MEV        MB/SR
        89.     2.1812    591.618
        89.     2.1835    605.564
        89.     2.1858    601.136
        89.     2.1864    588.958
        89.     2.1880    607.732
        89.     2.1886    600.388
        89.     2.1890    594.977
        89.     2.1904    602.919
        89.     2.1923    601.002
        89.     2.1942    604.887
        89.     2.1961    601.809
        89.     2.1969    616.322
        89.     2.1994    604.160
        89.     2.2005    602.043
        89.     2.2022    603.799
        89.     2.2042    608.265
        89.     2.2050    600.343
        89.     2.2070    593.011
        89.     2.2098    595.357
        89.     2.2108    599.622
        89.     2.2122    597.120
        89.     2.2143    586.502
        89.     2.2153    581.096
        89.     2.2170    602.192
        89.     2.2184    584.799
        89.     2.2204    591.586
        89.     2.2223    593.536
        89.     2.2231    559.312
        89.     2.2246    584.274
        89.     2.2264    596.861
        89.     2.2281    574.635
        89.     2.2295    579.483
        89.     2.2315    567.317
        89.     2.2343    582.815
        89.     2.2361    574.708
        89.     2.2378    569.308
        89.     2.2385    604.513
        89.     2.2406    576.295
        89.     2.2427    584.825
        89.     2.2442    593.154
        89.     2.2456    574.987
        89.     2.2464    567.065
        89.     2.2490    572.503
        89.     2.2503    575.609
        89.     2.2525    576.403
        89.     2.2537    566.937
        89.     2.2554    574.495
        89.     2.2572    571.417
        89.     2.2593    567.375
        89.     2.2597    563.704
        89.     2.2629    563.539
        89.     2.2640    568.191
        89.     2.2652    559.885
        89.     2.2662    570.145
        89.     2.2688    572.489
        89.     2.2699    558.960
        89.     2.2722    554.146
        89.     2.2740    561.511
        89.     2.2749    543.727
        89.     2.2768    536.008
        89.     2.2786    540.086
        89.     2.2803    545.903
        89.     2.2823    543.601
        89.     2.2833    534.907
        89.     2.2849    532.793
        89.     2.2869    531.458
        89.     2.2880    534.562
        89.     2.2897    537.865
        89.     2.2919    541.946
        89.     2.2933    527.841
        89.     2.2953    540.430
        89.     2.2957    554.552
        89.     2.2978    551.670
        89.     2.2997    549.366
        89.     2.3012    550.540
        89.     2.3029    543.206
        89.     2.3049    531.040
        89.     2.3064    531.053
        89.     2.3076    539.574
        89.     2.3102    541.145
        89.     2.3117    515.823
        89.     2.3134    545.234
        89.     2.3145    537.316
        89.     2.3164    535.399
        89.     2.3185    535.417
        89.     2.3195    526.530
        89.     2.3206    534.082
        89.     2.3224    535.646
        89.     2.3234    529.273
        89.     2.3258    535.677
        89.     2.3281    529.508
        89.     2.3302    522.758
        89.     2.3329    511.372
        89.     2.3345    522.797
        89.     2.3364    514.112
        89.     2.3381    517.028
        89.     2.3392    514.717
        89.     2.3407    521.693
        89.     2.3434    512.240
        89.     2.3444    517.665
        89.     2.3459    515.358
        89.     2.3482    515.378
        89.     2.3521    513.093
        89.     2.3527    513.098
        89.     2.3544    508.085
        89.     2.3563    507.909
        89.     2.3589    508.126
        89.     2.3598    512.775
        89.     2.3617    512.212
        89.     2.3634    508.553
        89.     2.3647    503.924
        89.     2.3658    507.801
        89.     2.3684    512.273
        89.     2.3696    508.029
        89.     2.3714    509.979
        89.     2.3728    498.388
        89.     2.3747    500.919
        89.     2.3763    505.962
        89.     2.3782    497.857
        89.     2.3791    503.860
        89.     2.3814    501.753
        89.     2.3829    494.805
        89.     2.3844    502.554
        89.     2.3860    503.923
        89.     2.3882    495.432
        89.     2.3895    493.317
        89.     2.3914    491.206
        89.     2.3930    495.669
       124.     2.2248     45.248
       124.     2.2654    104.761
       124.     2.2682    107.710
       124.     2.2700    109.285
       124.     2.2710    108.211
       124.     2.2719    106.550
       124.     2.2751    105.877
       124.     2.2760    108.231
       124.     2.2792    108.145
       124.     2.2813    107.468
       124.     2.2835    107.281
       124.     2.2859    108.074
       124.     2.2871    107.001
       124.     2.2893    109.262
       124.     2.2914    106.136
       124.     2.2933    104.479
       124.     2.2951    105.270
       124.     2.2974    106.160
       124.     2.2990    110.182
       124.     2.3007    108.426
       124.     2.3020    106.472
       124.     2.3039    108.242
       124.     2.3058    106.095
       124.     2.3073    105.317
       124.     2.3088    105.715
       124.     2.3112    105.920
       124.     2.3135    103.774
       124.     2.3145    106.913
       124.     2.3162    105.744
       124.     2.3189    104.873
       124.     2.3191    103.600
       124.     2.3211    104.784
       124.     2.3240    102.052
       124.     2.3253    103.233
       124.     2.3264    100.691
       124.     2.3290    102.170
       124.     2.3312    102.962
       124.     2.3337    101.111
       124.     2.3354    101.607
       124.     2.3366     94.854
       124.     2.3397     97.315
       124.     2.3405     98.003
       124.     2.3425     96.934
       124.     2.3444     95.766
       124.     2.3448     98.804
       124.     2.3472     99.793
       124.     2.3494    101.956
       124.     2.3505    101.177
       124.     2.3522     98.050
       124.     2.3545     99.527
       124.     2.3554    100.217
       124.     2.3563     98.947
       124.     2.3591     99.056
       124.     2.3610    101.022
       124.     2.3621    101.124
       124.     2.3642    101.622
       124.     2.3659     98.789
       124.     2.3670    100.262
       124.     2.3683    101.344
       124.     2.3709    101.257
       124.     2.3724     98.716
       124.     2.3743     96.471
       124.     2.3750    101.273
       124.     2.3774    101.087
       124.     2.3788     98.741
       124.     2.3804     99.825
       124.     2.3823    101.987
       124.     2.3845    100.429
       124.     2.3859     97.496
       124.     2.3870    101.124
       124.     2.3902     99.667
       124.     2.3924    100.068
       124.     2.3945     99.880
       124.     2.3952    100.666
       140.     2.2248     45.248
       140.     2.2575     86.513
       140.     2.2600     88.286
       140.     2.2612     87.115
       140.     2.2630     88.004
       140.     2.2653     87.033
       140.     2.2673     89.587
       140.     2.2679     85.084
       140.     2.2686     88.613
       140.     2.2696     85.777
       140.     2.2720     86.178
       140.     2.2728     85.201
       140.     2.2756     85.898
       140.     2.2762     84.529
       140.     2.2779     83.556
       140.     2.2791     86.500
       140.     2.2814     86.410
       140.     2.2838     84.755
       140.     2.2864     85.451
       140.     2.2876     84.476
       140.     2.2900     84.681
       140.     2.2913     85.470
       140.     2.2932     84.302
       140.     2.2935     85.381
       140.     2.2958     84.998
       140.     2.2970     88.822
       140.     2.2990     86.283
       140.     2.3012     82.668
       140.     2.3042     83.659
       140.     2.3059     81.805
       140.     2.3076     82.497
       140.     2.3096     84.072
       140.     2.3125     82.614
       140.     2.3143     83.601
       140.     2.3156     84.684
       140.     2.3170     81.065
       140.     2.3192     80.976
       140.     2.3207     82.842
       140.     2.3218     81.084
       140.     2.3237     79.426
       140.     2.3250     80.705
       140.     2.3274     80.910
       140.     2.3290     79.251
       140.     2.3320     79.361
       140.     2.3341     75.647
       140.     2.3358     73.597
       140.     2.3372     75.855
       140.     2.3387     77.134
       140.     2.3410     76.360
       140.     2.3425     71.567
       140.     2.3443     79.605
       140.     2.3454     80.980
       140.     2.3472     82.261
       140.     2.3486     80.601
       140.     2.3503     76.788
       140.     2.3525     76.699
       140.     2.3544     80.330
       140.     2.3553     81.705
       140.     2.3575     81.028
       140.     2.3588     81.719
       140.     2.3611     80.748
       140.     2.3624     81.635
       140.     2.3631     80.756
       140.     2.3658     80.668
       140.     2.3691     79.604
       140.     2.3693     80.780
       140.     2.3725     78.932
       140.     2.3747     80.312
       140.     2.3751     81.978
       140.     2.3775     81.008
       140.     2.3796     81.212
       140.     2.3813     82.198
       140.     2.3822     79.753
       140.     2.3860     80.160
       140.     2.3876     79.481
       140.     2.3888     77.233
       140.     2.3903     79.001
       163.     2.1700     71.380
       163.     2.1715     73.149
       163.     2.1739     72.865
       163.     2.1741     72.180
       163.     2.1749     71.693
       163.     2.1765     71.896
       163.     2.1782     72.196
       163.     2.1792     71.318
       163.     2.1808     71.423
       163.     2.1820     71.917
       163.     2.1840     72.513
       163.     2.1864     72.522
       163.     2.1881     72.333
       163.     2.1898     70.577
       163.     2.1924     71.076
       163.     2.1945     69.517
       163.     2.1956     72.362
       163.     2.1973     71.879
       163.     2.1984     70.023
       163.     2.1999     70.714
       163.     2.2018     71.309
       163.     2.2033     69.356
       163.     2.2044     69.360
       163.     2.2061     70.542
       163.     2.2078     67.807
       163.     2.2097     69.283
       163.     2.2110     69.974
       163.     2.2130     70.569
       163.     2.2149     70.577
       163.     2.2162     70.092
       163.     2.2170     69.409
       163.     2.2182     70.198
       163.     2.2194     66.383
       163.     2.2209     65.997
       163.     2.2231     69.238
       163.     2.2253     70.520
       163.     2.2254     69.540
       163.     2.2276     68.668
       163.     2.2295     70.536
       163.     2.2310     67.506
       163.     2.2321     68.391
       163.     2.2344     67.323
       163.     2.2356     69.385
       163.     2.2370     67.529
       163.     2.2396     67.441
       163.     2.2402     66.562
       163.     2.2420     68.724
       163.     2.2439     69.907
       163.     2.2465     67.958
       163.     2.2484     68.357
       163.     2.2501     67.972
       163.     2.2521     67.392
       163.     2.2540     67.400
       163.     2.2549     66.130
       163.     2.2574     67.021
       163.     2.2598     67.618
       163.     2.2615     66.548
       163.     2.2633     66.849
       163.     2.2652     65.779
       163.     2.2660     66.761
       163.     2.2680     66.573
       163.     2.2701     65.700
       163.     2.2712     66.194
       163.     2.2731     65.614
       163.     2.2753     67.483
       163.     2.2757     65.330
       163.     2.2776     66.513
       163.     2.2789     65.636
       163.     2.2813     65.352
       163.     2.2849     64.974
       163.     2.2856     63.998
       163.     2.2871     64.591
       163.     2.2882     65.085
       163.     2.2894     64.012
       163.     2.2908     64.802
       163.     2.2929     64.320
       163.     2.2938     65.107
       163.     2.2944     66.089
       163.     2.2957     65.213
       163.     2.2970     64.238
       163.     2.2995     63.366
       163.     2.3011     65.234
       163.     2.3024     64.357
       163.     2.3045     63.680
       163.     2.3062     62.120
       163.     2.3075     63.202
       163.     2.3094     62.132
       163.     2.3114     62.826
       163.     2.3129     62.342
       163.     2.3144     63.327
       163.     2.3157     62.059
       163.     2.3170     62.750
       163.     2.3189     63.443
       163.     2.3208     62.470
       163.     2.3223     61.595
       163.     2.3244     60.624
       163.     2.3251     59.255
       163.     2.3274     60.635
       163.     2.3292     59.174
       163.     2.3315     59.868
       163.     2.3326     57.228
       163.     2.3342     54.785
       163.     2.3351     53.810
       163.     2.3371     61.359
       163.     2.3395     61.368
       163.     2.3409     56.575
       163.     2.3421     60.693
       163.     2.3449     64.622
       163.     2.3451     62.566
       163.     2.3479     64.144
       163.     2.3490     60.133
       163.     2.3504     55.241
       163.     2.3522     60.733
       163.     2.3544     62.602
       163.     2.3555     63.880
       163.     2.3578     65.260
       163.     2.3602     67.816
       163.     2.3607     65.663
       163.     2.3626     63.516
       163.     2.3642     61.073
       163.     2.3649     63.525
       163.     2.3671     63.631
       163.     2.3694     64.228
       163.     2.3712     62.962
       163.     2.3728     62.184
       163.     2.3740     64.638
       163.     2.3755     63.566
       163.     2.3776     62.105
       163.     2.3796     65.052
       163.     2.3798     63.485
       163.     2.3826     63.398
       163.     2.3849     62.526
       163.     2.3871     62.926
       163.     2.3886     62.247
       163.     2.3905     62.254
       163.     2.3930     61.088
       163.     2.3950     61.880
       163.     2.3974     61.106
       163.     2.3997     60.429
       163.     2.4010     62.001
       163.     2.4028     62.498
       163.     2.4047     63.289
       163.     2.4070     61.829
       163.     2.4092     62.033
       163.     2.4102     60.764
       163.     2.4128     61.166
ENDDATA            427
ENDSUBENT          439
SUBENT        C2662005   20210926   20220328   20220327       C209
BIB                  6          9
REACTION   (23-V-51(P,N)24-CR-51,,SIG)
SAMPLE     Target thickness about of 1 keV
DETECTOR   (D4PI)
ERR-ANALYS Errors are not shown in the graph.
FLAG       (1.) The 1-st measurement
           (2.) The 2-nd measurement
           (3.) The 3-rd measurement
STATUS     (CURVE) Fig.7 (p.1566) in Phys.Rev.C,5,1562,1972 was
           digitized by GSYS2.4.7.
ENDBIB               9
NOCOMMON             0          0
DATA                 3         74
EN         DATA       FLAG
MEV        MB         NO-DIM
     2.3002     15.797         2.
     2.3050     17.609         2.
     2.3099     21.704         2.
     2.3148     19.863         2.
     2.3170     15.929         1.
     2.3194     17.200         1.
     2.3200     18.934         2.
     2.3219     19.293         1.
     2.3220     21.393         1.
     2.3227     20.204         2.
     2.3244     23.030         1.
     2.3249     20.288         2.
     2.3271     23.113         1.
     2.3273     23.843         1.
     2.3274     21.468         2.
     2.3275     24.299         3.
     2.3288     27.583         3.
     2.3296     27.489         1.
     2.3301     28.766         2.
     2.3306     28.764         3.
     2.3317     34.514         3.
     2.3321     31.956         1.
     2.3322     32.869         1.
     2.3326     30.037         2.
     2.3330     34.328         3.
     2.3341     41.083         3.
     2.3347     45.738         2.
     2.3351     47.198         2.
     2.3355     50.576         3.
     2.3369     65.183         1.
     2.3369     53.311         3.
     2.3370     66.096         1.
     2.3374     68.470         2.
     2.3384     68.649         3.
     2.3393     47.094         3.
     2.3396     67.459         1.
     2.3397     66.728         1.
     2.3401     58.964         2.
     2.3408     42.432         3.
     2.3420     35.214         1.
     2.3421     33.752         1.
     2.3422     33.021         3.
     2.3427     30.097         2.
     2.3436     27.172         3.
     2.3445     27.991         1.
     2.3445     27.991         2.
     2.3447     28.904         3.
     2.3451     26.985         2.
     2.3462     32.552         3.
     2.3472     34.102         2.
     2.3475     33.370         2.
     2.3477     34.283         3.
     2.3490     33.000         3.
     2.3496     33.455         1.
     2.3499     31.628         2.
     2.3501     32.175         2.
     2.3502     34.275         3.
     2.3514     31.532         3.
     2.3520     32.352         1.
     2.3521     31.621         1.
     2.3526     33.538         2.
     2.3529     33.811         3.
     2.3544     30.244         1.
     2.3550     24.215         2.
     2.3576     18.271         2.
     2.3594     22.649         3.
     2.3601     21.003         2.
     2.3625     20.996         2.
     2.3651     16.513         2.
     2.3652     17.518         2.
     2.3675     17.510         2.
     2.3698     15.311         2.
     2.3724     14.390         2.
     2.3750     14.474         2.
ENDDATA             76
ENDSUBENT           90
SUBENT        C2662006   20210926   20220328   20220327       C209
BIB                  5         18
REACTION   (23-V-51(P,N)24-CR-51,PAR,DA)
LEVEL-PROP (24-CR-51,E-LVL=0.,SPIN=3.5,PARITY=-1.)
           (24-CR-51,E-LVL=0.749,SPIN=1.5,PARITY=-1.)
           (24-CR-51,E-LVL=0.777,SPIN=0.5,PARITY=-1.)
           (24-CR-51,E-LVL=1.165,SPIN=4.5,PARITY=-1.)
           (24-CR-51,E-LVL=1.353,SPIN=2.5,PARITY=-1.)
           (24-CR-51,E-LVL=1.480,SPIN=5.5,PARITY=-1.)
           (24-CR-51,E-LVL=1.1557,SPIN=2.5/3.5,PARITY=-1.)
           (24-CR-51,E-LVL=1.899,SPIN=1.5,PARITY=-1.)
           (24-CR-51,E-LVL=2.001,SPIN=2.5)
           (24-CR-51,E-LVL=2.256,SPIN=7.5/8.5)
           (24-CR-51,E-LVL=2.313,SPIN=3.5,PARITY=-1.)
           (24-CR-51,E-LVL=2.380,SPIN=3.5/4.5)
SAMPLE     The target was 30 keV thick.
ERR-ANALYS (DATA-ERR) Errors shown in the graph. No further
            information on source of uncerainties
STATUS     (CURVE) Figs.8-9 (p.1566) in Phys.Rev.C,5,1562,1972
           was digitized by GSYS2.4.7.
ENDBIB              18
NOCOMMON             0          0
DATA                 6        302
EN         E-LVL      E-LVL      ANG-CM     DATA-CM    DATA-ERR
MEV        KEV        KEV        ADEG       MB/SR      MB/SR
      4.013         0.                 0.663      5.187      0.325
      4.013         0.                10.607      5.462      0.308
      4.013         0.                20.563      5.244      0.291
      4.013         0.                30.804      5.334      0.325
      4.013         0.                41.083      5.167      0.291
      4.013         0.                51.017      5.102      0.325
      4.013         0.                61.288      4.987      0.308
      4.013         0.                71.560      4.871      0.257
      4.013         0.                81.223      4.413      0.359
      4.013         0.               101.664      4.849      0.308
      4.013         0.               112.572      4.905      0.291
      4.013         0.               121.830      4.926      0.342
      4.013         0.               131.078      5.015      0.343
      4.013         0.               140.980      5.156      0.377
      4.013         0.               150.895      5.212      0.325
      4.013         0.               155.846      5.282      0.325
      4.013       749.       777.      0.300      1.609      0.119
      4.013       749.       777.     10.583      1.712      0.128
      4.013       749.       777.     20.845      1.662      0.145
      4.013       749.       777.     30.755      1.740      0.136
      4.013       749.       777.     41.009      1.741      0.145
      4.013       749.       777.     51.583      1.801      0.102
      4.013       749.       777.     61.508      1.794      0.085
      4.013       749.       777.     71.760      1.804      0.128
      4.013       749.       777.     81.031      1.745      0.136
      4.013       749.       777.    101.856      1.832      0.153
      4.013       749.       777.    112.116      1.791      0.145
      4.013       749.       777.    121.720      1.724      0.162
      4.013       749.       777.    130.985      1.699      0.145
      4.013       749.       777.    141.242      1.684      0.136
      4.013       749.       777.    151.510      1.600      0.119
      4.013       749.       777.    156.800      1.609      0.128
      4.013      1165.                 2.481      3.207      0.241
      4.013      1165.                10.423      3.195      0.258
      4.013      1165.                21.018      3.078      0.292
      4.013      1165.                30.939      3.097      0.275
      4.013      1165.                41.190      3.134      0.292
      4.013      1165.                51.785      3.016      0.206
      4.013      1165.                61.720      2.863      0.275
      4.013      1165.                71.632      3.003      0.258
      4.013      1165.                81.573      2.782      0.240
      4.013      1165.               101.741      2.890      0.223
      4.013      1165.               112.325      2.909      0.292
      4.013      1165.               121.924      2.825      0.189
      4.013      1165.               131.503      2.982      0.223
      4.013      1165.               141.433      2.898      0.240
      4.013      1165.               151.690      2.866      0.240
      4.013      1165.               156.653      2.850      0.258
      4.013      1353.                 0.658      1.773      0.118
      4.013      1353.                10.904      1.850      0.126
      4.013      1353.                21.166      1.809      0.143
      4.013      1353.                31.423      1.801      0.134
      4.013      1353.                41.679      1.802      0.109
      4.013      1353.                51.941      1.761      0.101
      4.013      1353.                61.880      1.669      0.134
      4.013      1353.                72.463      1.695      0.126
      4.013      1353.                81.418      1.537      0.118
      4.013      1353.               101.920      1.614      0.109
      4.013      1353.               113.160      1.682      0.143
      4.013      1353.               122.092      1.691      0.101
      4.013      1353.               131.354      1.701      0.109
      4.013      1353.               141.949      1.643      0.118
      4.013      1353.               151.866      1.711      0.118
      4.013      1353.               157.163      1.686      0.126
      4.013      1480.                 1.221      1.912      0.127
      4.013      1480.                10.421      1.990      0.127
      4.013      1480.                20.976      1.907      0.144
      4.013      1480.                30.519      1.925      0.144
      4.013      1480.                41.734      1.834      0.136
      4.013      1480.                51.269      1.886      0.110
      4.013      1480.                62.161      1.769      0.093
      4.013      1480.                72.021      1.839      0.127
      4.013      1480.                82.261      1.696      0.110
      4.013      1480.               101.324      1.826      0.136
      4.013      1480.               111.215      1.769      0.136
      4.013      1480.               121.387      1.906      0.093
      4.013      1480.               130.938      1.890      0.136
      4.013      1480.               141.150      1.866      0.093
      4.013      1480.               150.043      1.851      0.085
      4.013      1480.               154.993      1.801      0.127
      4.013      1557.                 0.231      2.053      0.394
      4.013      1557.                 9.179      2.142      0.352
      4.013      1557.                19.799      2.007      0.451
      4.013      1557.                29.307      2.011      0.465
      4.013      1557.                40.739      1.890      0.465
      4.013      1557.                49.962      1.965      0.366
      4.013      1557.                61.396      1.830      0.479
      4.013      1557.                71.442      1.863      0.451
      4.013      1557.                81.529      1.671      0.408
      4.013      1557.               100.813      1.694      0.451
      4.013      1557.               111.133      1.713      0.465
      4.013      1557.               120.899      1.789      0.436
      4.013      1557.               130.945      1.822      0.451
      4.013      1557.               140.998      1.813      0.408
      4.013      1557.               154.849      1.833      0.436
      4.013      1899.                 0.933      0.166      0.028
      4.013      1899.                10.782      0.185      0.035
      4.013      1899.                20.955      0.206      0.035
      4.013      1899.                31.181      0.192      0.035
      4.013      1899.                42.404      0.174      0.033
      4.013      1899.                51.899      0.207      0.035
      4.013      1899.                63.124      0.187      0.035
      4.013      1899.                72.655      0.198      0.041
      4.013      1899.                82.541      0.191      0.033
      4.013      1899.               102.587      0.215      0.033
      4.013      1899.               111.549      0.168      0.021
      4.013      1899.               121.691      0.209      0.034
      4.013      1899.               131.891      0.213      0.032
      4.013      1899.               141.816      0.181      0.035
      4.013      1899.               150.688      0.192      0.025
      4.013      1899.               155.631      0.189      0.030
      4.013      2001.                 1.327      0.485      0.034
      4.013      2001.                10.874      0.486      0.055
      4.013      2001.                20.764      0.466      0.052
      4.013      2001.                31.646      0.439      0.045
      4.013      2001.                41.851      0.440      0.055
      4.013      2001.                51.746      0.413      0.045
      4.013      2001.                62.887      0.493      0.055
      4.013      2001.                72.479      0.425      0.048
      4.013      2001.                83.298      0.495      0.069
      4.013      2001.               102.074      0.479      0.058
      4.013      2001.               111.676      0.397      0.052
      4.013      2001.               122.138      0.508      0.062
      4.013      2001.               131.733      0.436      0.055
      4.013      2001.               142.211      0.523      0.051
      4.013      2001.               155.720      0.507      0.048
      5.016         0.                 0.126      4.557      0.305
      5.016         0.                 9.237      4.564      0.277
      5.016         0.                20.272      4.392      0.277
      5.016         0.                30.536      4.094      0.277
      5.016         0.                40.774      3.894      0.291
      5.016         0.                50.458      3.763      0.222
      5.016         0.                60.410      3.631      0.249
      5.016         0.                70.332      3.611      0.277
      5.016         0.                80.012      3.493      0.333
      5.016         0.                95.518      3.642      0.374
      5.016         0.               100.059      3.701      0.291
      5.016         0.               109.404      3.832      0.305
      5.016         0.               119.870      3.784      0.263
      5.016         0.               129.513      3.805      0.291
      5.016         0.               139.369      4.033      0.277
      5.016         0.               149.504      4.221      0.290
      5.016       749.       777.      0.631      1.578      0.120
      5.016       749.       777.      9.737      1.612      0.109
      5.016       749.       777.     21.519      1.667      0.126
      5.016       749.       777.     30.884      1.750      0.110
      5.016       749.       777.     41.320      1.838      0.110
      5.016       749.       777.     50.695      1.867      0.115
      5.016       749.       777.     60.851      2.026      0.131
      5.016       749.       777.     71.034      2.027      0.109
      5.016       749.       777.     80.685      2.011      0.088
      5.016       749.       777.     95.701      1.968      0.110
      5.016       749.       777.    100.788      1.996      0.115
      5.016       749.       777.    109.640      1.953      0.137
      5.016       749.       777.    120.377      1.855      0.104
      5.016       749.       777.    129.495      1.823      0.115
      5.016       749.       777.    139.709      1.654      0.109
      5.016       749.       777.    149.375      1.551      0.104
      5.016      1165.                 0.236      3.294      0.303
      5.016      1165.                 9.916      3.308      0.275
      5.016      1165.                21.209      3.337      0.317
      5.016      1165.                29.547      3.296      0.276
      5.016      1165.                40.574      3.228      0.399
      5.016      1165.                50.795      3.146      0.289
      5.016      1165.                61.015      3.106      0.275
      5.016      1165.                71.240      2.914      0.275
      5.016      1165.                81.730      2.846      0.220
      5.016      1165.                95.979      2.930      0.276
      5.016      1165.               100.816      3.041      0.289
      5.016      1165.               111.300      3.138      0.344
      5.016      1165.               120.979      3.180      0.262
      5.016      1165.               130.385      3.374      0.289
      5.016      1165.               140.333      3.402      0.220
      5.016      1165.               149.744      3.430      0.248
      5.016      1353.                 0.204      1.947      0.177
      5.016      1353.                10.138      1.921      0.190
      5.016      1353.                20.605      2.017      0.231
      5.016      1353.                29.466      1.950      0.190
      5.016      1353.                41.276      2.032      0.204
      5.016      1353.                50.133      2.088      0.218
      5.016      1353.                60.337      1.993      0.204
      5.016      1353.                70.270      2.008      0.177
      5.016      1353.                80.743      1.913      0.136
      5.016      1353.                95.236      1.996      0.245
      5.016      1353.               100.874      2.010      0.177
      5.016      1353.               110.001      1.997      0.191
      5.016      1353.               120.203      1.985      0.204
      5.016      1353.               129.865      2.067      0.163
      5.016      1353.               140.069      2.000      0.163
      5.016      1353.               149.465      1.974      0.177
      5.016      1480.                 0.180      2.152      0.176
      5.016      1480.                 9.590      2.159      0.190
      5.016      1480.                20.067      2.194      0.231
      5.016      1480.                28.678      2.174      0.190
      5.016      1480.                40.471      2.305      0.204
      5.016      1480.                50.145      2.326      0.218
      5.016      1480.                59.819      2.347      0.204
      5.016      1480.                70.337      2.246      0.177
      5.016      1480.                80.248      2.376      0.205
      5.016      1480.                94.480      2.442      0.245
      5.016      1480.                99.303      2.500      0.204
      5.016      1480.               110.065      2.481      0.300
      5.016      1480.               119.214      2.461      0.272
      5.016      1480.               129.157      2.482      0.285
      5.016      1480.               138.828      2.516      0.245
      5.016      1480.               148.759      2.578      0.176
      5.016      1557.                 0.058      2.977      0.301
      5.016      1557.                11.063      2.948      0.274
      5.016      1557.                20.993      2.905      0.192
      5.016      1557.                30.649      2.780      0.260
      5.016      1557.                41.385      2.751      0.274
      5.016      1557.                51.315      2.708      0.301
      5.016      1557.                61.244      2.638      0.260
      5.016      1557.                71.175      2.623      0.260
      5.016      1557.                81.106      2.594      0.246
      5.016      1557.                96.416      2.701      0.233
      5.016      1557.               100.712      2.714      0.205
      5.016      1557.               111.182      2.725      0.219
      5.016      1557.               121.388      2.792      0.288
      5.016      1557.               131.055      2.832      0.274
      5.016      1557.               140.988      2.830      0.246
      5.016      1557.               149.045      2.883      0.192
      5.016      1899.                 0.050      0.839      0.059
      5.016      1899.                10.789      0.837      0.057
      5.016      1899.                21.240      0.872      0.059
      5.016      1899.                30.643      0.859      0.065
      5.016      1899.                41.091      0.900      0.057
      5.016      1899.                51.543      0.933      0.059
      5.016      1899.                61.441      0.998      0.051
      5.016      1899.                71.931      0.961      0.070
      5.016      1899.                81.877      0.938      0.049
      5.016      1899.                96.363      0.957      0.054
      5.016      1899.               102.006      0.947      0.067
      5.016      1899.               111.676      0.936      0.054
      5.016      1899.               120.823      0.902      0.057
      5.016      1899.               131.304      0.881      0.054
      5.016      1899.               140.467      0.814      0.070
      5.016      1899.               150.413      0.790      0.062
      5.016      2001.                 0.090      1.873      0.151
      5.016      2001.                11.309      1.874      0.144
      5.016      2001.                20.928      1.855      0.151
      5.016      2001.                30.818      1.822      0.164
      5.016      2001.                41.246      1.769      0.144
      5.016      2001.                50.870      1.729      0.151
      5.016      2001.                61.292      1.703      0.130
      5.016      2001.                71.710      1.697      0.178
      5.016      2001.                81.345      1.603      0.185
      5.016      2001.                96.822      1.680      0.151
      5.016      2001.               101.355      1.722      0.199
      5.016      2001.               110.958      1.791      0.198
      5.016      2001.               120.292      1.868      0.253
      5.016      2001.               130.694      1.945      0.212
      5.016      2001.               139.771      1.966      0.219
      5.016      2001.               150.693      2.118      0.199
      5.016      2256.                 0.098      0.516      0.130
      5.016      2256.                10.824      0.476      0.143
      5.016      2256.                21.535      0.545      0.150
      5.016      2256.                32.527      0.512      0.143
      5.016      2256.                41.373      0.506      0.143
      5.016      2256.                51.830      0.466      0.150
      5.016      2256.                61.201      0.535      0.129
      5.016      2256.                72.197      0.474      0.143
      5.016      2256.                81.574      0.502      0.123
      5.016      2256.                97.124      0.456      0.075
      5.016      2256.               101.141      0.483      0.116
      5.016      2256.               111.859      0.498      0.150
      5.016      2256.               120.695      0.560      0.143
      5.016      2256.               131.147      0.561      0.136
      5.016      2256.               140.529      0.548      0.143
      5.016      2256.               150.174      0.576      0.170
      5.016      2313.                 0.034      2.026      0.259
      5.016      2313.                10.663      2.101      0.287
      5.016      2313.                20.782      2.095      0.300
      5.016      2313.                31.989      1.993      0.246
      5.016      2313.                41.011      2.108      0.273
      5.016      2313.                51.388      2.129      0.300
      5.016      2313.                60.694      2.176      0.259
      5.016      2313.                71.596      2.225      0.259
      5.016      2313.                80.930      2.163      0.246
      5.016      2313.                95.804      2.296      0.314
      5.016      2313.               101.362      2.422      0.232
      5.016      2313.               110.959      2.374      0.300
      5.016      2313.               120.253      2.462      0.287
      5.016      2313.               130.350      2.537      0.382
      5.016      2313.               139.649      2.612      0.395
      5.016      2313.               149.214      2.687      0.396
      5.016      2380.                 0.855      2.907      0.522
      5.016      2380.                12.572      3.136      0.577
      5.016      2380.                22.174      3.115      0.605
      5.016      2380.                32.850      2.986      0.357
      5.016      2380.                41.914      3.021      0.440
      5.016      2380.                52.846      3.029      0.440
      5.016      2380.                61.919      2.953      0.468
      5.016      2380.                71.512      3.043      0.385
      5.016      2380.                83.521      2.915      0.302
      5.016      2380.                97.371      3.145      0.357
      5.016      2380.               101.899      3.231      0.467
      5.016      2380.               111.214      3.486      0.358
      5.016      2380.               121.617      3.439      0.412
      5.016      2380.               132.534      3.667      0.495
      5.016      2380.               141.055      3.838      0.797
      5.016      2380.               151.182      3.929      0.798
ENDDATA            304
ENDSUBENT          327
SUBENT        C2662007   20210926   20220328   20220327       C209
BIB                  5          9
REACTION   (23-V-51(P,N)24-CR-51,PAR,DA,G,REL)
DETECTOR   (GELI) A 35-cm3 Ge(Li) detector.
SAMPLE     A 7-mg/cm2-thick foil of natural vanadium (99.9% pure)
ERR-ANALYS (DATA-ERR) Errors shown in the graph. No further
            information on source of uncerainties
           (ERR-7,8.,10.) Uncertainties in the relative
           differential cross sections are 8-10%.
STATUS     (CURVE) Fig.10 (p.1567) in Phys.Rev.C,5,1562,1972 was
           digitized by GSYS2.4.7.
ENDBIB               9
NOCOMMON             0          0
DATA                 5         66
EN         E          COS        DATA       DATA-ERR
MEV        KEV        NO-DIM     ARB-UNITS  ARB-UNITS
        4.0     1164.5     -0.861      8.197      0.124
        4.0     1164.5     -0.702      8.234      0.104
        4.0     1164.5     -0.498      8.901      0.111
        4.0     1164.5     -0.259      8.986      0.124
        4.0     1164.5      0.002      8.920      0.091
        4.0     1164.5      0.259      9.004      0.104
        4.0     1164.5      0.501      8.783      0.111
        4.0     1164.5      0.706      8.400      0.104
        4.0     1164.5      0.862      8.190      0.118
        4.0     1164.5      0.960      7.871      0.091
        4.0     1164.5      0.988      7.772      0.137
        4.0      1480.     -0.858      1.249      0.026
        4.0      1480.     -0.701      1.145      0.027
        4.0      1480.     -0.491      1.105      0.027
        4.0      1480.     -0.253      1.006      0.026
        4.0      1480.      0.009      0.932      0.037
        4.0      1480.      0.263      1.014      0.026
        4.0      1480.      0.512      1.025      0.019
        4.0      1480.      0.720      1.206      0.021
        4.0      1480.      0.875      1.254      0.025
        4.0      1480.      0.975      1.289      0.023
        4.0      1480.      1.001      1.290      0.033
        4.0     2001.6     -0.858      0.593      0.038
        4.0     2001.6     -0.698      0.542      0.027
        4.0     2001.6     -0.495      0.613      0.032
        4.0     2001.6     -0.254      0.544      0.026
        4.0     2001.6      0.007      0.585      0.037
        4.0     2001.6      0.265      0.565      0.029
        4.0     2001.6      0.506      0.552      0.027
        4.0     2001.6      0.715      0.586      0.032
        4.0     2001.6      0.871      0.585      0.029
        4.0     2001.6      0.970      0.554      0.023
        4.0     2001.6      0.999      0.571      0.029
        4.4     1164.5     -0.857     10.546      0.104
        4.4     1164.5     -0.702     11.078      0.116
        4.4     1164.5     -0.491     11.964      0.122
        4.4     1164.5     -0.248     11.927      0.122
        4.4     1164.5      0.010     12.012      0.128
        4.4     1164.5      0.268     11.915      0.116
        4.4     1164.5      0.510     11.226      0.134
        4.4     1164.5      0.720     10.940      0.110
        4.4     1164.5      0.880     10.442      0.128
        4.4     1164.5      0.974     10.245      0.104
        4.4     1164.5      1.004     10.067      0.146
        4.4      1480.     -0.856      0.943      0.024
        4.4      1480.     -0.697      0.903      0.021
        4.4      1480.     -0.487      0.831      0.020
        4.4      1480.     -0.234      0.743      0.022
        4.4      1480.      0.015      0.742      0.018
        4.4      1480.      0.275      0.780      0.020
        4.4      1480.      0.520      0.815      0.019
        4.4      1480.      0.723      0.888      0.020
        4.4      1480.      0.883      0.944      0.023
        4.4      1480.      0.985      1.001      0.022
        4.4      1480.      1.013      0.976      0.026
        4.4     2001.5     -0.856      0.465      0.021
        4.4     2001.5     -0.699      0.463      0.023
        4.4     2001.5     -0.488      0.464      0.020
        4.4     2001.5     -0.249      0.422      0.022
        4.4     2001.5      0.013      0.422      0.018
        4.4     2001.5      0.275      0.433      0.020
        4.4     2001.5      0.516      0.420      0.019
        4.4     2001.5      0.718      0.448      0.020
        4.4     2001.5      0.881      0.448      0.023
        4.4     2001.5      0.979      0.478      0.024
        4.4     2001.5      1.012      0.446      0.026
ENDDATA             68
ENDSUBENT           82
ENDENTRY             7
