ENTRY            C2678   20211025   20220524   20220523       C210
SUBENT        C2678001   20211025   20220524   20220523       C210
BIB                  9         15
TITLE      Evidence for intermediate structure near an isobaric
           analog resonance
AUTHOR     (G.M.Temmer, M.Maruyama, D.W.Mingay, M.Petrascu,
            R.Van Bree)
INSTITUTE  (1USARUT)
REFERENCE  (J,PRL,26,1341,1971)
           #doi:10.1103/PhysRevLett.26.1341
SAMPLE     Self-supporting thin targets of 70GeO2.
INC-SPECT  The energy resolution (beam spread plus target
           thickness) was about 3 keV.
METHOD     Blocking lifetime measurements in single germanium
           crystals.
REL-REF    (M,,M.Maruyama+,J,NP/A,145,581,1970)
           (M,,W.M.Gibson+,J,BAP,16,557,1971)
HISTORY    (20211025C) OG
ENDBIB              15
COMMON               1          3
EN-RSL
KEV
3.
ENDCOMMON            3
ENDSUBENT           22
SUBENT        C2678002   20211025   20220524   20220523       C210
BIB                  3          5
REACTION   (32-GE-70(P,EL)32-GE-70,,DA)
ERR-ANALYS Statistical errors are smaller than the thickness of
           the curve (less than 1%).
STATUS     (CURVE) Fig.2 (p.1342) in Phys.Rev.Lett.,26,1341,1971
           was digitized by GSYS2.4.7.
ENDBIB               5
NOCOMMON             0          0
DATA                 3        366
ANG        EN         DATA-CM
ADEG       MEV        MB/SR
        90.      4.950    184.573
        90.      4.953    184.893
        90.      4.956    186.185
        90.      4.959    187.411
        90.      4.962    186.242
        90.      4.965    184.165
        90.      4.968    183.190
        90.      4.971    177.940
        90.      4.974    177.223
        90.      4.977    175.601
        90.      4.980    170.739
        90.      4.983    168.209
        90.      4.986    169.306
        90.      4.989    166.647
        90.      4.992    170.594
        90.      4.995    174.735
        90.      4.998    175.508
        90.      5.001    173.497
        90.      5.004    168.247
        90.      5.007    168.178
        90.      5.010    166.620
        90.      5.013    165.515
        90.      5.016    158.581
        90.      5.019    158.059
        90.      5.022    163.496
        90.      5.025    164.916
        90.      5.028    161.545
        90.      5.031    155.648
        90.      5.034    151.174
        90.      5.037    149.163
        90.      5.040    146.568
        90.      5.043    139.634
        90.      5.046    133.413
        90.      5.049    134.380
        90.      5.052    132.433
        90.      5.055    134.632
        90.      5.058    134.887
        90.      5.061    134.947
        90.      5.064    132.224
        90.      5.067    129.435
        90.      5.070    128.394
        90.      5.073    133.896
        90.      5.076    139.138
        90.      5.078    141.855
        90.      5.082    146.061
        90.      5.085    151.367
        90.      5.088    157.322
        90.      5.091    157.253
        90.      5.094    161.977
        90.      5.097    159.901
        90.      5.100    164.107
        90.      5.103    162.678
        90.      5.106    165.459
        90.      5.109    164.549
        90.      5.112    166.747
        90.      5.114    163.894
        90.      5.117    163.113
        90.      5.120    162.720
        90.      5.123    161.939
        90.      5.127    160.964
        90.      5.129    160.248
        90.      5.133    161.733
        90.      5.136    166.392
        90.      5.139    171.440
        90.      5.142    177.654
        90.      5.144    181.472
        90.      5.148    182.633
        90.      5.151    184.573
        90.      5.154    183.468
        90.      5.158    183.790
        90.      5.161    183.788
        90.      5.163    179.734
        90.      5.167    181.006
        90.      5.170    181.236
        90.      5.173    179.845
        90.      5.176    176.485
        90.      5.178    173.010
        90.      5.182    175.092
        90.      5.184    175.207
        90.      5.187    174.048
        90.      5.190    172.888
        90.      5.193    173.002
        90.      5.197    169.990
        90.      5.200    169.525
        90.      5.202    169.871
        90.      5.205    168.943
        90.      5.208    168.942
        90.      5.211    170.445
        90.      5.215    168.938
        90.      5.215    171.601
        90.      5.216    174.958
        90.      5.218    174.031
        90.      5.220    175.303
        90.      5.225    174.606
        90.      5.228    174.141
        90.      5.232    174.834
        90.      5.235    174.600
        90.      5.237    177.147
        90.      5.240    175.987
        90.      5.243    177.375
        90.      5.246    176.447
        90.      5.250    172.161
        90.      5.253    172.738
        90.      5.256    172.737
        90.      5.261    173.776
        90.      5.264    172.732
        90.      5.268    170.646
        90.      5.271    169.254
        90.      5.274    167.285
        90.      5.278    167.166
        90.      5.281    166.933
        90.      5.285    167.857
        90.      5.289    166.002
        90.      5.292    163.338
        90.      5.296    161.367
        90.      5.298    163.450
        90.      5.301    164.838
        90.      5.304    167.152
        90.      5.307    164.488
        90.      5.311    164.370
        90.      5.313    162.516
        90.      5.316    164.367
        90.      5.319    162.744
        90.      5.323    162.163
        90.      5.325    159.615
        90.      5.328    158.108
        90.      5.332    157.874
        90.      5.334    159.146
       125.      4.951     81.416
       125.      4.953     82.807
       125.      4.957     82.668
       125.      4.960     81.695
       125.      4.963     80.026
       125.      4.964     78.551
       125.      4.967     77.232
       125.      4.969     75.853
       125.      4.972     74.880
       125.      4.975     75.019
       125.      4.978     74.741
       125.      4.981     75.853
       125.      4.985     76.688
       125.      4.987     78.079
       125.      4.991     78.844
       125.      4.993     80.443
       125.      4.996     78.774
       125.      4.999     77.800
       125.      5.002     73.906
       125.      5.006     73.767
       125.      5.011     74.741
       125.      5.014     71.820
       125.      5.018     73.628
       125.      5.022     76.410
       125.      5.025     74.045
       125.      5.028     69.178
       125.      5.034     67.926
       125.      5.038     70.568
       125.      5.042     68.065
       125.      5.050     78.218
       125.      5.053     78.218
       125.      5.056     80.999
       125.      5.059     84.476
       125.      5.063     82.668
       125.      5.067     86.026
       125.      5.070     91.013
       125.      5.074     94.907
       125.      5.077     99.218
       125.      5.080     99.218
       125.      5.082    100.470
       125.      5.085    101.582
       125.      5.089    103.947
       125.      5.092    100.887
       125.      5.095    102.973
       125.      5.098    101.860
       125.      5.101    104.503
       125.      5.104    102.000
       125.      5.107    102.834
       125.      5.109    101.860
       125.      5.113    101.026
       125.      5.115     98.662
       125.      5.118     96.436
       125.      5.123     98.523
       125.      5.127     99.218
       125.      5.130     99.496
       125.      5.133    100.470
       125.      5.137    102.139
       125.      5.140    101.561
       125.      5.143    101.122
       125.      5.146     96.871
       125.      5.147     95.406
       125.      5.149     93.933
       125.      5.151     93.207
       125.      5.155     92.328
       125.      5.161     92.768
       125.      5.163     90.423
       125.      5.164     89.104
       125.      5.168     88.957
       125.      5.172     89.104
       125.      5.176     88.957
       125.      5.179     86.905
       125.      5.183     87.491
       125.      5.185     88.810
       125.      5.187     87.638
       125.      5.191     87.345
       125.      5.195     87.052
       125.      5.198     86.612
       125.      5.201     87.052
       125.      5.206     86.759
       125.      5.210     88.078
       125.      5.212     89.983
       125.      5.215     88.078
       125.      5.218     87.345
       125.      5.221     86.172
       125.      5.224     84.560
       125.      5.229     84.267
       125.      5.233     86.759
       125.      5.236     88.371
       125.      5.239     88.078
       125.      5.242     87.931
       125.      5.246     87.491
       125.      5.247     85.733
       125.      5.251     84.560
       125.      5.254     85.733
       125.      5.256     84.414
       125.      5.259     83.681
       125.      5.262     83.388
       125.      5.265     82.655
       125.      5.268     82.655
       125.      5.272     82.655
       125.      5.275     81.775
       125.      5.278     82.948
       125.      5.284     82.362
       125.      5.287     82.215
       125.      5.291     80.310
       125.      5.295     81.189
       125.      5.297     82.362
       125.      5.299     84.560
       125.      5.303     83.534
       125.      5.306     82.215
       125.      5.308     80.750
       125.      5.311     81.336
       125.      5.315     80.603
       125.      5.318     79.431
       125.      5.321     78.551
       125.      5.325     77.818
       125.      5.328     78.991
       125.      5.332     79.284
       125.      5.335     79.137
       165.      4.951     45.081
       165.      4.954     45.662
       165.      4.957     45.197
       165.      4.959     43.338
       165.      4.964     42.757
       165.      4.965     41.363
       165.      4.968     40.085
       165.      4.973     41.363
       165.      4.974     42.757
       165.      4.979     42.757
       165.      4.980     44.965
       165.      4.983     46.127
       165.      4.986     45.314
       165.      4.993     46.940
       165.      4.996     44.616
       165.      4.999     43.571
       165.      5.001     41.363
       165.      5.007     42.060
       165.      5.010     42.873
       165.      5.014     40.666
       165.      5.017     44.220
       165.      5.020     45.019
       165.      5.023     43.536
       165.      5.025     41.483
       165.      5.029     40.913
       165.      5.033     41.369
       165.      5.034     42.281
       165.      5.038     43.764
       165.      5.041     41.141
       165.      5.043     44.449
       165.      5.047     51.863
       165.      5.050     55.057
       165.      5.053     55.285
       165.      5.056     57.452
       165.      5.058     61.672
       165.      5.062     60.646
       165.      5.066     60.988
       165.      5.068     62.471
       165.      5.071     68.858
       165.      5.073     71.710
       165.      5.077     74.562
       165.      5.080     73.649
       165.      5.083     72.509
       165.      5.088     71.368
       165.      5.091     70.341
       165.      5.094     71.254
       165.      5.097     70.113
       165.      5.101     71.368
       165.      5.104     68.744
       165.      5.107     68.858
       165.      5.110     68.744
       165.      5.113     66.577
       165.      5.116     63.840
       165.      5.119     62.813
       165.      5.123     64.980
       165.      5.125     63.611
       165.      5.129     63.726
       165.      5.132     65.437
       165.      5.134     64.980
       165.      5.138     63.041
       165.      5.140     57.224
       165.      5.143     51.407
       165.      5.147     45.133
       165.      5.149     42.966
       165.      5.154     42.852
       165.      5.159     43.080
       165.      5.162     45.361
       165.      5.164     44.791
       165.      5.168     45.133
       165.      5.172     46.616
       165.      5.176     46.502
       165.      5.178     45.475
       165.      5.183     45.361
       165.      5.186     47.300
       165.      5.189     48.783
       165.      5.191     47.985
       165.      5.195     48.099
       165.      5.199     47.985
       165.      5.201     47.300
       165.      5.207     47.986
       165.      5.210     49.264
       165.      5.213     49.729
       165.      5.215     47.072
       165.      5.219     45.019
       165.      5.220     43.878
       165.      5.220     42.990
       165.      5.224     42.292
       165.      5.228     41.595
       165.      5.230     43.106
       165.      5.233     46.160
       165.      5.236     46.160
       165.      5.238     48.335
       165.      5.242     48.916
       165.      5.245     47.642
       165.      5.247     46.160
       165.      5.250     45.475
       165.      5.255     45.361
       165.      5.258     43.194
       165.      5.262     42.990
       165.      5.267     44.220
       165.      5.269     45.133
       165.      5.273     44.791
       165.      5.278     45.589
       165.      5.282     45.589
       165.      5.285     44.152
       165.      5.288     43.803
       165.      5.293     43.338
       165.      5.295     45.314
       165.      5.299     46.476
       165.      5.302     45.019
       165.      5.306     44.733
       165.      5.308     43.687
       165.      5.312     44.152
       165.      5.314     42.757
       165.      5.319     42.292
       165.      5.322     42.873
       165.      5.328     44.035
       165.      5.333     43.222
       165.      5.336     43.687
ENDDATA            368
ENDSUBENT          378
SUBENT        C2678003   20211025   20220524   20220523       C210
BIB                  5         12
REACTION   (32-GE-70(P,INL)32-GE-70,PAR,DA)
LEVEL-PROP (32-GE-70,E-LVL=1.040,SPIN=2.,PARITY=+1.)
           (32-GE-70,E-LVL=1.216,SPIN=0.,PARITY=+1.)
           (32-GE-70,E-LVL=1.707,SPIN=2.,PARITY=+1.)
           (32-GE-70,E-LVL=2.156,SPIN=4.,PARITY=+1.)
           (32-GE-70,E-LVL=2.160,SPIN=2.,PARITY=+1.)
COMMENT    Energies for the third and the fourth-plus fifth
           excited states of 70Ge were taken by compiler from
           ENSDF as these data are absent in the article.
ERR-ANALYS (DATA-ERR) No information on source of uncertainties.
STATUS     (CURVE) Fig.3 (p.1342) in Phys.Rev.Lett.,26,1341,1971
           was digitized by GSYS2.4.7.
ENDBIB              12
COMMON               1          3
ANG
ADEG
90.
ENDCOMMON            3
DATA                 5        417
E-LVL      E-LVL      EN         DATA-CM    DATA-ERR
MEV        MEV        MEV        MB/SR      MB/SR
      1.040                 4.951      2.133
      1.040                 4.954      2.202
      1.040                 4.956      2.079
      1.040                 4.959      2.010
      1.040                 4.963      2.133
      1.040                 4.965      2.206
      1.040                 4.969      2.179
      1.040                 4.971      2.022
      1.040                 4.974      2.134
      1.040                 4.978      2.318
      1.040                 4.980      2.402
      1.040                 4.983      2.722
      1.040                 4.986      2.695
      1.040                 4.989      2.922
      1.040                 4.992      2.689
      1.040                 4.996      2.388
      1.040                 5.001      2.439      0.066
      1.040                 5.004      2.623
      1.040                 5.007      2.663
      1.040                 5.009      2.512
      1.040                 5.014      2.533
      1.040                 5.017      2.723
      1.040                 5.019      2.621
      1.040                 5.021      2.491
      1.040                 5.025      2.458
      1.040                 5.028      2.627
      1.040                 5.031      2.769
      1.040                 5.034      2.790
      1.040                 5.037      2.974
      1.040                 5.039      3.035
      1.040                 5.043      3.177
      1.040                 5.046      3.608
      1.040                 5.048      4.100      0.060
      1.040                 5.052      4.049
      1.040                 5.055      3.693
      1.040                 5.058      3.277
      1.040                 5.061      3.343
      1.040                 5.063      3.038
      1.040                 5.066      2.863
      1.040                 5.070      2.713
      1.040                 5.072      2.550
      1.040                 5.075      2.402
      1.040                 5.077      2.613
      1.040                 5.082      2.611
      1.040                 5.085      2.409
      1.040                 5.087      2.475
      1.040                 5.092      2.493
      1.040                 5.093      2.542
      1.040                 5.097      2.502
      1.040                 5.099      2.668      0.057
      1.040                 5.102      2.668      0.063
      1.040                 5.105      2.705
      1.040                 5.109      2.630
      1.040                 5.113      2.654
      1.040                 5.116      2.750
      1.040                 5.122      2.868
      1.040                 5.124      3.058
      1.040                 5.129      3.067
      1.040                 5.131      3.155
      1.040                 5.134      3.580
      1.040                 5.137      3.822
      1.040                 5.140      4.211
      1.040                 5.143      4.314      0.054
      1.040                 5.146      4.278
      1.040                 5.150      3.892
      1.040                 5.152      3.720
      1.040                 5.155      3.536
      1.040                 5.158      3.376
      1.040                 5.161      3.301
      1.040                 5.164      3.041
      1.040                 5.167      2.906
      1.040                 5.169      3.069
      1.040                 5.173      2.906
      1.040                 5.177      2.924
      1.040                 5.179      2.972
      1.040                 5.183      2.909
      1.040                 5.185      2.701
      1.040                 5.188      2.544
      1.040                 5.191      2.466
      1.040                 5.194      2.511
      1.040                 5.197      2.593
      1.040                 5.199      2.753
      1.040                 5.203      2.780
      1.040                 5.206      3.006
      1.040                 5.209      3.154
      1.040                 5.212      3.236
      1.040                 5.214      3.136
      1.040                 5.217      3.269
      1.040                 5.219      3.218
      1.040                 5.221      3.236
      1.040                 5.223      3.088
      1.040                 5.226      2.739      0.057
      1.040                 5.230      2.687
      1.040                 5.232      2.482
      1.040                 5.236      2.618
      1.040                 5.238      2.525
      1.040                 5.242      2.594
      1.040                 5.244      2.649
      1.040                 5.247      2.546
      1.040                 5.250      2.751
      1.040                 5.251      2.782
      1.040                 5.254      2.839
      1.040                 5.257      2.933
      1.040                 5.260      2.869
      1.040                 5.264      2.767
      1.040                 5.267      2.616
      1.216                 4.949      0.733
      1.216                 4.953      0.730
      1.216                 4.956      0.794
      1.216                 4.959      0.679
      1.216                 4.962      0.619
      1.216                 4.965      0.695
      1.216                 4.968      0.755
      1.216                 4.972      0.773
      1.216                 4.975      0.933
      1.216                 4.978      0.927
      1.216                 4.980      0.951
      1.216                 4.982      0.933
      1.216                 4.987      0.934
      1.216                 4.989      0.786
      1.216                 4.993      0.774
      1.216                 4.995      0.695
      1.216                 4.999      0.723
      1.216                 5.001      0.659
      1.216                 5.004      0.678
      1.216                 5.007      0.632
      1.216                 5.011      0.681
      1.216                 5.013      0.735
      1.216                 5.017      0.871
      1.216                 5.019      0.934
      1.216                 5.022      0.907
      1.216                 5.025      0.823
      1.216                 5.028      0.944
      1.216                 5.031      1.083
      1.216                 5.034      1.074
      1.216                 5.037      1.035
      1.216                 5.040      0.914
      1.216                 5.043      0.990
      1.216                 5.045      1.023
      1.216                 5.049      0.938      0.042
      1.216                 5.052      0.926
      1.216                 5.055      0.884
      1.216                 5.058      0.806
      1.216                 5.060      0.936
      1.216                 5.064      0.942
      1.216                 5.067      0.800
      1.216                 5.070      0.788
      1.216                 5.073      0.812
      1.216                 5.076      0.776
      1.216                 5.079      0.855
      1.216                 5.082      0.855
      1.216                 5.085      0.758
      1.216                 5.088      0.656
      1.216                 5.091      0.735
      1.216                 5.094      0.771
      1.216                 5.097      0.702
      1.216                 5.101      0.723      0.033
      1.216                 5.104      0.638
      1.216                 5.106      0.684
      1.216                 5.109      0.660
      1.216                 5.113      0.690
      1.216                 5.116      0.669
      1.216                 5.119      0.684
      1.216                 5.122      0.681
      1.216                 5.125      0.696
      1.216                 5.128      0.754
      1.216                 5.131      0.817
      1.216                 5.134      1.007
      1.216                 5.137      1.113
      1.216                 5.140      1.306
      1.216                 5.143      1.219      0.036
      1.216                 5.145      1.228
      1.216                 5.149      1.113
      1.216                 5.152      0.993
      1.216                 5.155      0.945
      1.216                 5.157      0.872
      1.216                 5.161      0.791
      1.216                 5.164      0.830
      1.216                 5.167      0.870
      1.216                 5.170      0.827
      1.216                 5.173      0.773
      1.216                 5.176      0.761
      1.216                 5.182      0.789
      1.216                 5.184      0.828
      1.216                 5.187      0.870
      1.216                 5.190      0.813
      1.216                 5.194      0.801
      1.216                 5.197      0.837
      1.216                 5.199      0.783
      1.216                 5.201      0.822
      1.216                 5.206      0.810
      1.216                 5.208      0.877
      1.216                 5.212      0.862
      1.216                 5.214      0.910
      1.216                 5.217      0.943
      1.216                 5.218      0.913
      1.216                 5.220      1.022
      1.216                 5.223      1.004
      1.216                 5.226      0.914
      1.216                 5.229      0.835
      1.216                 5.232      0.775
      1.216                 5.235      0.757
      1.216                 5.238      0.775
      1.216                 5.241      0.688
      1.216                 5.244      0.709
      1.216                 5.246      0.691
      1.216                 5.250      0.733
      1.216                 5.253      0.682
      1.216                 5.256      0.851
      1.216                 5.258      0.821
      1.216                 5.262      0.845
      1.216                 5.266      0.957
      1.707                 4.949      0.735
      1.707                 4.952      0.757
      1.707                 4.955      0.751
      1.707                 4.959      0.701
      1.707                 4.962      0.719
      1.707                 4.965      0.746
      1.707                 4.967      0.692
      1.707                 4.971      0.708
      1.707                 4.974      0.763
      1.707                 4.976      0.814
      1.707                 4.979      0.828
      1.707                 4.982      0.845
      1.707                 4.986      0.808
      1.707                 4.989      0.862
      1.707                 4.992      0.883
      1.707                 4.994      0.814
      1.707                 4.997      0.856
      1.707                 5.000      0.880      0.035
      1.707                 5.002      0.886
      1.707                 5.004      0.900
      1.707                 5.007      0.925
      1.707                 5.010      0.960
      1.707                 5.012      0.982
      1.707                 5.016      1.024
      1.707                 5.019      1.035
      1.707                 5.021      0.984
      1.707                 5.025      1.031
      1.707                 5.027      0.976
      1.707                 5.030      1.002
      1.707                 5.033      1.024
      1.707                 5.036      0.998
      1.707                 5.037      1.006
      1.707                 5.039      1.015
      1.707                 5.043      0.991
      1.707                 5.045      0.932
      1.707                 5.048      1.028      0.031
      1.707                 5.051      0.969
      1.707                 5.055      1.008
      1.707                 5.057      0.877
      1.707                 5.060      0.882
      1.707                 5.063      0.911
      1.707                 5.066      0.831
      1.707                 5.069      0.907
      1.707                 5.072      0.951
      1.707                 5.076      0.919
      1.707                 5.077      0.835
      1.707                 5.081      0.882
      1.707                 5.084      0.844
      1.707                 5.087      0.850
      1.707                 5.090      0.861
      1.707                 5.093      0.872
      1.707                 5.096      0.993
      1.707                 5.098      0.959      0.031
      1.707                 5.099      0.992
      1.707                 5.102      0.982
      1.707                 5.104      0.928
      1.707                 5.111      0.967
      1.707                 5.117      1.054
      1.707                 5.122      1.230
      1.707                 5.126      1.200
      1.707                 5.129      1.292
      1.707                 5.131      1.419
      1.707                 5.134      1.430
      1.707                 5.138      1.494
      1.707                 5.141      1.294      0.033
      1.707                 5.143      1.258
      1.707                 5.147      1.292
      1.707                 5.149      1.370
      1.707                 5.153      1.225
      1.707                 5.156      1.146
      1.707                 5.161      1.069
      1.707                 5.165      1.121
      1.707                 5.168      1.046
      1.707                 5.171      1.104
      1.707                 5.174      1.043
      1.707                 5.176      0.969
      1.707                 5.180      0.933
      1.707                 5.182      0.974
      1.707                 5.186      1.058
      1.707                 5.188      0.921
      1.707                 5.192      0.906
      1.707                 5.195      0.960
      1.707                 5.198      1.109
      1.707                 5.201      1.127
      1.707                 5.207      1.095
      1.707                 5.210      1.146
      1.707                 5.212      1.119
      1.707                 5.216      1.158
      1.707                 5.219      1.208
      1.707                 5.222      1.185
      1.707                 5.225      1.029      0.031
      1.707                 5.228      0.944
      1.707                 5.231      0.925
      1.707                 5.234      1.134
      1.707                 5.237      0.951
      1.707                 5.239      0.991
      1.707                 5.242      0.983
      1.707                 5.246      0.932
      1.707                 5.248      1.043
      1.707                 5.249      0.967
      1.707                 5.251      1.171
      1.707                 5.255      1.176
      1.707                 5.258      1.187
      1.707                 5.260      1.108
      1.707                 5.265      1.119
      2.156      2.160      4.950      0.345
      2.156      2.160      4.953      0.312
      2.156      2.160      4.958      0.378
      2.156      2.160      4.961      0.368
      2.156      2.160      4.965      0.342
      2.156      2.160      4.968      0.359
      2.156      2.160      4.971      0.314
      2.156      2.160      4.974      0.360
      2.156      2.160      4.978      0.368
      2.156      2.160      4.980      0.353
      2.156      2.160      4.983      0.397
      2.156      2.160      4.986      0.408
      2.156      2.160      4.988      0.373
      2.156      2.160      4.992      0.360
      2.156      2.160      4.998      0.433
      2.156      2.160      5.000      0.413      0.020
      2.156      2.160      5.003      0.396
      2.156      2.160      5.006      0.371
      2.156      2.160      5.010      0.368
      2.156      2.160      5.012      0.389
      2.156      2.160      5.016      0.420
      2.156      2.160      5.019      0.493
      2.156      2.160      5.022      0.381
      2.156      2.160      5.025      0.435
      2.156      2.160      5.028      0.463
      2.156      2.160      5.031      0.469
      2.156      2.160      5.034      0.470
      2.156      2.160      5.036      0.438
      2.156      2.160      5.039      0.413
      2.156      2.160      5.042      0.411
      2.156      2.160      5.048      0.421      0.026
      2.156      2.160      5.051      0.436
      2.156      2.160      5.055      0.394
      2.156      2.160      5.058      0.396
      2.156      2.160      5.060      0.414
      2.156      2.160      5.063      0.406
      2.156      2.160      5.066      0.380
      2.156      2.160      5.069      0.440
      2.156      2.160      5.073      0.419
      2.156      2.160      5.078      0.457
      2.156      2.160      5.081      0.530
      2.156      2.160      5.085      0.531
      2.156      2.160      5.087      0.515
      2.156      2.160      5.091      0.567
      2.156      2.160      5.093      0.435
      2.156      2.160      5.096      0.516
      2.156      2.160      5.098      0.539
      2.156      2.160      5.099      0.605      0.024
      2.156      2.160      5.102      0.487
      2.156      2.160      5.105      0.479
      2.156      2.160      5.108      0.494
      2.156      2.160      5.111      0.569
      2.156      2.160      5.115      0.530
      2.156      2.160      5.117      0.509
      2.156      2.160      5.120      0.568
      2.156      2.160      5.125      0.624
      2.156      2.160      5.129      0.619
      2.156      2.160      5.132      0.682
      2.156      2.160      5.135      0.791
      2.156      2.160      5.137      0.783
      2.156      2.160      5.140      0.750      0.032
      2.156      2.160      5.144      0.697
      2.156      2.160      5.151      0.682
      2.156      2.160      5.153      0.629
      2.156      2.160      5.156      0.627
      2.156      2.160      5.159      0.664
      2.156      2.160      5.162      0.647
      2.156      2.160      5.165      0.667
      2.156      2.160      5.168      0.648
      2.156      2.160      5.170      0.592
      2.156      2.160      5.174      0.596
      2.156      2.160      5.177      0.558
      2.156      2.160      5.180      0.533
      2.156      2.160      5.182      0.543
      2.156      2.160      5.186      0.509
      2.156      2.160      5.190      0.510
      2.156      2.160      5.193      0.543
      2.156      2.160      5.196      0.493
      2.156      2.160      5.199      0.510
      2.156      2.160      5.202      0.591
      2.156      2.160      5.205      0.592
      2.156      2.160      5.207      0.660
      2.156      2.160      5.210      0.622
      2.156      2.160      5.214      0.693
      2.156      2.160      5.217      0.668
      2.156      2.160      5.222      0.607
      2.156      2.160      5.225      0.584      0.034
      2.156      2.160      5.228      0.588
      2.156      2.160      5.231      0.528
      2.156      2.160      5.238      0.538
      2.156      2.160      5.240      0.488
      2.156      2.160      5.242      0.502
      2.156      2.160      5.246      0.572
      2.156      2.160      5.249      0.627
      2.156      2.160      5.249      0.598
      2.156      2.160      5.253      0.585
      2.156      2.160      5.255      0.610
      2.156      2.160      5.259      0.543
      2.156      2.160      5.262      0.547
      2.156      2.160      5.266      0.589
ENDDATA            419
ENDSUBENT          440
ENDENTRY             3
