ENTRY            C2679   20220117   20220803   20220802       C212
SUBENT        C2679001   20220117   20220803   20220802       C212
BIB                  7          9
TITLE      Radiative proton capture into 14N
AUTHOR     (F.Riess,W.J.O'Connell,P.Paul)
REFERENCE  (J,NP/A,175,462,1971)
           #doi:10.1016/0375-9474(71)90442-8
INSTITUTE  (1USASTF,1USASTB)
FACILITY   (VDGT,1USASTF)
SAMPLE     The targets were prepared by cracking 50%-55% 13C
           enriched methyl iodide gas on heated metallic surfaces.
HISTORY    (20220117C) OG
ENDBIB               9
NOCOMMON             0          0
ENDSUBENT           12
SUBENT        C2679002   20220117   20220803   20220802       C212
BIB                  5         11
REACTION   (6-C-13(P,G)7-N-14,PAR,DA)
SAMPLE     The 13C targets were deposited on 500 mu-m Ta
           foils. Thickness of target was 20 mu-g/cm2.
DETECTOR   (NAICR) The Stanford 10 inch NaI assembly contained
           an anti-coincidence shield for lineshape improvement
           and the cosmic-ray rejection.
ERR-ANALYS No information on uncertainties.
STATUS     (CURVE) Fig.4 (p.468) in Nucl.Phys.A,175,462,1971 was
           digitized by GSYS2.4.7.
           (COREL,C2679007) (p,g0) and (p,g1) cross sections at
           5-18 MeV
ENDBIB              11
COMMON               1          3
E-LVL
MEV
0.
ENDCOMMON            3
DATA                 3        261
ANG        EN         DATA
ADEG       MEV        MU-B/SR
         0.      2.998      3.480
         0.      3.030      4.220
         0.      3.052      5.700
         0.      3.081     10.280
         0.      3.108     27.380
         0.      3.123     33.120
         0.      3.156     11.320
         0.      3.180      3.660
         0.      3.207      1.600
         0.      3.252      0.663
         0.      3.257      1.620
         0.      3.301      0.575
         0.      3.350      0.502
         0.      3.401      0.487
         0.      3.450      0.488
         0.      3.497      0.392
         0.      3.502      0.577
         0.      3.553      0.503
         0.      3.600      0.497
         0.      3.625      0.408
         0.      3.653      0.438
         0.      3.683      0.519
         0.      3.691      0.645
         0.      3.725      0.638
         0.      3.751      0.785
         0.      3.767      2.649
         0.      3.772      0.808
         0.      3.779      2.782
         0.      3.791      1.765
         0.      3.804      0.727
         0.      3.813      0.572
         0.      3.828      0.705
         0.      3.839      0.646
         0.      3.858      0.713
         0.      3.875      0.580
         0.      3.900      0.698
         0.      3.926      0.669
         0.      3.954      0.677
         0.      3.979      0.699
         0.      4.005      0.648
         0.      4.050      0.567
         0.      4.097      0.501
         0.      4.154      0.568
         0.      4.203      0.591
         0.      4.250      0.598
         0.      4.352      1.005
         0.      4.451      3.112
         0.      4.478      3.849
         0.      4.495      4.004
         0.      4.506      4.255
         0.      4.529      4.041
         0.      4.551      3.158
         0.      4.584      2.694
         0.      4.607      2.304
         0.      4.657      1.678
         0.      4.760      1.340
         0.      4.862      1.039
         0.      4.958      1.121
         0.      5.052      0.982
         0.      5.152      1.071
         0.      5.248      1.403
         0.      5.308      1.949
         0.      5.336      1.618
         0.      5.359      1.220
         0.      5.374      0.963
         0.      5.406      1.088
         0.      5.443      1.243
         0.      5.555      1.450
         0.      5.645      1.510
         0.      5.747      1.570
         0.      5.750      1.283
         0.      5.852      1.763
         0.      5.946      1.918
         0.      6.048      2.022
         0.      6.148      1.861
         0.      6.200      1.707
         0.      6.249      1.700
         0.      6.296      1.701
         0.      6.355      1.871
         0.      6.451      1.842
         0.      6.551      1.917
         0.      6.665      1.535
         0.      6.751      0.975
        90.      3.018      2.660
        90.      3.036      2.520
        90.      3.057      4.440
        90.      3.082     10.500
        90.      3.102     27.200
        90.      3.140     56.460
        90.      3.159     29.560
        90.      3.189      8.720
        90.      3.208      5.020
        90.      3.238      1.973
        90.      3.242      3.100
        90.      3.281      1.581
        90.      3.300      1.500
        90.      3.328      1.264
        90.      3.360      1.086
        90.      3.387      1.086
        90.      3.404      0.983
        90.      3.439      0.938
        90.      3.468      0.938
        90.      3.494      0.975
        90.      3.515      0.938
        90.      3.532      0.931
        90.      3.554      0.916
        90.      3.564      0.850
        90.      3.586      1.020
        90.      3.590      0.953
        90.      3.609      0.924
        90.      3.609      1.005
        90.      3.641      1.057
        90.      3.658      0.975
        90.      3.660      1.167
        90.      3.684      1.167
        90.      3.712      1.167
        90.      3.737      1.116
        90.      3.763      1.278
        90.      3.773      1.234
        90.      3.782      2.209
        90.      3.784      2.283
        90.      3.790      2.106
        90.      3.801      2.217
        90.      3.810      1.478
        90.      3.837      1.190
        90.      3.857      1.182
        90.      3.876      1.204
        90.      3.886      1.352
        90.      3.904      1.219
        90.      3.940      1.241
        90.      3.963      1.278
        90.      3.985      1.278
        90.      4.006      1.241
        90.      4.014      1.123
        90.      4.034      1.197
        90.      4.057      0.990
        90.      4.087      1.012
        90.      4.106      0.938
        90.      4.140      0.990
        90.      4.157      0.901
        90.      4.160      1.020
        90.      4.172      0.909
        90.      4.189      0.901
        90.      4.206      0.901
        90.      4.213      1.027
        90.      4.215      0.887
        90.      4.236      0.872
        90.      4.268      0.931
        90.      4.290      1.034
        90.      4.309      1.071
        90.      4.311      0.924
        90.      4.337      0.983
        90.      4.358      0.968
        90.      4.383      1.057
        90.      4.411      1.175
        90.      4.437      1.278
        90.      4.462      1.515
        90.      4.484      1.796
        90.      4.505      1.995
        90.      4.543      2.608
        90.      4.563      2.401
        90.      4.590      2.143
        90.      4.616      1.825
        90.      4.639      1.611
        90.      4.661      1.603
        90.      4.665      1.470
        90.      4.688      1.426
        90.      4.695      1.278
        90.      4.712      1.234
        90.      4.712      1.345
        90.      4.712      1.419
        90.      4.744      1.293
        90.      4.763      1.271
        90.      4.789      1.241
        90.      4.816      1.190
        90.      4.838      1.212
        90.      4.857      1.234
        90.      4.885      1.256
        90.      4.908      1.308
        90.      4.934      1.256
        90.      4.961      1.404
        90.      5.013      1.404
        90.      5.013      1.478
        90.      5.036      1.360
        90.      5.060      1.589
        90.      5.089      1.589
        90.      5.113      1.559
        90.      5.132      1.670
        90.      5.158      1.566
        90.      5.185      1.611
        90.      5.211      1.566
        90.      5.237      1.611
        90.      5.256      1.685
        90.      5.296      1.833
        90.      5.315      2.032
        90.      5.339      2.490
        90.      5.352      2.557
        90.      5.367      2.505
        90.      5.392      2.224
        90.      5.411      2.143
        90.      5.437      2.254
        90.      5.460      2.224
        90.      5.486      2.202
        90.      5.512      2.172
        90.      5.518      2.350
        90.      5.535      2.180
        90.      5.565      2.372
        90.      5.588      2.365
        90.      5.606      2.438
        90.      5.637      2.557
        90.      5.655      2.512
        90.      5.691      2.571
        90.      5.712      2.527
        90.      5.736      2.616
        90.      5.763      2.682
        90.      5.785      2.704
        90.      5.819      2.985
        90.      5.823      2.845
        90.      5.840      3.192
        90.      5.876      3.333
        90.      5.889      3.377
        90.      5.900      3.362
        90.      5.921      3.406
        90.      5.940      3.355
        90.      5.964      3.369
        90.      5.987      3.155
        90.      6.013      3.222
        90.      6.034      3.310
        90.      6.038      3.148
        90.      6.041      3.451
        90.      6.062      3.325
        90.      6.087      3.392
        90.      6.090      3.140
        90.      6.115      3.414
        90.      6.158      3.591
        90.      6.181      3.569
        90.      6.198      3.488
        90.      6.230      3.562
        90.      6.252      3.628
        90.      6.269      3.554
        90.      6.301      3.584
        90.      6.324      3.377
        90.      6.326      3.451
        90.      6.326      3.554
        90.      6.348      3.222
        90.      6.378      3.355
        90.      6.399      3.133
        90.      6.437      3.185
        90.      6.459      3.111
        90.      6.482      3.015
        90.      6.501      2.941
        90.      6.535      2.808
        90.      6.550      2.756
        90.      6.572      2.660
        90.      6.597      2.704
        90.      6.627      2.764
        90.      6.659      2.557
        90.      6.680      2.387
        90.      6.706      2.165
        90.      6.732      1.973
        90.      6.751      1.862
ENDDATA            263
ENDSUBENT          283
SUBENT        C2679003   20220117   20220803   20220802       C212
BIB                  6         14
REACTION   (6-C-13(P,INL)6-C-13,PAR,DA,G,REL)
LEVEL-PROP (6-C-13,E-LVL=3.09,SPIN=0.5,PARITY=+1.)
           (6-C-13,E-LVL=3.68,SPIN=1.5,PARITY=-1.)
           (6-C-13,E-LVL=3.85,SPIN=2.5,PARITY=+1.)
SAMPLE     The 13C targets were deposited on 500 mu-m Ta
           foils. Thickness of target was 20 mu-g/cm2.
DETECTOR   (GELI) The inelastic proton scattering to the first
           three excited states in 13C was measured by
           observation of the de-excitation gamma-rays in a 6
           cm3 Ge(Li) detector.
ERR-ANALYS No information on uncertainties.
STATUS     (CURVE) Fig.4 (p.468) in Nucl.Phys.A,175,462,1971 was
           digitized by GSYS2.4.7.
           (COREL,C2679008) gamma yields at 6-17 MeV
ENDBIB              14
COMMON               1          3
ANG
ADEG
90.
ENDCOMMON            3
DATA                 3        315
E          EN         DATA
MEV        MEV        ARB-UNITS
       3.09      3.611      0.009
       3.09      3.628      0.016
       3.09      3.653      0.053
       3.09      3.679      0.089
       3.09      3.703      0.176
       3.09      3.729      0.339
       3.09      3.759      0.635
       3.09      3.779      0.758
       3.09      3.803      1.131
       3.09      3.831      1.075
       3.09      3.851      1.015
       3.09      3.884      0.888
       3.09      3.907      0.835
       3.09      3.924      0.785
       3.09      3.947      0.748
       3.09      3.975      0.722
       3.09      4.003      0.775
       3.09      4.027      1.021
       3.09      4.052      1.091
       3.09      4.078      1.124
       3.09      4.097      1.158
       3.09      4.130      1.334
       3.09      4.156      1.241
       3.09      4.185      0.718
       3.09      4.200      0.641
       3.09      4.223      0.648
       3.09      4.253      0.678
       3.09      4.284      0.701
       3.09      4.306      0.714
       3.09      4.327      0.724
       3.09      4.356      0.744
       3.09      4.381      0.788
       3.09      4.406      0.821
       3.09      4.429      0.874
       3.09      4.454      0.907
       3.09      4.475      0.971
       3.09      4.507      0.904
       3.09      4.525      0.987
       3.09      4.557      1.310
       3.09      4.579      1.370
       3.09      4.608      1.337
       3.09      4.632      1.080
       3.09      4.656      0.781
       3.09      4.681      0.627
       3.09      4.715      0.657
       3.09      4.730      0.737
       3.09      4.754      0.787
       3.09      4.774      0.817
       3.09      4.796      0.847
       3.09      4.834      0.884
       3.09      4.853      0.894
       3.09      4.879      0.964
       3.09      4.892      0.993
       3.09      4.926      1.030
       3.09      4.949      1.030
       3.09      4.974      1.030
       3.09      4.992      1.020
       3.09      4.999      0.997
       3.09      5.027      1.067
       3.09      5.055      1.043
       3.09      5.072      1.030
       3.09      5.087      1.027
       3.09      5.103      0.993
       3.09      5.127      0.987
       3.09      5.153      0.923
       3.09      5.185      0.837
       3.09      5.208      0.820
       3.09      5.236      0.810
       3.09      5.261      0.700
       3.09      5.278      0.680
       3.09      5.304      0.627
       3.09      5.326      0.447
       3.09      5.356      0.523
       3.09      5.377      0.620
       3.09      5.406      0.627
       3.09      5.432      0.686
       3.09      5.454      0.730
       3.09      5.477      0.590
       3.09      5.509      0.616
       3.09      5.532      0.590
       3.09      5.552      0.620
       3.09      5.602      0.616
       3.09      5.622      0.596
       3.09      5.655      0.590
       3.09      5.678      0.666
       3.09      5.706      0.640
       3.09      5.735      0.530
       3.09      5.748      0.323
       3.09      5.781      0.356
       3.09      5.801      0.283
       3.09      5.829      0.416
       3.09      5.858      0.400
       3.09      5.879      0.430
       3.09      5.902      0.396
       3.09      5.931      0.433
       3.09      5.952      0.383
       3.09      5.977      0.416
       3.09      6.002      0.379
       3.09      6.027      0.456
       3.09      6.052      0.413
       3.09      6.079      0.366
       3.09      6.108      0.356
       3.09      6.128      0.246
       3.09      6.150      0.329
       3.09      6.178      0.346
       3.09      6.200      0.329
       3.09      6.235      0.343
       3.09      6.256      0.389
       3.09      6.281      0.359
       3.09      6.304      0.352
       3.09      6.324      0.326
       3.09      6.354      0.356
       3.09      6.376      0.366
       3.09      6.401      0.376
       3.09      6.432      0.416
       3.09      6.454      0.352
       3.09      6.481      0.425
       3.09      6.502      0.415
       3.09      6.525      0.452
       3.09      6.550      0.432
       3.09      6.575      0.549
       3.09      6.605      0.555
       3.09      6.625      0.539
       3.09      6.652      0.558
       3.09      6.677      0.592
       3.09      6.703      0.578
       3.68      4.260      0.009
       3.68      4.285      0.051
       3.68      4.303      0.081
       3.68      4.333      0.123
       3.68      4.357      0.189
       3.68      4.381      0.351
       3.68      4.405      0.645
       3.68      4.436      1.126
       3.68      4.454      1.888
       3.68      4.485      2.970
       3.68      4.512      4.243
       3.68      4.539      4.375
       3.68      4.555      3.390
       3.68      4.582      2.230
       3.68      4.613      1.654
       3.68      4.638      1.263
       3.68      4.658      1.137
       3.68      4.680      1.005
       3.68      4.701      0.825
       3.68      4.729      0.734
       3.68      4.757      0.650
       3.68      4.778      0.566
       3.68      4.805      0.488
       3.68      4.828      0.482
       3.68      4.863      0.512
       3.68      4.881      0.506
       3.68      4.904      0.500
       3.68      4.930      0.427
       3.68      4.956      0.445
       3.68      4.977      0.451
       3.68      5.008      0.493
       3.68      5.028      0.517
       3.68      5.053      0.589
       3.68      5.072      0.685
       3.68      5.102      0.733
       3.68      5.132      0.835
       3.68      5.159      0.889
       3.68      5.183      0.943
       3.68      5.205      0.919
       3.68      5.227      0.967
       3.68      5.258      1.009
       3.68      5.276      1.238
       3.68      5.300      1.874
       3.68      5.344      3.610
       3.68      5.357      2.889
       3.68      5.383      1.538
       3.68      5.407      1.279
       3.68      5.429      1.087
       3.68      5.453      0.991
       3.68      5.482      1.051
       3.68      5.498      0.943
       3.68      5.523      1.105
       3.68      5.546      1.159
       3.68      5.572      1.303
       3.68      5.596      1.369
       3.68      5.627      1.399
       3.68      5.647      1.501
       3.68      5.666      1.723
       3.68      5.700      2.047
       3.68      5.724      2.282
       3.68      5.748      2.462
       3.68      5.781      2.546
       3.68      5.800      2.294
       3.68      5.822      1.771
       3.68      5.853      1.302
       3.68      5.879      1.074
       3.68      5.901      0.930
       3.68      5.925      0.858
       3.68      5.944      0.858
       3.68      5.972      0.827
       3.68      5.995      0.881
       3.68      6.015      0.875
       3.68      6.044      0.989
       3.68      6.065      0.989
       3.68      6.100      1.139
       3.68      6.123      1.223
       3.68      6.151      1.241
       3.68      6.179      1.235
       3.68      6.203      1.253
       3.68      6.225      1.223
       3.68      6.251      1.271
       3.68      6.280      1.169
       3.68      6.301      1.229
       3.68      6.328      1.301
       3.68      6.352      1.283
       3.68      6.376      1.283
       3.68      6.408      1.373
       3.68      6.431      1.391
       3.68      6.456      1.475
       3.68      6.483      1.547
       3.68      6.499      1.547
       3.68      6.523      1.709
       3.68      6.545      1.775
       3.68      6.569      1.967
       3.68      6.600      1.949
       3.68      6.629      2.201
       3.68      6.660      2.237
       3.68      6.672      2.225
       3.68      6.695      2.213
       3.85      4.756      0.025
       3.85      4.773      0.037
       3.85      4.791      0.031
       3.85      4.803      0.073
       3.85      4.819      0.079
       3.85      4.834      0.049
       3.85      4.851      0.043
       3.85      4.875      0.037
       3.85      4.894      0.037
       3.85      4.912      0.037
       3.85      4.927      0.055
       3.85      4.949      0.055
       3.85      4.974      0.115
       3.85      4.996      0.079
       3.85      5.010      0.103
       3.85      5.028      0.127
       3.85      5.052      0.169
       3.85      5.078      0.211
       3.85      5.104      0.211
       3.85      5.121      0.217
       3.85      5.135      0.199
       3.85      5.151      0.187
       3.85      5.165      0.187
       3.85      5.181      0.205
       3.85      5.205      0.223
       3.85      5.229      0.265
       3.85      5.251      0.301
       3.85      5.276      0.385
       3.85      5.300      0.727
       3.85      5.324      1.724
       3.85      5.339      1.718
       3.85      5.358      0.985
       3.85      5.383      0.426
       3.85      5.409      0.306
       3.85      5.422      0.258
       3.85      5.437      0.240
       3.85      5.461      0.222
       3.85      5.481      0.156
       3.85      5.493      0.054
       3.85      5.495      0.228
       3.85      5.516      0.312
       3.85      5.550      0.150
       3.85      5.575      0.150
       3.85      5.599      0.324
       3.85      5.629      0.234
       3.85      5.649      0.173
       3.85      5.669      0.131
       3.85      5.702      0.113
       3.85      5.730      0.155
       3.85      5.749      0.209
       3.85      5.768      0.251
       3.85      5.792      0.293
       3.85      5.822      0.137
       3.85      5.835      0.203
       3.85      5.870      0.089
       3.85      5.914      0.113
       3.85      5.940      0.101
       3.85      5.966      0.107
       3.85      5.986      0.082
       3.85      5.992      0.034
       3.85      6.008      0.082
       3.85      6.042      0.166
       3.85      6.076      0.154
       3.85      6.091      0.112
       3.85      6.121      0.178
       3.85      6.143      0.136
       3.85      6.157      0.136
       3.85      6.173      0.136
       3.85      6.200      0.190
       3.85      6.250      0.094
       3.85      6.268      0.214
       3.85      6.299      0.178
       3.85      6.320      0.178
       3.85      6.347      0.220
       3.85      6.368      0.262
       3.85      6.390      0.208
       3.85      6.413      0.208
       3.85      6.445      0.298
       3.85      6.466      0.262
       3.85      6.494      0.255
       3.85      6.517      0.315
       3.85      6.529      0.333
       3.85      6.546      0.369
       3.85      6.569      0.423
       3.85      6.601      0.532
       3.85      6.627      0.628
       3.85      6.642      0.567
       3.85      6.665      0.609
       3.85      6.688      0.699
       3.85      6.701      0.748
ENDDATA            317
ENDSUBENT          340
SUBENT        C2679004   20220117   20220803   20220802       C212
BIB                  5         10
REACTION   (6-C-13(P,G)7-N-14,PAR,DA,,REL)
SAMPLE     The 13C targets were deposited on 500 mu-m Ta
           foils. Thickness of target was 20 mu-g/cm2.
DETECTOR   (NAICR) The Stanford 10 inch NaI assembly contained
           an anti-coincidence shield for lineshape improvement
           and the cosmic-ray rejection.
ERR-ANALYS (DATA-ERR) No information on sources of uncertainties.
STATUS     (CURVE) Fig.7a (p.471) in Nucl.Phys.A,175,462,1971 was
           digitized by GSYS2.4.7.
           (COREL,C2679002)
ENDBIB              10
COMMON               1          3
E-LVL
MEV
0.
ENDCOMMON            3
DATA                 4         22
ANG        EN         DATA       DATA-ERR
ADEG       MEV        ARB-UNITS  ARB-UNITS
         0.      4.482      4.719      0.271
         0.      4.491      5.189      0.359
         0.      4.501      5.240      0.271
         0.      4.511      5.334      0.376
         0.      4.521      5.349      0.324
         0.      4.530      5.234      0.367
         0.      4.540      4.550      0.315
         0.      4.550      4.819      0.358
         0.      4.560      3.934      0.341
         0.      4.570      3.827      0.280
         0.      4.580      3.571      0.306
        90.      4.481      2.366      0.245
        90.      4.491      2.381      0.192
        90.      4.501      2.738      0.201
        90.      4.511      2.789      0.149
        90.      4.521      3.075      0.201
        90.      4.530      3.187      0.210
        90.      4.540      3.176      0.122
        90.      4.550      3.367      0.236
        90.      4.560      2.674      0.157
        90.      4.570      2.978      0.280
        90.      4.579      2.592      0.201
ENDDATA             24
ENDSUBENT           43
SUBENT        C2679005   20220117   20220803   20220802       C212
BIB                  6         12
REACTION   (6-C-13(P,INL)6-C-13,PAR,DA,G,REL)
LEVEL-PROP (6-C-13,E-LVL=3.68,SPIN=1.5,PARITY=-1.)
DETECTOR   (GELI) The inelastic proton scattering to the first
           three excited states in 13C was measured by
           observation of the de-excitation gamma-rays in a 6
           cm3 Ge(Li) detector.
SAMPLE     The 13C targets were deposited on 500 mu-m Ta
           foils. Thickness of target was 20 mu-g/cm2.
ERR-ANALYS No information on uncertainties.
STATUS     (CURVE) Fig.7b (p.471) in Nucl.Phys.A,175,462,1971 was
           digitized by GSYS2.4.7.
           (COREL,C2679003)
ENDBIB              12
COMMON               1          3
E
MEV
3.68
ENDCOMMON            3
DATA                 3         22
ANG        EN         DATA
ADEG       MEV        ARB-UNITS
         0.      4.479      1.903
         0.      4.490      2.227
         0.      4.500      2.397
         0.      4.510      2.532
         0.      4.521      2.521
         0.      4.531      2.330
         0.      4.541      2.054
         0.      4.552      1.700
         0.      4.562      1.423
         0.      4.572      1.266
         0.      4.581      1.170
        90.      4.480      2.805
        90.      4.490      3.240
        90.      4.502      3.719
        90.      4.511      3.931
        90.      4.521      4.007
        90.      4.532      3.833
        90.      4.542      3.427
        90.      4.551      2.927
        90.      4.561      2.496
        90.      4.571      2.099
        90.      4.581      1.745
ENDDATA             24
ENDSUBENT           45
SUBENT        C2679006   20220117   20220803   20220802       C212
BIB                  4         15
REACTION  1(6-C-13(P,0),,EN)
          2(6-C-13(P,TOT),,WID)
FLAG       (1.) Resonances observed in capture
           (2.) Resonances observed in inelastic proton
           scattering to the excited state in 13C at 3.09 MeV.
           (3.) Resonances observed in inelastic proton
           scattering to the excited state in 13C at 3.68 MeV.
           (4.) Resonances observed in inelastic proton
           scattering to the excited state in 13C at 3.85 MeV.
ERR-ANALYS (DATA-ERR) No information on sources of uncertainties.
STATUS     (TABLE) Tab.1 (p.468) in Nucl.Phys.A,175,462,1971.
           (DEP,C2679002)
           (DEP,C2679003)
           (DEP,C2679004)
           (DEP,C2679005)
ENDBIB              15
NOCOMMON             0          0
DATA                 6         12
DATA      1DATA-ERR  1DATA      2DATA-ERR  2DATA-MAX   FLAG
MEV        MEV        KEV        KEV        KEV        NO-DIM
3.11       0.01       37.        9.                    1.
3.72       0.03       165.       30.                   1.
3.771      0.005                            2.         1.
3.94       0.03       220.       30.                   1.
4.525      0.015      120.       10.                   1.
4.525      0.015      137.       20.                   2.
4.525      0.015      110.       15.                   3.
5.325      0.01       60.        20.                   1.
5.325      0.01       52.        10.                   3.
5.325      0.01       41.        10.                   4.
5.88       0.02       120.       30.                   1.
6.20       0.10       1000.      150.                  1.
ENDDATA             14
ENDSUBENT           34
SUBENT        C2679007   20220117   20220803   20220802       C212
BIB                  5         12
REACTION   (6-C-13(P,G)7-N-14,PAR,DA)
SAMPLE     The self-supporting targets, obtained by depositing
           carbon onto polished Ni foils of 50 mu-m thickness,
           were used. Thickness of targets were 150 mu-g/cm2.
           (6-C-13,ENR=0.50)
DETECTOR   (NAICR) The Stanford 10 inch NaI assembly contained
           an anti-coincidence shield for lineshape improvement
           and the cosmic-ray rejection.
ERR-ANALYS No information on uncertainties.
STATUS     (CURVE) Fig.9 (p.475) in Nucl.Phys.A,175,462,1971 was
           digitized by GSYS2.4.7.
           (COREL,C2679002) (p,g0) cross sectoins at 3-7 MeV
ENDBIB              12
COMMON               1          3
ANG
ADEG
90.
ENDCOMMON            3
DATA                 3        483
E-LVL      EN         DATA
MEV        MEV        MU-B/SR
        0.0      4.998      1.326
        0.0      5.051      1.439
        0.0      5.168      1.385
        0.0      5.216      1.455
        0.0      5.503      1.872
        0.0      5.563      2.001
        0.0      5.736      2.177
        0.0      5.835      2.712
        0.0      6.015      2.562
        0.0      6.336      2.931
        0.0      6.380      2.835
        0.0      6.432      2.602
        0.0      6.477      2.452
        0.0      6.515      2.383
        0.0      6.557      2.289
        0.0      6.602      2.160
        0.0      6.730      1.566
        0.0      6.835      1.124
        0.0      6.880      1.055
        0.0      6.906      0.987
        0.0      6.976      0.864
        0.0      7.034      0.850
        0.0      7.092      0.918
        0.0      7.195      0.918
        0.0      7.227      0.850
        0.0      7.310      0.713
        0.0      7.393      0.754
        0.0      7.445      0.809
        0.0      7.579      0.973
        0.0      7.599      1.069
        0.0      7.650      1.178
        0.0      7.688      1.301
        0.0      7.708      1.712
        0.0      7.740      1.424
        0.0      7.753      1.534
        0.0      7.791      1.657
        0.0      7.804      1.315
        0.0      7.810      1.753
        0.0      7.849      1.917
        0.0      7.887      2.026
        0.0      7.907      2.163
        0.0      7.964      2.327
        0.0      8.022      2.656
        0.0      8.073      2.313
        0.0      8.137      2.245
        0.0      8.182      2.163
        0.0      8.272      2.012
        0.0      8.298      1.944
        0.0      8.304      1.738
        0.0      8.330      1.889
        0.0      8.452      1.752
        0.0      8.496      1.711
        0.0      8.497      1.834
        0.0      8.535      1.642
        0.0      8.567      1.574
        0.0      8.605      1.519
        0.0      8.779      1.341
        0.0      8.791      1.218
        0.0      8.843      1.300
        0.0      9.009      1.519
        0.0      9.016      1.300
        0.0      9.061      1.341
        0.0      9.099      1.300
        0.0      9.189      1.382
        0.0      9.285      1.300
        0.0      9.324      1.217
        0.0      9.407      1.190
        0.0      9.452      1.108
        0.0      9.490      0.903
        0.0      9.516      1.053
        0.0      9.612      0.985
        0.0      9.702      0.670
        0.0      9.702      0.889
        0.0      9.760      0.889
        0.0      9.894      1.149
        0.0      9.901      0.971
        0.0      9.958      1.012
        0.0     10.093      1.107
        0.0     10.119      1.230
        0.0     10.202      1.531
        0.0     10.215      1.230
        0.0     10.298      1.367
        0.0     10.363      1.449
        0.0     10.433      1.271
        0.0     10.459      1.572
        0.0     10.536      1.969
        0.0     10.587      2.243
        0.0     10.709      1.750
        0.0     10.709      1.996
        0.0     10.812      2.133
        0.0     10.863      2.311
        0.0     10.901      2.448
        0.0     10.978      2.557
        0.0     11.004      2.147
        0.0     11.011      2.762
        0.0     11.049      2.639
        0.0     11.094      2.954
        0.0     11.120      3.104
        0.0     11.126      3.255
        0.0     11.145      2.653
        0.0     11.184      3.296
        0.0     11.216      2.872
        0.0     11.242      3.296
        0.0     11.306      3.747
        0.0     11.312      3.296
        0.0     11.338      3.528
        0.0     11.344      3.829
        0.0     11.402      4.172
        0.0     11.415      3.296
        0.0     11.415      3.925
        0.0     11.441      4.432
        0.0     11.485      4.774
        0.0     11.492      4.308
        0.0     11.498      3.939
        0.0     11.556      4.582
        0.0     11.601      4.705
        0.0     11.627      4.856
        0.0     11.627      5.170
        0.0     11.710      4.308
        0.0     11.723      5.157
        0.0     11.736      4.732
        0.0     11.813      5.389
        0.0     11.813      5.772
        0.0     11.858      5.540
        0.0     11.909      6.046
        0.0     12.005      6.456
        0.0     12.018      5.690
        0.0     12.031      6.128
        0.0     12.121      5.923
        0.0     12.159      6.566
        0.0     12.178      6.237
        0.0     12.255      6.853
        0.0     12.320      7.017
        0.0     12.377      7.086
        0.0     12.416      7.318
        0.0     12.435      7.140
        0.0     12.531      7.140
        0.0     12.627      7.208
        0.0     12.692      7.167
        0.0     12.724      7.003
        0.0     12.762      7.113
        0.0     12.801      7.126
        0.0     12.897      7.044
        0.0     12.909      6.592
        0.0     12.954      7.030
        0.0     13.019      7.153
        0.0     13.115      6.921
        0.0     13.204      5.908
        0.0     13.307      7.878
        0.0     13.359      7.167
        0.0     13.416      7.317
        0.0     13.500      6.989
        0.0     13.609      7.522
        0.0     13.711      7.413
        0.0     13.718      7.632
        0.0     13.814      7.919
        0.0     13.852      6.893
        0.0     13.897      7.413
        0.0     13.910      7.221
        0.0     13.936      7.700
        0.0     13.987      7.837
        0.0     13.993      7.590
        0.0     14.032      7.974
        0.0     14.058      8.165
        0.0     14.071      8.288
        0.0     14.083      8.630
        0.0     14.090      8.452
        0.0     14.116      8.754
        0.0     14.135      8.972
        0.0     14.135      9.150
        0.0     14.160      8.288
        0.0     14.193      9.082
        0.0     14.302      8.781
        0.0     14.314      8.534
        0.0     14.333      7.576
        0.0     14.333      8.302
        0.0     14.417      6.865
        0.0     14.417      8.055
        0.0     14.481      6.742
        0.0     14.513      7.850
        0.0     14.596      6.769
        0.0     14.801      6.700
        0.0     15.026      6.892
        0.0     15.116      6.495
        0.0     15.212      7.097
        0.0     15.315      7.849
        0.0     15.321      8.164
        0.0     15.340      8.424
        0.0     15.379      8.684
        0.0     15.411      9.300
        0.0     15.488      9.655
        0.0     15.520      9.245
        0.0     15.539     10.093
        0.0     15.604     10.559
        0.0     15.642     10.819
        0.0     15.694     11.188
        0.0     15.700     11.516
        0.0     15.706     10.914
        0.0     15.713     11.352
        0.0     15.790     11.886
        0.0     15.796     11.393
        0.0     15.803     12.707
        0.0     15.899     12.679
        0.0     15.899     14.157
        0.0     15.905     12.173
        0.0     15.950     12.570
        0.0     16.041     14.664
        0.0     16.117     14.390
        0.0     16.201     14.034
        0.0     16.252     13.459
        0.0     16.277     12.665
        0.0     16.303     11.160
        0.0     16.380     10.955
        0.0     16.399     10.749
        0.0     16.425     11.187
        0.0     16.431     11.529
        0.0     16.444     12.077
        0.0     16.496     12.816
        0.0     16.528     13.705
        0.0     16.541     14.253
        0.0     16.630     13.787
        0.0     16.758     12.419
        0.0     16.791     13.212
        0.0     16.848     10.954
        0.0     16.854     11.652
        0.0     16.899     11.242
        0.0     16.938     11.447
        0.0     16.957     10.503
        0.0     16.970     10.188
        0.0     16.989      9.996
        0.0     17.001      9.504
        0.0     17.040      8.888
        0.0     17.078      8.778
        0.0     17.098      9.380
        0.0     17.129      7.793
        0.0     17.187      8.518
        0.0     17.258      8.586
        0.0     17.277     10.379
        0.0     17.335      9.421
        0.0     17.348      8.135
        0.0     17.379      7.724
        0.0     17.386      8.354
        0.0     17.438     10.283
        0.0     17.489      9.257
        0.0     17.579      8.901
        0.0     17.623      8.107
        0.0     17.668      7.916
        0.0     17.688      9.161
        0.0     17.815      7.081
        0.0     17.854      6.561
        0.0     17.911      6.095
        0.0     17.976      6.396
        0.0     17.988      5.534
        0.0     18.072      5.315
        0.0     18.084      5.165
      2.313      5.527      0.511
      2.313      5.585      0.331
      2.313      5.681      0.416
      2.313      5.842      0.599
      2.313      5.906      0.739
      2.313      5.958      0.628
      2.313      6.015      0.699
      2.313      6.112      0.602
      2.313      6.190      0.576
      2.313      6.279      0.674
      2.313      6.368      1.177
      2.313      6.440      0.788
      2.313      6.536      0.886
      2.313      6.587      1.110
      2.313      6.659      0.958
      2.313      6.704      0.930
      2.313      6.761      1.056
      2.313      6.909      1.058
      2.313      6.987      1.073
      2.313      7.051      1.088
      2.313      7.128      1.089
      2.313      7.315      1.231
      2.313      7.347      1.329
      2.313      7.392      1.357
      2.313      7.449      1.386
      2.313      7.527      1.387
      2.313      7.585      1.387
      2.313      7.694      1.263
      2.313      7.753      1.195
      2.313      7.798      1.139
      2.313      7.862      1.182
      2.313      7.907      1.197
      2.313      7.997      1.212
      2.313      8.074      1.282
      2.313      8.203      1.437
      2.313      8.299      1.424
      2.313      8.402      1.509
      2.313      8.473      1.538
      2.313      8.512      1.371
      2.313      8.595      1.581
      2.313      8.602      1.331
      2.313      8.672      1.652
      2.313      8.718      1.416
      2.313      8.749      1.709
      2.313      8.800      1.932
      2.313      8.833      1.752
      2.313      8.897      1.794
      2.313      8.987      1.907
      2.313      9.083      1.922
      2.313      9.186      2.007
      2.313      9.207      1.520
      2.313      9.263      2.050
      2.313      9.308      2.231
      2.313      9.328      2.078
      2.313      9.392      2.149
      2.313      9.490      1.537
      2.313      9.508      2.136
      2.313      9.578      2.179
      2.313      9.623      2.207
      2.313      9.694      2.278
      2.313      9.791      2.237
      2.313      9.894      2.211
      2.313      9.902      1.598
      2.313      9.997      2.296
      2.313     10.100      2.214
      2.313     10.210      2.104
      2.313     10.300      2.091
      2.313     10.306      2.369
      2.313     10.416      2.134
      2.313     10.519      2.010
      2.313     10.596      1.983
      2.313     10.604      1.565
      2.313     10.687      1.970
      2.313     10.732      1.887
      2.313     10.777      1.902
      2.313     10.899      1.862
      2.313     11.003      1.571
      2.313     11.034      2.072
      2.313     11.073      1.794
      2.313     11.111      2.157
      2.313     11.112      1.725
      2.313     11.125      1.642
      2.313     11.214      2.270
      2.313     11.215      1.657
      2.313     11.221      1.880
      2.313     11.299      1.644
      2.313     11.344      1.854
      2.313     11.401      2.161
      2.313     11.415      1.715
      2.313     11.524      1.870
      2.313     11.608      1.843
      2.313     11.691      1.844
      2.313     11.807      1.846
      2.313     11.897      1.847
      2.313     11.955      1.875
      2.313     11.997      3.143
      2.313     12.007      1.848
      2.313     12.097      1.807
      2.313     12.155      1.878
      2.313     12.200      1.865
      2.313     12.221      1.210
      2.313     12.258      1.851
      2.313     12.310      1.476
      2.313     12.392      2.424
      2.313     12.393      1.825
      2.313     12.477      1.868
      2.313     12.517      1.409
      2.313     12.554      1.855
      2.313     12.638      1.842
      2.313     12.702      1.787
      2.313     12.741      1.899
      2.313     12.799      1.830
      2.313     12.907      2.375
      2.313     13.022      2.530
      2.313     13.096      1.361
      2.313     13.183      2.755
      2.313     13.308      1.614
      2.313     13.411      1.504
      2.313     13.515      1.478
      2.313     13.596      2.426
      2.313     13.672      2.817
      2.313     13.682      1.633
      2.313     13.873      2.192
      2.313     13.884      3.056
      2.313     13.894      1.677
      2.313     13.924      2.527
      2.313     13.957      2.193
      2.313     13.996      1.832
      2.313     14.014      2.431
      2.313     14.015      2.069
      2.313     14.032      3.016
      2.313     14.093      1.833
      2.313     14.098      2.335
      2.313     14.113      1.471
      2.313     14.151      1.904
      2.313     14.214      2.308
      2.313     14.252      2.671
      2.313     14.279      2.128
      2.313     14.292      1.919
      2.313     14.389      2.060
      2.313     14.409      1.656
      2.313     14.478      2.312
      2.313     14.698      1.813
      2.313     14.775      1.870
      2.313     14.793      2.622
      2.313     14.859      1.857
      2.313     14.892      1.495
      2.313     14.930      1.872
      2.313     14.986      2.430
      2.313     15.065      1.887
      2.313     15.123      1.874
      2.313     15.195      1.513
      2.313     15.207      1.861
      2.313     15.378      2.741
      2.313     15.387      1.864
      2.313     15.478      1.586
      2.313     15.592      2.145
      2.313     15.690      1.812
      2.313     15.781      1.646
      2.313     15.873      2.998
      2.313     15.898      1.174
      2.313     15.966      2.205
      2.313     16.102      1.748
      2.313     16.133      2.124
      2.313     16.169      3.225
      2.313     16.194      1.192
      2.313     16.246      0.872
      2.313     16.329      1.207
      2.313     16.484      0.875
      2.313     16.528      1.614
      2.313     16.558      2.157
      2.313     16.632      0.919
      2.313     16.680      2.437
      2.313     16.727      1.714
      2.313     16.758      1.993
      2.313     16.809      2.230
      2.313     16.823      1.729
      2.313     16.939      1.953
      2.313     16.949      2.719
      2.313     16.980      0.979
      2.313     16.987      2.998
      2.313     17.014      2.595
      2.313     17.025      3.250
      2.313     17.076      3.612
      2.313     17.096      3.404
      2.313     17.101      3.877
      2.313     17.150      4.783
      2.313     17.164      4.143
      2.313     17.202      4.380
      2.313     17.236      4.004
      2.313     17.296      3.086
      2.313     17.299      4.423
      2.313     17.355      5.023
      2.313     17.364      4.187
      2.313     17.395      4.772
      2.313     17.409      4.104
      2.313     17.449      3.687
      2.313     17.468      3.854
      2.313     17.488      3.646
      2.313     17.507      3.618
      2.313     17.534      3.228
      2.313     17.546      3.465
      2.313     17.613      2.491
      2.313     17.634      4.497
      2.313     17.685      2.200
      2.313     17.782      1.964
      2.313     17.800      2.313
      2.313     17.805      2.911
      2.313     17.809      1.407
      2.313     17.820      2.118
      2.313     17.835      3.970
      2.313     17.836      3.539
      2.313     17.847      4.124
      2.313     17.878      4.556
      2.313     17.881      3.595
      2.313     17.886      3.832
      2.313     17.895      2.913
      2.313     17.909      2.592
      2.313     17.922      2.509
      2.313     17.923      2.133
      2.313     17.949      2.342
      2.313     17.963      1.827
      2.313     17.982      1.786
      2.313     18.015      1.563
      2.313     18.041      1.494
      2.313     18.060      1.647
      2.313     18.073      1.411
      2.313     18.107      1.021
ENDDATA            485
ENDSUBENT          506
SUBENT        C2679008   20220117   20220803   20220802       C212
BIB                  6         16
REACTION   (6-C-13(P,INL)6-C-13,PAR,DA,G,REL)
LEVEL-PROP (6-C-13,E-LVL=3.09,SPIN=0.5,PARITY=+1.)
           (6-C-13,E-LVL=3.68,SPIN=1.5,PARITY=-1.)
           (6-C-13,E-LVL=3.85,SPIN=2.5,PARITY=+1.)
SAMPLE     The self-supporting targets, obtained by depositing
           carbon onto polished Ni foils of 50 mu-m thickness,
           were used. Thickness of targets were 150 mu-g/cm2.
           (6-C-13,ENR=0.50)
DETECTOR   (GELI) The inelastic proton scattering to the first
           three excited states in 13C was measured by
           observation of the de-excitation gamma-rays in a 6
           cm3 Ge(Li) detector.
ERR-ANALYS No information on uncertainties.
STATUS     (CURVE) Fig.9 (p.475) in Nucl.Phys.A,175,462,1971 was
           digitized by GSYS2.4.7.
           (COREL,C2679003) gamma yields at 4-7 MeV
ENDBIB              16
COMMON               1          3
ANG
ADEG
60.
ENDCOMMON            3
DATA                 3        524
E          EN         DATA
MEV        MEV        ARB-UNITS
       3.09      5.992    965.734
       3.09      6.050    932.529
       3.09      6.082    879.616
       3.09      6.179    846.274
       3.09      6.217    799.938
       3.09      6.275    753.534
       3.09      6.372    753.190
       3.09      6.417    819.027
       3.09      6.471    901.186
       3.09      6.489    977.168
       3.09      6.495    996.944
       3.09      6.546   1125.036
       3.09      6.574   1260.658
       3.09      6.638   1280.228
       3.09      6.684   1365.863
       3.09      6.734   1392.217
       3.09      6.782   1452.174
       3.09      6.879   1462.765
       3.09      6.975   1510.026
       3.09      6.982   1740.993
       3.09      7.034   1516.877
       3.09      7.083   1008.057
       3.09      7.123   1522.698
       3.09      7.173   1516.383
       3.09      7.180   1291.501
       3.09      7.265   1522.193
       3.09      7.355   1442.676
       3.09      7.440   1433.440
       3.09      7.488   1378.607
       3.09      7.542   1303.416
       3.09      7.575   1692.685
       3.09      7.587   1250.458
       3.09      7.621   1230.544
       3.09      7.695   1181.082
       3.09      7.700   1137.333
       3.09      7.738   1164.531
       3.09      7.779   1031.980
       3.09      7.786   1137.552
       3.09      7.883   1091.010
       3.09      7.960   1097.335
       3.09      7.987   1321.634
       3.09      8.026   1086.978
       3.09      8.070   1077.146
       3.09      8.092   1763.448
       3.09      8.199   1089.887
       3.09      8.282    937.795
       3.09      8.385    653.640
       3.09      8.491    986.934
       3.09      8.586   1207.306
       3.09      8.631   1028.953
       3.09      8.689    916.551
       3.09      8.786   1147.198
       3.09      8.895    810.222
       3.09      8.993   1153.064
       3.09      9.083   1033.948
       3.09      9.180   1017.282
       3.09      9.263   1039.905
       3.09      9.294    683.406
       3.09      9.392   1059.246
       3.09      9.476   1072.147
       3.09      9.496   1243.671
       3.09      9.576   1092.404
       3.09      9.592    933.140
       3.09      9.657   1097.904
       3.09      9.683   1243.006
       3.09      9.767   1123.913
       3.09      9.798    912.608
       3.09      9.889   1130.077
       3.09      9.993   1248.505
       3.09     10.090   1155.765
       3.09     10.192   1056.403
       3.09     10.290   1412.444
       3.09     10.296   1128.633
       3.09     10.372   1122.372
       3.09     10.404   1155.055
       3.09     10.509   1081.678
       3.09     10.598    942.763
       3.09     10.657   1067.951
       3.09     10.694    678.430
       3.09     10.714   1055.561
       3.09     10.786   1041.094
       3.09     10.850   1007.866
       3.09     10.889    921.932
       3.09     10.999   1073.336
       3.09     11.034    961.496
       3.09     11.098    972.201
       3.09     11.152    911.882
       3.09     11.193   1316.838
       3.09     11.210    889.808
       3.09     11.293    306.713
       3.09     11.398    893.722
       3.09     11.450    834.292
       3.09     11.494    629.389
       3.09     11.520    801.247
       3.09     11.563    790.163
       3.09     11.595    844.711
       3.09     11.632    762.585
       3.09     11.691    745.977
       3.09     11.701    641.855
       3.09     11.771    729.294
       3.09     11.791    588.736
       3.09     11.888    723.410
       3.09     11.991    673.821
       3.09     12.101    614.034
       3.09     12.204    620.267
       3.09     12.288    633.168
       3.09     12.397    579.981
       3.09     12.494    586.237
       3.09     12.598    830.059
       3.09     12.655    592.263
       3.09     12.701    875.891
       3.09     12.791    578.582
       3.09     12.894    598.015
       3.09     12.978    564.718
       3.09     12.996    300.660
       3.09     12.997    564.649
       3.09     13.100    570.882
       3.09     13.190    237.748
       3.09     13.191    544.162
       3.09     13.287    537.218
       3.09     13.301    735.164
       3.09     13.397    444.432
       3.09     13.410    526.679
       3.09     13.494    628.881
       3.09     13.591    536.141
       3.09     13.700    489.553
       3.09     13.784    495.855
       3.09     13.797    436.411
       3.09     13.900    574.638
       3.09     13.929    492.040
       3.09     14.003    349.881
       3.09     14.010    481.853
       3.09     14.083    436.827
       3.09     14.132    474.920
       3.09     14.196    512.955
       3.09     14.260    463.532
       3.09     14.296    244.749
       3.09     14.319    457.856
       3.09     14.388    468.542
       3.09     14.447    446.468
       3.09     14.490    539.242
       3.09     14.597    577.126
       3.09     14.618    429.462
       3.09     14.688    751.723
       3.09     14.703    423.692
       3.09     14.773    417.979
       3.09     14.789    412.455
       3.09     14.799    292.160
       3.09     14.863    412.190
       3.09     14.895    242.622
       3.09     14.938    411.924
       3.09     14.997    307.856
       3.09     15.066    395.069
       3.09     15.100    711.997
       3.09     15.115    394.898
       3.09     15.179    432.934
       3.09     15.248    399.890
       3.09     15.312    388.729
       3.09     15.392    404.843
       3.09     15.467    382.713
       3.09     15.493    142.103
       3.09     15.510    382.561
       3.09     15.574    376.866
       3.09     15.589     59.768
       3.09     15.681    381.953
       3.09     15.761    359.803
       3.09     15.788    540.094
       3.09     15.841    359.518
       3.09     15.883     69.656
       3.09     15.900    353.843
       3.09     15.969    353.596
       3.09     15.987    692.446
       3.09     16.082    375.062
       3.09     16.173    391.138
       3.09     16.183    336.438
       3.09     16.220    330.839
       3.09     16.273     84.669
       3.09     16.290    330.592
       3.09     16.338    330.421
       3.09     16.380    171.748
       3.09     16.391    335.697
       3.09     16.477    329.927
       3.09     16.478    570.441
       3.09     16.562    324.157
       3.09     16.577     67.187
       3.09     16.669    329.244
       3.09     16.755    318.007
       3.09     16.781    263.250
       3.09     16.862    328.560
       3.09     16.862    558.142
       3.09     16.926    311.933
       3.09     16.947    311.857
       3.09     16.969    623.357
       3.68      5.964   1621.281
       3.68      6.039   1717.955
       3.68      6.078   2236.928
       3.68      6.093   1782.372
       3.68      6.131   1890.214
       3.68      6.169   2008.876
       3.68      6.228   2105.700
       3.68      6.282   2299.947
       3.68      6.314   2364.563
       3.68      6.400   2612.606
       3.68      6.470   2720.149
       3.68      6.481   2871.518
       3.68      6.503   3001.149
       3.68      6.541   3098.172
       3.68      6.584   3324.976
       3.68      6.627   3497.684
       3.68      6.660   3648.854
       3.68      6.687   3940.722
       3.68      6.703   3778.285
       3.68      6.741   4037.596
       3.68      6.790   4221.073
       3.68      6.817   4426.389
       3.68      6.870   4436.709
       3.68      6.970   5625.922
       3.68      6.983   5269.674
       3.68      7.173   5576.988
       3.68      7.299   5666.719
       3.68      7.363   6138.834
       3.68      7.499   5058.385
       3.68      7.579   4906.168
       3.68      7.679   6244.985
       3.68      7.804   5752.928
       3.68      7.858   5879.691
       3.68      7.920   5424.582
       3.68      7.948   5010.917
       3.68      7.980   4848.330
       3.68      8.033   4523.255
       3.68      8.076   4403.844
       3.68      8.086   4165.722
       3.68      8.187   4013.306
       3.68      8.294   3893.297
       3.68      8.342   3741.379
       3.68      8.385   3784.257
       3.68      8.470   3675.266
       3.68      8.491   3339.672
       3.68      8.545   3674.568
       3.68      8.593   3436.096
       3.68      8.690   3684.040
       3.68      8.707   4300.584
       3.68      8.770   3737.387
       3.68      8.809   3996.699
       3.68      8.910   3660.356
       3.68      8.953   4038.629
       3.68      9.002   4222.106
       3.68      9.056   4362.256
       3.68      9.110   4567.322
       3.68      9.153   4685.934
       3.68      9.214   5163.408
       3.68      9.242   4836.098
       3.68      9.325   4781.710
       3.68      9.379   5084.149
       3.68      9.406   5488.671
       3.68      9.504   5254.155
       3.68      9.613   5253.132
       3.68      9.729   5345.495
       3.68      9.816   5262.927
       3.68      9.920   5068.290
       3.68      9.920   5320.357
       3.68     10.026   5259.516
       3.68     10.112   5809.141
       3.68     10.116   5225.086
       3.68     10.186   5189.400
       3.68     10.208   4686.944
       3.68     10.319   5375.041
       3.68     10.349   5038.327
       3.68     10.514   4868.007
       3.68     10.555   4812.192
       3.68     10.601   4671.601
       3.68     10.722   4612.070
       3.68     10.827   4821.341
       3.68     10.830   5059.808
       3.68     10.915   5818.965
       3.68     11.017   5813.901
       3.68     11.125   5631.086
       3.68     11.221   5045.347
       3.68     11.312   4936.307
       3.68     11.312   5033.680
       3.68     11.414   4729.794
       3.68     11.525   4241.883
       3.68     11.526   4826.504
       3.68     11.602   4895.884
       3.68     11.706   5011.715
       3.68     11.731   5402.195
       3.68     11.821   4835.437
       3.68     11.898   5358.306
       3.68     12.025   5865.056
       3.68     12.097   5658.393
       3.68     12.178   5457.648
       3.68     12.228   5750.298
       3.68     12.240   5257.072
       3.68     12.309   5046.038
       3.68     12.319   4894.469
       3.68     12.335   4710.393
       3.68     12.426   4622.992
       3.68     12.468   4338.844
       3.68     12.525   3605.039
       3.68     12.526   4145.999
       3.68     12.639   4112.494
       3.68     12.649   3863.552
       3.68     12.744   3083.672
       3.68     12.745   3624.632
       3.68     12.847   3915.802
       3.68     12.873   3590.977
       3.68     12.931   2973.734
       3.68     12.964   3514.394
       3.68     13.023   3384.015
       3.68     13.098   3404.955
       3.68     13.131   3374.889
       3.68     13.136   3281.395
       3.68     13.217   3350.721
       3.68     13.238   3890.522
       3.68     13.301   3294.867
       3.68     13.341   4246.607
       3.68     13.385   3279.079
       3.68     13.424   3077.336
       3.68     13.537   3227.757
       3.68     13.581   3183.808
       3.68     13.644   3183.482
       3.68     13.651   3843.403
       3.68     13.703   3194.357
       3.68     13.717   2598.547
       3.68     13.749   3182.246
       3.68     13.836   3181.438
       3.68     13.905   3134.072
       3.68     13.928   3028.736
       3.68     13.957   3133.587
       3.68     14.026   3203.021
       3.68     14.119   3237.199
       3.68     14.146   2536.129
       3.68     14.183   3271.647
       3.68     14.217   3947.785
       3.68     14.270   3317.559
       3.68     14.338   2943.152
       3.68     14.368   3328.324
       3.68     14.434   3982.134
       3.68     14.449   3362.610
       3.68     14.507   3362.071
       3.68     14.552   2812.679
       3.68     14.582   3396.411
       3.68     14.631   3798.481
       3.68     14.674   3360.509
       3.68     14.731   2951.170
       3.68     14.749   3324.769
       3.68     14.830   3253.935
       3.68     14.838   3760.191
       3.68     14.882   3241.770
       3.68     14.923   3182.993
       3.68     15.033   3450.610
       3.68     15.044   3041.702
       3.68     15.130   2795.613
       3.68     15.142   2923.986
       3.68     15.199   2876.727
       3.68     15.234   2712.884
       3.68     15.240   2794.590
       3.68     15.280   2759.173
       3.68     15.338   2676.874
       3.68     15.384   2711.484
       3.68     15.424   2652.706
       3.68     15.540   2581.549
       3.68     15.598   2592.691
       3.68     15.639   2872.634
       3.68     15.754   2567.876
       3.68     15.840   2496.988
       3.68     15.904   2473.036
       3.68     15.938   2250.792
       3.68     15.973   2460.710
       3.68     16.031   2390.091
       3.68     16.118   2389.283
       3.68     16.136   2774.562
       3.68     16.239   2131.192
       3.68     16.332   2480.730
       3.68     16.424   2386.429
       3.68     16.444   2594.790
       3.68     16.523   2397.193
       3.68     16.592   2373.187
       3.68     16.640   1673.312
       3.68     16.667   2372.486
       3.68     16.731   2383.574
       3.68     16.823   2382.712
       3.68     16.875   2347.188
       3.68     16.939   2369.955
       3.68     17.031   2345.733
       3.68     17.102   2296.534
       3.85      5.939    882.589
       3.85      6.057   1239.464
       3.85      6.093   1078.419
       3.85      6.129   1292.718
       3.85      6.245    827.414
       3.85      6.363   1327.277
       3.85      6.453   1255.325
       3.85      6.553   1898.268
       3.85      6.553   2237.864
       3.85      6.608   2684.426
       3.85      6.655   4346.430
       3.85      6.725   3291.530
       3.85      6.761   3005.371
       3.85      6.816   3434.060
       3.85      6.870   3380.166
       3.85      6.978   3844.327
       3.85      7.032   3450.837
       3.85      7.049   2914.541
       3.85      7.185   3503.680
       3.85      7.266   3539.015
       3.85      7.292   3163.535
       3.85      7.373   2716.287
       3.85      7.454   2966.104
       3.85      7.481   2679.991
       3.85      7.589   3019.039
       3.85      7.699   4251.760
       3.85      7.797   3572.065
       3.85      7.878   3339.298
       3.85      8.004   3392.278
       3.85      8.094   3409.695
       3.85      8.103   3838.612
       3.85      8.175   3480.777
       3.85      8.264   2711.761
       3.85      8.391   3318.819
       3.85      8.463   3675.922
       3.85      8.499   3318.270
       3.85      8.589   3693.156
       3.85      8.698   4479.040
       3.85      8.788   3906.632
       3.85      8.816   4800.168
       3.85      8.895   3763.095
       3.85      9.022   4548.888
       3.85      9.084   3225.931
       3.85      9.301   3921.899
       3.85      9.301   4207.875
       3.85      9.409   3867.730
       3.85      9.479   2866.450
       3.85      9.705   3598.119
       3.85      9.823   3919.247
       3.85      9.858   3597.342
       3.85      9.931   3990.192
       3.85     10.002   3739.598
       3.85     10.092   3542.533
       3.85     10.209   3559.812
       3.85     10.308   3452.068
       3.85     10.417   4220.079
       3.85     10.434   3415.681
       3.85     10.587   3486.398
       3.85     10.603   2110.049
       3.85     10.712   2752.945
       3.85     10.812   3342.267
       3.85     10.894   4235.529
       3.85     10.957   4413.944
       3.85     11.075   4609.958
       3.85     11.120   4699.096
       3.85     11.210   4752.260
       3.85     11.229   5431.360
       3.85     11.309   4823.251
       3.85     11.417   4912.069
       3.85     11.524   3964.227
       3.85     11.614   4178.251
       3.85     11.722   3784.486
       3.85     11.731   3802.314
       3.85     11.830   3605.203
       3.85     11.937   3247.185
       3.85     12.037   3836.506
       3.85     12.118   3800.348
       3.85     12.225   3263.595
       3.85     12.333   2816.210
       3.85     12.359   2673.085
       3.85     12.431   2601.225
       3.85     12.485   2457.963
       3.85     12.521   2350.539
       3.85     12.584   2242.978
       3.85     12.628   1527.811
       3.85     12.656   2135.372
       3.85     12.737   2581.797
       3.85     12.773   2045.410
       3.85     12.817   1634.092
       3.85     12.926   2402.102
       3.85     12.943   1883.680
       3.85     13.024   1865.395
       3.85     13.132   1829.100
       3.85     13.213   1757.194
       3.85     13.222   1292.438
       3.85     13.348   1702.888
       3.85     13.439   1952.659
       3.85     13.528   1576.859
       3.85     13.638   2827.454
       3.85     13.718   1951.242
       3.85     13.826   2040.061
       3.85     13.934   1896.524
       3.85     14.014   1645.884
       3.85     14.131   1734.657
       3.85     14.249   2127.279
       3.85     14.347   1626.319
       3.85     14.546   1947.036
       3.85     14.636   2268.301
       3.85     14.735   2339.292
       3.85     14.753   1999.605
       3.85     14.825   1838.378
       3.85     14.923   1659.140
       3.85     14.932   1498.233
       3.85     15.048    907.814
       3.85     15.130   1586.595
       3.85     15.238   1174.956
       3.85     15.354    888.386
       3.85     15.454   1281.100
       3.85     15.552    440.544
       3.85     15.634   1065.704
       3.85     15.724    958.006
       3.85     15.751   1172.350
       3.85     15.841   1314.881
       3.85     15.959   1653.882
       3.85     16.030   1188.806
       3.85     16.157   2081.840
       3.85     16.247   1616.672
       3.85     16.265   1741.695
       3.85     16.318   1544.813
       3.85     16.319   1812.915
       3.85     16.427   1865.987
       3.85     16.498   1383.037
       3.85     16.526   1847.610
       3.85     16.652   1829.097
       3.85     16.715   2025.385
       3.85     16.815   2364.478
       3.85     17.021   2095.324
       3.85     17.029   1183.732
ENDDATA            526
ENDSUBENT          551
SUBENT        C2679009   20220117   20220803   20220802       C212
BIB                  3          4
REACTION   (6-C-13(P,G)7-N-14,PAR,DA,,LEG/RS)
ERR-ANALYS (DATA-ERR) No information on sources of uncertainties.
STATUS     (TABLE) Tab.4 (p.477) in Nucl.Phys.A,175,462,1971.
           (DEP,C2679007)
ENDBIB               4
NOCOMMON             0          0
DATA                 5         20
EN         E-LVL      NUMBER     DATA       DATA-ERR
MEV        MEV        NO-DIM     NO-DIM     NO-DIM
        6.3        0.0         1.       0.08       0.02
        6.3        0.0         2.      -0.39       0.02
        8.0        0.0         1.       0.07       0.30
        8.0        0.0         2.      -0.45       0.54
        8.0      2.313         1.       0.14       0.24
        8.0      2.313         2.       0.10       0.40
       10.5        0.0         1.       0.28       0.20
       10.5        0.0         2.      -0.13       0.33
       10.5      2.313         1.       0.29       0.03
       10.5      2.313         2.      -0.10       0.04
       12.5        0.0         1.       0.15       0.08
       12.5        0.0         2.      -0.63       0.14
       12.5      2.313         1.       0.40       0.24
       12.5      2.313         2.       0.09       0.47
       14.0        0.0         1.       0.22       0.07
       14.0        0.0         2.      -0.46       0.14
       14.0      2.313         1.      -0.05       0.48
       14.0      2.313         2.      -0.34       0.95
       16.6        0.0         1.       0.21       0.09
       16.6        0.0         2.      -0.48       0.19
ENDDATA             22
ENDSUBENT           31
ENDENTRY             9
