ENTRY            20901     790528
SUBENT        20901001     790528              20050926       0000
BIB                 12         15
INSTITUTE  (2GERHAM) INSTITUT FUR EXPERIMENTALPHYSIK.
REFERENCE  (P,EANDC(E)-66,48,6602) ABSTRACT AND TABLE.
AUTHOR     (M.BORMANN,H.GENZ)
TITLE      -TOTAL NEUTRON CROSS SECTION OF NATURAL LITHIUM
            IN THE ENERGY RANGE 4.2 - 6.1 MEV-.
FACILITY   (VDG  ) 3 MEV VAN DER GRAAFF.
INC-SOURCE (D-D  ) 3 MEV DEUTERIUM BEAM ON GAS TARGET.
DETECTOR   (SCIN ) STILBENE PROTON RECOIL SPECTROMETER.
PART-DET   (N    ) NEUTRONS.
STATUS     .DATA TAKEN FROM TABLE 3.3, EANDC(E)-66,48.
HISTORY    (790410C)
           (790528E)
CORRECTION .TRANSMISSION MEASUREMENTS ARE CORRECTED FOR NEUTRONS
            SCATTERED IN THE FORWARD DIRECTION.
ERR-ANALYS .QUOTED ERRORS ON CROSS SECTION IS +1 PC,-2PC.
ENDBIB              15
COMMON               1          3
EN-RSL
MEV
 4.0000E-02
ENDCOMMON            3
ENDSUBENT           22
SUBENT        20901002     790528              20050926       0000
BIB                  2          2
REACTION   (3-LI-0(N,TOT),,SIG)
STATUS     .TABLE 3.3.
ENDBIB               2
NOCOMMON             0          0
DATA                 4         40
EN         DATA       -DATA-ERR  +DATA-ERR
MEV        B          B          B
 4.1700E+00 2.4500E+00 2.4000E-02 2.4000E-02
 4.2100E+00 2.4400E+00 4.9000E-02 2.4000E-02
 4.2500E+00 2.4100E+00 4.8000E-02 2.4000E-02
 4.2900E+00 2.4900E+00 5.0000E-02 2.5000E-02
 4.3400E+00 2.4700E+00 5.0000E-02 2.5000E-02
 4.3800E+00 2.5000E+00 5.0000E-02 2.5000E-02
 4.4400E+00 2.4900E+00 5.0000E-02 2.5000E-02
 4.4800E+00 2.4300E+00 5.0000E-02 2.5000E-02
 4.5300E+00 2.4800E+00 5.0000E-02 2.5000E-02
 4.5700E+00 2.3500E+00 4.7000E-02 2.3000E-02
 4.6200E+00 2.4400E+00 4.9000E-02 2.4000E-02
 4.6600E+00 2.4400E+00 4.9000E-02 2.4000E-02
 4.7200E+00 2.4500E+00 4.9000E-02 2.4000E-02
 4.7600E+00 2.4100E+00 4.8000E-02 2.4000E-02
 4.8100E+00 2.5400E+00 5.0000E-02 2.5000E-02
 4.8500E+00 2.3600E+00 4.6000E-02 2.3000E-02
 4.9000E+00 2.4800E+00 5.0000E-02 2.5000E-02
 4.9500E+00 2.4600E+00 5.0000E-02 2.5000E-02
 4.9900E+00 2.3000E+00 4.6000E-02 2.3000E-02
 5.0400E+00 2.3900E+00 4.8000E-02 2.4000E-02
 5.0800E+00 2.4300E+00 4.7000E-02 2.4000E-02
 5.1300E+00 2.3500E+00 4.7000E-02 2.3000E-02
 5.1800E+00 2.1700E+00 4.3000E-02 2.2000E-02
 5.2300E+00 2.1900E+00 4.4000E-02 2.2000E-02
 5.2800E+00 2.2400E+00 4.5000E-02 2.2000E-02
 5.3300E+00 2.2400E+00 4.5000E-02 2.2000E-02
 5.3800E+00 2.1100E+00 4.2000E-02 2.1000E-02
 5.4300E+00 2.2000E+00 4.4000E-02 2.2000E-02
 5.4800E+00 2.1800E+00 4.4000E-02 2.2000E-02
 5.5400E+00 2.1800E+00 4.4000E-02 2.2000E-02
 5.5900E+00 2.1100E+00 4.2000E-02 2.1000E-02
 5.6400E+00 2.2100E+00 4.4000E-02 2.2000E-02
 5.6900E+00 2.2100E+00 4.4000E-02 2.2000E-02
 5.7500E+00 2.2100E+00 4.4000E-02 2.2000E-02
 5.8000E+00 2.2000E+00 4.4000E-02 2.0000E-02
 5.8500E+00 2.2300E+00 4.5000E-02 2.2000E-02
 5.9000E+00 2.1000E+00 4.2000E-02 2.1000E-02
 5.9500E+00 2.2300E+00 4.5000E-02 2.3000E-02
 6.0100E+00 2.1700E+00 4.3000E-02 2.1000E-02
 6.0600E+00 2.1200E+00 4.2000E-02 2.1000E-02
ENDDATA             42
ENDSUBENT           49
ENDENTRY             2
