ENTRY            F0804   20070208   20070719   20070627       F027
SUBENT        F0804001   20070208   20070719   20070627       F027
BIB                 10         24
TITLE      Spectroscopic study of 15N states with the reaction
           14C(d,n).
AUTHOR     (J.Bommer,M.Ekpo,H.Fuchs,K.Grabisch,H.Kluge)
INSTITUTE  (2GERBER),Department of Physics,Free University, Berlin
REFERENCE  (J,NP/A,251,246,1975)
FACILITY   (VDG,2GERBER)
DETECTOR   Twelve neutron detectors at angles between 0 and 82.5
           degr. served for simultaneous measurement of the
           neutron spectra. The eight most-forward detectors were
           in a distance of 17.5 m from the target, the four
           others in shorter distances down to 13 m.
SAMPLE     The target consisted of 14C enriched to 74% and
           deposited on a thick gold backing. The effective
           surface density of 14C showed marked fluctuations over
           the target area as was checked by beta-decay
           measurements. After correcting the beta-counting rates
           for counter geometry, back-scattering and absorption,
           an average 14C thickness of 10.7 mu-g/cm2 +-25% was
           obtained for the exposed target area.
METHOD     (TOF)
ERR-ANALYS (ANG-ERR-D) Digitizing error
           (ERR-DIG) Digitizing error
           (DATA-ERR) Error from the graphic bars
HISTORY    (20070130C)
ENDBIB              24
COMMON               3          3
EN         ERR-DIG    ANG-ERR-D
MEV        PER-CENT   ADEG
  6.5       0.2        0.238
ENDCOMMON            3
ENDSUBENT           31
SUBENT        F0804002   20070208   20070719   20070627       F027
BIB                  2          2
REACTION   (6-C-14(D,N)7-N-15,PAR,DA)
STATUS     (CURVE)Fig.2,3
ENDBIB               2
NOCOMMON             0          0
DATA                 5         24
E-LVL      E-LVL      ANG-CM     DATA-CM    DATA-ERR
MEV        MEV        ADEG       MB/SR      MB/SR
 5.2710     5.2990     0.7932     127.06     33.091
 5.2710     5.2990     9.4871     92.268     23.058
 5.2710     5.2990     16.832     50.492     13.325
 5.2710     5.2990     24.488     25.145     8.6160
 5.2710     5.2990     33.013     23.004     5.8300
 5.2710     5.2990     41.063     27.793     7.1412
 5.2710     5.2990     49.596     22.707     5.6745
 5.2710     5.2990     56.466     16.256     4.0047
 5.2710     5.2990     64.708     11.050     2.5638
 5.2710     5.2990     71.871     9.1991     2.3636
 5.2710     5.2990     81.138     11.063     2.8425
 5.2710     5.2990     87.237     9.0794     2.3646
 9.1520     9.1550    0.47837     8.8750     2.2970
 9.1520     9.1550     8.6272     11.010     2.9256
 9.1520     9.1550     15.876     11.540     2.9868
 9.1520     9.1550     25.239     12.211     2.8151
 9.1520     9.1550     34.011     9.0533     2.0872
 9.1520     9.1550     40.662     8.0180     1.9629
 9.1520     9.1550     50.030     7.3040     1.9408
 9.1520     9.1550     57.285     6.4086     1.6140
 9.1520     9.1550     65.147     5.2665     1.3264
 9.1520     9.1550     73.312     4.2081     1.0598
 9.1520     9.1550     80.267     3.4906    0.87910
 9.1520     9.1550     89.337     2.8686    0.64059
ENDDATA             26
ENDSUBENT           33
SUBENT        F0804003   20070208   20070719   20070627       F027
BIB                  2          2
REACTION   (6-C-14(D,N)7-N-15,PAR,DA)
STATUS     (CURVE)Fig.2,3
ENDBIB               2
NOCOMMON             0          0
DATA                 4        128
E-LVL      ANG-CM     DATA-CM    DATA-ERR
MEV        ADEG       MB/SR      MB/SR
 0.0000    0.67398     4.0586     1.0726
 0.0000     9.1394     7.3303     1.9626
 0.0000     16.518     10.960     2.6254
 0.0000     24.557     10.563     2.8283
 0.0000     31.584     6.7509     1.7606
 0.0000     39.853     3.4076    0.91237
 0.0000     48.508     3.0313    0.79055
 0.0000     55.909     3.7700     1.0353
 0.0000     64.080     4.2464     1.1222
 0.0000     71.683     3.5022    0.85150
 0.0000     79.594     2.7683    0.73160
 6.3240    0.62243     7.2894     1.9287
 6.3240     9.5390     9.7802     2.6216
 6.3240     17.566     10.606     2.8063
 6.3240     24.556     8.7428     2.2214
 6.3240     32.650     4.5777     1.2112
 6.3240     40.888     2.5731    0.66283
 6.3240     49.723     1.6126    0.41540
 6.3240     56.845     1.6600    0.41002
 6.3240     64.575     1.6770    0.45531
 6.3240     72.304     1.7183    0.42440
 6.3240     79.880     1.7689    0.47416
 6.3240     87.171     1.5144    0.40067
 7.1550     0.2915     0.6222    0.15992
 7.1550     9.3400     0.8115    0.23592
 7.1550     17.428     1.1084    0.28490
 7.1550     25.122     2.3642    0.61584
 7.1550     34.245     3.1267    0.80369
 7.1550     41.570     3.1147    0.85370
 7.1550     50.004     2.1907    0.54027
 7.1550     57.957     1.8724    0.48773
 7.1550     66.574     1.0155    0.25044
 7.1550     72.872    0.70746    0.18428
 7.1550     80.849    0.49526    0.13239
 7.1550     89.721    0.41172    0.10583
 7.3010    0.28524     1.3257    0.32598
 7.3010     9.2040     1.5766    0.36469
 7.3010     15.588     1.9474    0.52038
 7.3010     25.460     2.8585    0.77386
 7.3010     33.832     3.3990    0.84801
 7.3010     41.319     3.1363    0.81601
 7.3010     49.587     2.4953    0.71003
 7.3010     57.386     2.1741    0.46247
 7.3010     64.330     1.1408    0.29680
 7.3010     71.382    0.86510    0.20329
 7.3010     80.440    0.54976    0.13913
 7.3010     88.059    0.60261    0.15465
 7.5660    0.27619     1.9239    0.52689
 7.5660     9.1819     1.9724    0.51256
 7.5660     16.655     2.0509    0.54020
 7.5660     25.046     2.0825    0.55581
 7.5660     34.644     2.3830    0.61080
 7.5660     41.349     2.5864    0.63519
 7.5660     49.899     2.4799    0.62683
 7.5660     56.909     2.6918    0.70899
 7.5660     64.837     2.8805    0.71775
 7.5660     73.689     2.8422    0.68774
 7.5660     80.404     2.8173    0.65089
 7.5660     88.193     2.6499    0.66031
 8.5760    0.2807     0.3233     0.07206
 8.5760     9.3047    0.38226    0.10566
 8.5760     17.666    0.50421    0.12701
 8.5760     25.726    0.64019    0.15669
 8.5760     33.334    0.77874    0.20442
 8.5760     40.834    0.63218    0.16373
 8.5760     49.870    0.47793    0.12713
 8.5760     57.233    0.33959    0.08311
 8.5760     65.100    0.16181    0.05448
 8.5760     80.881    0.09246    0.02362
 8.5760     88.681    0.07947    0.02002
 9.0530     0.9345     84.674     20.827
 9.0530     9.1626     63.576     16.087
 9.0530     16.962     32.761     9.0824
 9.0530     25.395     11.002     2.8530
 9.0530     33.847     2.7342    0.67252
 9.0530     41.600     2.9632    0.68640
 9.0530     49.343     3.8583     1.0433
 9.0530     57.708     4.0083    0.94293
 9.0530     65.327     3.2601    0.79029
 9.0530     81.316     2.4955    0.62265
 9.2250    0.85431     2.6120    0.66476
 9.2250     8.0401     2.9568    0.77329
 9.2250     17.015     3.6805     1.0387
 9.2250     25.100     4.2065    0.98015
 9.2250     33.500     4.2106     1.0115
 9.2250     41.018     3.5873    0.91297
 9.2250     49.143     2.8876    0.69372
 9.2250     57.318     1.5176    0.40746
 9.2250     63.956     1.0901    0.26189
 9.2250     72.991    0.80585    0.19360
 9.2250     80.508    0.69970    0.15793
 9.2250     88.319    0.63702    0.15760
 9.7620    0.28494     5.4513     1.2996
 9.7620     9.0870     5.3791     1.3981
 9.7620     17.177     5.2570     1.3290
 9.7620     25.411     5.5459     1.5192
 9.7620     33.802     5.6313     1.4035
 9.7620     41.597     5.0739     1.3008
 9.7620     50.159     4.3797     1.0916
 9.7620     58.722     3.7624    0.97792
 9.7620     66.822     3.3740    0.80435
 9.7620     73.857     2.9398    0.72213
 9.7620     81.495     2.7520    0.69574
 9.7620     89.433     2.6767    0.66711
 9.8290    0.34068    0.92768    0.23283
 9.8290     8.7539     1.1277    0.28302
 9.8290     16.879     1.6212    0.38404
 9.8290     25.317     2.8613    0.75773
 9.8290     32.821     3.0528    0.74477
 9.8290     41.828     3.3491    0.84056
 9.8290     49.633     3.6066    0.87988
 9.8290     58.034     3.6724    0.81720
 9.8290     65.531     3.5035    0.82992
 9.8290     73.932     3.5675    0.84507
 9.8290     80.829     3.4034    0.80622
 9.8290     88.325     3.1869    0.68595
 9.9290    0.04058     5.2533     1.3267
 9.9290     8.4263     5.1554     1.4090
 9.9290     15.985     3.8897     1.0095
 9.9290     25.358     2.7739    0.77697
 9.9290     33.822     1.4648    0.31730
 9.9290     41.081     2.0539    0.47484
 9.9290     48.641     2.0732    0.53806
 9.9290     58.015     2.0731    0.58068
 9.9290     65.575     2.3866    0.63591
 9.9290     74.042     2.2986    0.54792
 9.9290     80.997     2.2347    0.54859
 9.9290     88.554     1.3085    0.30250
ENDDATA            130
ENDSUBENT          137
ENDENTRY             3
