ENTRY            F0851   20071101   20080305   20080214       F029
SUBENT        F0851001   20071101   20080305   20080214       F029
BIB                 10         19
TITLE      Levels in 138Ce by in-beam spectroscopy.
AUTHOR     (G.Lo Bianco,P.Paruzzi,K.P.Schmittgen,R.Reinhardt,
           A.Gelberg,K.O.Zell,P.Von Brentano,N.Blasi)
INSTITUTE  (2ITYMIL,2GERKLN)
REFERENCE  (J,NP/A,470,266,1987)
FACILITY   (VDGT,2ITYMIL)
DETECTOR   (GELI) A coaxial Ge(Li) detector was set at angles of
           50, 70, 80, 90 and 159 degr. with respect to the beam
           axis, at a distance of 25 cm from the target. A second
           detector, whose position was kept fixed, was used as a
           monitor.
SAMPLE     The target used for the measurements was made of 136Ba
           oxide (isotopically enriched to 92.8%) and had a
           thickness of 3 mg/cm2.
METHOD     (GSPEC)
ERR-ANALYS (ANG-ERR-D)Angular digitizing error
           (ERR-DIG)  Data digitizing error
           (DATA-ERR) Error from the graphic bars
HISTORY    (20071030C)
ENDBIB              19
COMMON               3          3
EN         ANG-ERR-D  ERR-DIG
MEV        ADEG       ARB-UNITS
  25.       0.598      0.0049
ENDCOMMON            3
ENDSUBENT           26
SUBENT        F0851002   20071101   20080305   20080214       F029
BIB                  4          4
REACTION   (56-BA-136(A,2N)58-CE-138,PAR,DA,,REL)
PART-DET   (G)
EN-SEC     (E,G)
STATUS     (CURVE)Fig.3
ENDBIB               4
NOCOMMON             0          0
DATA                 4         35
E          ANG        DATA       DATA-ERR
KEV        ADEG       ARB-UNITS  ARB-UNITS
      403.1     51.119     1.1154 1.7241E-02
      403.1     71.279     1.2656 1.7241E-02
      403.1      81.01     1.3149 1.7241E-02
      403.1     91.221      1.347 2.2988E-02
      403.1     159.54     1.0022 1.7241E-02
      417.5     50.903     1.3299 4.1666E-02
      417.5     71.279     1.5737 3.4091E-02
      417.5     80.769     1.6425 4.1666E-02
      417.5     90.965     1.7341 3.7878E-02
      417.5     159.62     1.0077 3.4091E-02
      430.1     50.895    0.93587 2.2856E-02
      430.1     71.103    0.91404 2.2856E-02
      430.1     80.852    0.89549 2.2857E-02
      430.1     90.837    0.88838 2.2857E-02
      430.1     159.75    0.99094 2.2856E-02
      467.2      50.75    0.92611 1.7241E-02
      467.2     70.736       0.82 1.7241E-02
      467.2     80.491    0.76867 2.4137E-02
      467.2      90.71    0.77596 2.4137E-02
      467.2     159.36    0.99246 2.0689E-02
      788.8     50.486    0.92179 2.2429E-02
      788.8     70.225    0.86283 2.2429E-02
      788.8     80.211    0.84457 2.2429E-02
      788.8     90.195    0.84126 2.2429E-02
      788.8     159.34    0.99752 2.2429E-02
      815.3     50.843    0.86771 2.3076E-02
      815.3     70.824    0.78403 2.3076E-02
      815.3      80.81    0.76527 2.6922E-02
      815.3     90.796    0.75035 1.9230E-02
      815.3     159.45    0.99585 2.3076E-02
 1.0377E+03     50.622    0.93543 1.8518E-02
 1.0377E+03     70.598    0.88071 1.8518E-02
 1.0377E+03     80.345    0.87001 1.8518E-02
 1.0377E+03     90.567    0.86303 2.2222E-02
 1.0377E+03     159.24    0.99182 2.2222E-02
ENDDATA             37
ENDSUBENT           46
ENDENTRY             2
