ENTRY            D5135   20171122   20171122   20171122       D112
SUBENT        D5135001   20171122   20171122   20171122       D112
BIB                 11         17
TITLE      A search for excited states of 3He by the reaction
            7Li(d,6He)3He
AUTHOR     (Yu.N.Pavlenko, V.N.Dobrikov, N.L.Doroshko, V.O.Kyva,
            I.N.Kolomiets)
INSTITUTE  (4UKRIJD)
REFERENCE  (J,YFE,7,(1/17),24,2006)
FACILITY   (ISOCY,4UKRIJD) Isochronous cyclotron U-240
SAMPLE     1.5 mg/cm2 thick target produced by rolling of natural
            Li film
DETECTOR   (TELES,SI,SI) Two dE-E telescopes of Si detectors
            consisting of deltaE (50 um thick) and E (550 um
            thick) detectors
CORRECTION Corrected for background.
ERR-ANALYS (DATA-ERR) No information.
METHOD     (EXTB,EDE)
HISTORY    (20170926C) UKRNDC
           (20171122U) On. Finalized.
ENDBIB              17
COMMON               1          3
EN
MEV
 37.
ENDCOMMON            3
ENDSUBENT           24
SUBENT        D5135002   20171122   20171122   20171122       D112
BIB                  3         12
REACTION   (3-LI-7(D,X)2-HE-6,,DA/DE)
ADD-RES    (STRUC) 3He resonance parameters obtained from the
            analysis of 6He inclusive spectra:
            From the 22.5 deg spectrum:
              E= 8.9+/-0.4 MeV, Gamma=3.9+/-1.3 MeV;
              E=13.2+/-0.3 MeV, Gamma=5.4+/-2.0 MeV;
              E=15.8+/-0.2 MeV, Gamma=1.3+/-0.7 MeV.
            From the 25.0 deg spectrum:
              E= 8.9+/-0.4 MeV, Gamma=1.5+/-0.9 MeV;
              E=13.0+/-0.2 MeV, Gamma=7.2+/-1.2 MeV;
              E=15.8 MeV,       Gamma=1.3 MeV.
STATUS     (CURVE) Fig.3a+3b
ENDBIB              12
NOCOMMON             0          0
DATA                 4        111
ANG        E          DATA       DATA-ERR
ADEG       MEV        MB/SR/MEV  MB/SR/MEV
 22.5       12.5458     7.6901    0.9159
 22.5       12.7712     8.6233    1.0023
 22.5       12.9729     9.4355    1.0196
 22.5       13.1864     9.2281    1.0196
 22.5       13.4000     8.0876    0.9850
 22.5       13.6136     6.9470    0.8986
 22.5       13.8271     7.1889    0.8641
 22.5       14.0288     9.6256    0.9850
 22.5       14.2542     8.3986    0.9850
 22.5       14.4559     8.0357    0.9332
 22.5       14.6576     9.3145    1.0369
 22.5       14.8712    10.0230    1.0541
 22.5       15.0847     7.2753    0.8813
 22.5       15.2864     9.5910    1.0196
 22.5       15.4881     7.7592    0.9332
 22.5       15.7017     7.6728    0.9159
 22.5       15.9153     8.2431    0.9677
 22.5       16.1288     6.0829    0.8468
 22.5       16.3305     7.8111    0.9159
 22.5       16.5441     8.0530    0.9159
 22.5       16.7576     5.6509    0.7604
 22.5       16.9593     5.7719    0.7776
 22.5       17.1729     6.1521    0.8813
 22.5       17.3864     5.3399    0.7431
 22.5       17.6000     6.6359    0.8986
 22.5       17.8136     5.7373    0.8295
 22.5       18.0153     4.4931    0.6394
 22.5       18.2407     4.8387    0.7258
 22.5       18.4542     4.6313    0.6912
 22.5       18.6678     3.8537    0.6740
 22.5       18.8814     2.3848    0.4839
 22.5       19.0831     3.7846    0.6567
 22.5       19.3085     2.8687    0.5530
 22.5       19.4983     2.7650    0.5530
 22.5       19.7119     1.6244    0.4320
 22.5       19.9254     0.6221    0.2765
 22.5       20.3525     1.0887    0.3456
 22.5       20.5424     0.7604    0.2419
 22.5       20.7797     0.6740    0.2247
 22.5       20.9814     0.5530    0.2074
 22.5       21.1712     0.8986    0.3111
 22.5       21.3847     0.8295    0.2592
 22.5       21.6102     0.1382    0.1555
 22.5       21.8000     0.4839    0.2419
 22.5       22.0136     0.6394    0.2419
 22.5       22.2271     0.3975    0.2074
 22.5       22.4407     1.3306    0.3802
 22.5       22.6898     0.1037    0.1901
 22.5       22.8797     1.0196    0.3456
 22.5       23.0695     1.7108    0.4839
 22.5       23.2831     4.9078    0.7776
 22.5       23.5085     7.5864    0.8813
 22.5       23.7220     8.9689    0.9850
 22.5       23.9475     5.8929    0.8295
 22.5       24.1373     3.7500    0.6394
 22.5       24.3508     0.8813    0.2938
 22.5       24.5644     0.5530    0.2419
 25.0       12.6763     7.0527    0.9289
 25.0       12.8898     6.1410    0.8601
 25.0       13.1034     8.6009    0.9977
 25.0       13.3051     6.8979    0.9461
 25.0       13.5186     8.1881    0.9461
 25.0       13.7322     8.7729    0.9461
 25.0       13.9339     6.9495    0.8773
 25.0       14.1475     7.5344    0.9289
 25.0       14.3610     6.3991    0.8601
 25.0       14.5746     7.5860    0.9633
 25.0       14.7881     7.7408    0.9633
 25.0       15.0017     7.0527    0.8945
 25.0       15.2034     6.5023    0.8601
 25.0       15.4051     5.3326    0.7913
 25.0       15.6068     6.4335    0.8773
 25.0       15.8085     5.8314    0.8085
 25.0       16.0339     4.8165    0.7741
 25.0       16.2356     6.3647    0.8257
 25.0       16.4492     4.5069    0.7569
 25.0       16.6627     4.6445    0.7741
 25.0       16.8763     3.7156    0.6365
 25.0       17.0898     5.8658    0.8601
 25.0       17.3034     3.5264    0.6537
 25.0       17.5169     4.5929    0.7397
 25.0       17.7305     3.6984    0.6365
 25.0       17.9559     3.9392    0.6881
 25.0       18.1458     0.8429    0.3096
 25.0       18.3593     2.4943    0.5333
 25.0       18.5847     1.1009    0.3612
 25.0       18.7864     1.4966    0.4128
 25.0       19.0000     1.0321    0.3440
 25.0       19.2017     0.5849    0.2580
 25.0       19.4153     1.3073    0.3784
 25.0       19.6288     0.7397    0.2924
 25.0       19.8305     0.7569    0.2924
 25.0       20.0559     0.5677    0.2580
 25.0       20.2695     0.1204    0.1204
 25.0       20.4831     0.1376    0.1032
 25.0       20.6847     0.7397    0.2752
 25.0       20.8983     0.5505    0.2580
 25.0       21.0881     0.2064    0.1548
 25.0       21.3017     0.1376    0.1032
 25.0       21.5034     0.1548    0.0860
 25.0       21.7288     0.7225    0.2752
 25.0       21.9424     0.8601    0.3440
 25.0       22.1322     1.2557    0.4472
 25.0       22.3458     2.3222    0.5505
 25.0       22.5831     3.4748    0.6537
 25.0       22.7610     6.3131    0.8773
 25.0       22.9746     6.6915    0.9117
 25.0       23.1881     6.3647    0.8601
 25.0       23.4136     2.4255    0.4989
 25.0       23.6153     0.8085    0.3096
 25.0       23.8288     0.1548    0.0688
ENDDATA            113
ENDSUBENT          130
ENDENTRY             2
