ENTRY            D0410   20060802   20061122   20061122       D049
SUBENT        D0410001   20060802   20061122   20061122       D049
BIB                  7         10
TITLE      Study of the 10,11B + 10,11B Reactions up to E/A
           approximately 5  MeV
AUTHOR     (M.M.Coimbra, R.M.Anjos, N.Added, N.Carlin Filho,
           L.Fante, Jr.,  M.C.S.Figueira, G.Ramirez, E.M.Szanto,
           A.Szanto de Toledo)
INSTITUTE  (3BZLUSP)
REFERENCE  (J,NP/A,535,161,1991)
FACILITY   (VDGT) Pelletron
ERR-ANALYS (DATA-ERR) Relative error
HISTORY    (20060802C) SD
ENDBIB              10
NOCOMMON             0          0
ENDSUBENT           13
SUBENT        D0410002   20060802   20061122   20061122       D049
BIB                  5         11
REACTION   (5-B-10(5-B-10,EL)5-B-10,,DA,,MOT)
SAMPLE     Self-supporting 10B targets, 30 mu-g/cm2 to 50 mu-g/cm2
           thick, were used. A very thin gold layer was deposited
           on both sides of  the target for normalization purposes
           and to minimize the target oxidation.
DETECTOR   (COIN,PS,PS) The scattered particles and the recoiling
           nuclei were detected in coincidence by two position-
           sensitive solid-state detectors.
ERR-ANALYS (ANG-ERR-D)  Digitizing error
           (ERR-DIG)    Digitizing error
STATUS     (CURVE) points from fig. 2
ENDBIB              11
COMMON               2          3
ANG-ERR-D  ERR-DIG
ADEG       PER-CENT
0.4          0.2
ENDCOMMON            3
DATA                 4        214
EN         ANG-CM     DATA-CM    DATA-ERR
MEV        ADEG       NO-DIM     NO-DIM
 24.000     18.856    0.64949    0.31325E-01
 24.000     20.425    0.53572    0.22677E-01
 24.000     22.613    0.49065    0.23664E-01
 24.000     24.511    0.52132    0.22010E-01
 24.000     26.222    0.55398    0.23511E-01
 24.000     28.357    0.46246    0.22304E-01
 24.000     30.255    0.49137    0.23698E-01
 24.000     32.422    0.43365    0.20915E-01
 24.000     34.488    0.31992    0.11644E-01
 24.000     36.419    0.25897    0.10991E-01
 24.000     38.555    0.21619    0.10427E-01
 24.000     40.422    0.21728    0.13019E-01
 24.000     42.109    0.22112    0.11985E-01
 24.000     44.200    0.23783    0.15654E-01
 24.000     46.312    0.26548    0.11238E-01
 24.000     47.975    0.25873    0.10924E-01
 24.000     50.180    0.24440    0.11787E-01
 24.000     52.129    0.20404    0.86373E-02
 24.000     54.233    0.16112    0.77708E-02
 24.000     56.175    0.13287    0.64081E-02
 24.000     57.979    0.11948    0.57625E-02
 24.000     60.177    0.11147    0.60178E-02
 24.000     62.096    0.12292    0.59417E-02
 24.000     64.415    0.14237    0.85153E-02
 24.000     66.247    0.13451    0.88244E-02
 24.000     68.127    0.13857    0.74959E-02
 24.000     70.545    0.98490E-010.64612E-02
 24.000     72.198    0.94223E-010.61914E-02
 24.000     73.898    0.70394E-010.66191E-02
 24.000     75.840    0.58049E-010.48105E-02
 24.000     77.665    0.54173E-010.47953E-02
 24.000     79.825    0.47222E-010.41800E-02
 24.000     81.702    0.48348E-010.40066E-02
 24.000     83.872    0.42933E-010.40370E-02
 24.000     85.925    0.43145E-010.38236E-02
 24.000     87.888    0.36922E-010.36778E-02
 24.000     89.838    0.43041E-010.35667E-02
 24.000     91.701    0.42991E-010.45208E-02
 24.000     93.806    0.47398E-010.57680E-02
 24.000     95.765    0.40313E-010.44696E-02
 24.000     97.581    0.51562E-010.42784E-02
 24.000     99.469    0.53780E-010.44567E-02
 24.000     101.50    0.72713E-010.56046E-02
 24.000     103.52    0.95911E-010.68543E-02
 32.000     26.869    0.42781    0.15596E-01
 32.000     28.517    0.40676    0.14734E-01
 32.000     30.719    0.28048    0.11855E-01
 32.000     32.736    0.19342    0.81977E-02
 32.000     34.858    0.15952    0.67424E-02
 32.000     36.517    0.21166    0.76917E-02
 32.000     38.728    0.27730    0.13354E-01
 32.000     40.613    0.28741    0.20542E-01
 32.000     42.688    0.29970    0.14398E-01
 32.000     44.609    0.24117    0.11614E-01
 32.000     46.805    0.16426    0.11740E-01
 32.000     48.573    0.13975    0.10786E-01
 32.000     50.484    0.11039    0.12187E-01
 32.000     52.310    0.14201    0.11767E-01
 32.000     54.503    0.18040    0.14888E-01
 32.000     56.384    0.18583    0.19511E-01
 32.000     58.419    0.18106    0.18027E-01
 32.000     60.713    0.14567    0.16893E-01
 32.000     62.171    0.13766    0.14499E-01
 32.000     64.589    0.99715E-010.16838E-01
 32.000     66.610    0.12985    0.17178E-01
 32.000     68.531    0.10449    0.17118E-01
 32.000     70.632    0.15586    0.23914E-01
 32.000     72.616    0.19082    0.22150E-01
 32.000     74.559    0.15934    0.21096E-01
 32.000     76.397    0.15242    0.20180E-01
 32.000     78.728    0.13043    0.22705E-01
 32.000     80.346    0.11804    0.18727E-01
 32.000     82.345    0.14813    0.18001E-01
 32.000     84.343    0.13570    0.15751E-01
 32.000     86.181    0.12980    0.17878E-01
 32.000     88.256    0.13535    0.24249E-01
 32.000     90.276    0.12866    0.17021E-01
 32.000     91.990    0.13670    0.16611E-01
 36.000     26.056    0.64304    0.23460E-01
 36.000     28.073    0.44278    0.21407E-01
 36.000     29.874    0.29019    0.17463E-01
 36.000     31.708    0.20109    0.13268E-01
 36.000     33.893    0.25254    0.19511E-01
 36.000     36.114    0.33744    0.16236E-01
 36.000     37.900    0.40591    0.26737E-01
 36.000     39.570    0.40047    0.19362E-01
 36.000     41.649    0.30638    0.18403E-01
 36.000     43.812    0.19705    0.12979E-01
 36.000     46.055    0.14524    0.95665E-02
 36.000     47.816    0.16729    0.90712E-02
 36.000     49.464    0.21814    0.15627E-01
 36.000     51.502    0.29331    0.22726E-01
 36.000     53.519    0.27704    0.16640E-01
 36.000     55.681    0.24440    0.13252E-01
 36.000     57.293    0.21838    0.13117E-01
 36.000     59.693    0.21008    0.12044E-01
 36.000     61.655    0.18082    0.10861E-01
 36.000     63.419    0.20957    0.16214E-01
 36.000     65.542    0.23689    0.15604E-01
 36.000     67.376    0.22517    0.10886E-01
 36.000     69.462    0.23924    0.19873E-01
 36.000     71.490    0.23020    0.13853E-01
 36.000     73.787    0.25539    0.16793E-01
 36.000     75.625    0.24426    0.21646E-01
 36.000     77.291    0.23950    0.17184E-01
 36.000     79.381    0.18667    0.19695E-01
 36.000     81.292    0.20207    0.17930E-01
 36.000     83.327    0.19687    0.14103E-01
 36.000     84.901    0.16534    0.16543E-01
 36.000     87.210    0.18687    0.17653E-01
 36.000     89.041    0.17652    0.14663E-01
 36.000     91.123    0.18640    0.17608E-01
 36.000     92.913    0.16448    0.15520E-01
 36.000     95.076    0.19903    0.17660E-01
 36.000     96.950    0.20252    0.14508E-01
 36.000     98.766    0.18662    0.14439E-01
 36.000     100.97    0.24326    0.18821E-01
 36.000     102.84    0.24599    0.19005E-01
 36.000     104.79    0.28507    0.20454E-01
 36.000     107.12    0.24229    0.24163E-01
 36.000     108.85    0.26395    0.20422E-01
 36.000     110.67    0.24474    0.14700E-01
 36.000     112.85    0.22270    0.15929E-01
 36.000     114.77    0.24561    0.19002E-01
 36.000     116.87    0.19502    0.12823E-01
 36.000     118.85    0.23748    0.17012E-01
 40.000     28.030    0.30498    0.12770E-01
 40.000     29.996    0.19142    0.79934E-02
 40.000     32.208    0.13328    0.55655E-02
 40.000     33.887    0.18407    0.77074E-02
 40.000     35.806    0.27861    0.11634E-01
 40.000     37.927    0.31442    0.11319E-01
 40.000     39.729    0.28307    0.11852E-01
 40.000     41.763    0.19954    0.83325E-02
 40.000     43.721    0.12371    0.59022E-02
 40.000     45.879    0.10800    0.76476E-02
 40.000     47.727    0.14466    0.68855E-02
 40.000     49.631    0.21367    0.89465E-02
 40.000     51.537    0.22966    0.96159E-02
 40.000     53.533    0.20927    0.87625E-02
 40.000     55.347    0.19189    0.10247E-01
 40.000     57.373    0.13362    0.10204E-01
 40.000     59.644    0.14184    0.10847E-01
 40.000     61.687    0.13994    0.75035E-02
 40.000     63.449    0.16187    0.11462E-01
 40.000     65.505    0.16365    0.12515E-01
 40.000     67.537    0.15853    0.11208E-01
 40.000     69.464    0.17675    0.12535E-01
 40.000     71.446    0.15718    0.10217E-01
 40.000     73.448    0.19924    0.14086E-01
 40.000     75.498    0.19898    0.15195E-01
 40.000     77.512    0.18695    0.17412E-01
 40.000     79.620    0.14982    0.11441E-01
 40.000     81.558    0.17014    0.12974E-01
 40.000     83.456    0.18065    0.13775E-01
 40.000     85.517    0.18376    0.19139E-01
 40.000     87.172    0.17696    0.19433E-01
 40.000     89.268    0.19134    0.15688E-01
 40.000     91.271    0.17650    0.17414E-01
 40.000     92.970    0.18290    0.20067E-01
 40.000     95.012    0.18045    0.14795E-01
 40.000     97.019    0.16748    0.12807E-01
 40.000     99.001    0.14893    0.79525E-02
 48.000     20.855    0.63523    0.30429E-01
 48.000     22.835    0.55777    0.26718E-01
 48.000     24.743    0.30344    0.14504E-01
 48.000     26.622    0.15621    0.83925E-02
 48.000     28.835    0.14944    0.71587E-02
 48.000     30.720    0.21975    0.10527E-01
 48.000     32.412    0.31924    0.20836E-01
 48.000     34.266    0.31307    0.13162E-01
 48.000     36.323    0.22448    0.13337E-01
 48.000     38.500    0.14235    0.76187E-02
 48.000     40.650    0.12120    0.50956E-02
 48.000     42.666    0.16055    0.95389E-02
 48.000     44.545    0.23321    0.19174E-01
 48.000     46.617    0.24315    0.13039E-01
 48.000     48.637    0.22981    0.13701E-01
 48.000     50.218    0.19216    0.11437E-01
 48.000     52.169    0.15966    0.10421E-01
 48.000     54.438    0.16955    0.91091E-02
 48.000     56.337    0.18119    0.97345E-02
 48.000     58.573    0.18095    0.97218E-02
 48.000     60.277    0.18987    0.14538E-01
 48.000     62.636    0.16873    0.10060E-01
 48.000     64.226    0.20266    0.13227E-01
 48.000     66.729    0.16628    0.98960E-02
 48.000     68.599    0.16815    0.13858E-01
 48.000     70.119    0.17754    0.12603E-01
 48.000     72.365    0.18060    0.13846E-01
 48.000     74.371    0.16656    0.14662E-01
 48.000     76.254    0.17261    0.15161E-01
 48.000     78.144    0.18110    0.15924E-01
 48.000     80.024    0.18654    0.12194E-01
 48.000     82.037    0.17416    0.12345E-01
 48.000     84.021    0.15386    0.11796E-01
 48.000     85.973    0.18138    0.13906E-01
 48.000     87.823    0.17679    0.13572E-01
 48.000     89.663    0.16918    0.13926E-01
 48.000     91.553    0.17749    0.13626E-01
 48.000     93.799    0.18055    0.15894E-01
 48.000     95.769    0.15564    0.11933E-01
 48.000     97.512    0.17579    0.13496E-01
 48.000     99.598    0.18784    0.14402E-01
 48.000     101.82    0.18305    0.16096E-01
 48.000     103.66    0.17624    0.15497E-01
 48.000     105.50    0.16659    0.12772E-01
 48.000     107.60    0.18355    0.15128E-01
 48.000     109.26    0.17675    0.12564E-01
 48.000     111.52    0.18426    0.14127E-01
 48.000     113.58    0.18978    0.14550E-01
 48.000     115.31    0.20660    0.17006E-01
 48.000     117.51    0.19524    0.17206E-01
 48.000     119.43    0.21515    0.15294E-01
ENDDATA            216
ENDSUBENT          236
SUBENT        D0410003   20060802   20061122   20061122       D049
BIB                  5         11
REACTION   (5-B-11(5-B-11,EL)5-B-11,,DA,,MOT)
SAMPLE     Self-supporting 11B targets, 30 mu-g/cm2 to 50 mu-g/cm2
           thick, were used. A very thin gold layer was deposited
           on both sides of  the target for normalization purposes
           and to minimize the target oxidation.
DETECTOR   (COIN,PS,PS) The scattered particles and the recoiling
           nuclei were detected in coincidence by two position-
           sensitive solid-state detectors.
ERR-ANALYS (ANG-ERR-D)  Digitizing error
           (ERR-DIG)    Digitizing error
STATUS     (CURVE) points from fig. 3
ENDBIB              11
COMMON               2          3
ANG-ERR-D  ERR-DIG
ADEG       PER-CENT
0.4          0.2
ENDCOMMON            3
DATA                 4        180
EN         ANG-CM     DATA-CM    DATA-ERR
MEV        ADEG       NO-DIM     NO-DIM
 24.000     23.040    0.63856    0.33986E-01
 24.000     24.853    0.55686    0.26746E-01
 24.000     26.838    0.52138    0.25050E-01
 24.000     28.831    0.53281    0.22818E-01
 24.000     30.984    0.51269    0.24624E-01
 24.000     32.794    0.43266    0.18522E-01
 24.000     34.608    0.38145    0.20302E-01
 24.000     36.759    0.36107    0.19223E-01
 24.000     38.571    0.30975    0.16490E-01
 24.000     40.550    0.27308    0.13112E-01
 24.000     42.536    0.25850    0.17741E-01
 24.000     44.698    0.27148    0.14445E-01
 24.000     46.694    0.28668    0.15258E-01
 24.000     48.184    0.27891    0.16289E-01
 24.000     50.328    0.24189    0.14123E-01
 24.000     52.298    0.19116    0.13125E-01
 24.000     54.433    0.14942    0.71792E-02
 24.000     56.238    0.12004    0.63889E-02
 24.000     58.225    0.11551    0.61477E-02
 24.000     60.052    0.11740    0.44077E-02
 24.000     62.043    0.11802    0.62795E-02
 24.000     63.876    0.12879    0.88408E-02
 24.000     66.356    0.11669    0.49953E-02
 24.000     68.166    0.99012E-010.67952E-02
 24.000     70.151    0.92199E-010.58567E-02
 24.000     72.299    0.83995E-010.44691E-02
 24.000     73.785    0.77368E-010.80174E-02
 24.000     75.764    0.67838E-010.56839E-02
 24.000     77.933    0.76914E-010.68276E-02
 24.000     79.772    0.90118E-010.79997E-02
 24.000     80.936    0.93113E-010.91900E-02
 24.000     81.942    0.10387    0.86995E-02
 24.000     82.944    0.11212    0.82627E-02
 24.000     83.954    0.13138    0.10348E-01
 24.000     85.620    0.14104    0.96814E-02
 24.000     87.613    0.14413    0.10624E-01
 24.000     89.597    0.13421    0.15862E-01
 24.000     91.594    0.14328    0.91039E-02
 24.000     93.750    0.14092    0.10387E-01
 24.000     95.402    0.13051    0.89592E-02
 24.000     97.538    0.10371    0.65877E-02
 24.000     99.350    0.89453E-010.74963E-02
 24.000     101.33    0.75902E-010.44317E-02
 24.000     102.97    0.67656E-010.53287E-02
 24.000     105.31    0.76288E-010.67732E-02
 32.000     19.995    0.48771    0.18171E-01
 32.000     21.996    0.54054    0.22955E-01
 32.000     23.997    0.59910    0.28545E-01
 32.000     26.147    0.55819    0.23713E-01
 32.000     27.953    0.45908    0.21874E-01
 32.000     29.565    0.28019    0.13350E-01
 32.000     31.700    0.22305    0.14060E-01
 32.000     33.669    0.17854    0.12159E-01
 32.000     35.684    0.22909    0.14430E-01
 32.000     38.019    0.25947    0.15029E-01
 32.000     39.834    0.23275    0.13481E-01
 32.000     41.645    0.20210    0.15792E-01
 32.000     43.616    0.16442    0.10364E-01
 32.000     45.892    0.10034    0.52961E-02
 32.000     47.695    0.80317E-010.58735E-02
 32.000     49.541    0.99760E-010.62867E-02
 32.000     51.718    0.12324    0.90120E-02
 32.000     53.554    0.13659    0.10671E-01
 32.000     55.375    0.13219    0.13588E-01
 32.000     57.350    0.11171    0.92861E-02
 32.000     59.315    0.84693E-010.91182E-02
 32.000     61.444    0.63863E-010.49914E-02
 32.000     63.596    0.60478E-010.31921E-02
 32.000     65.602    0.70383E-010.47922E-02
 32.000     67.593    0.70752E-010.51739E-02
 32.000     69.752    0.71896E-010.45296E-02
 32.000     71.086    0.77139E-010.90476E-02
 32.000     73.397    0.68445E-010.73689E-02
 32.000     75.220    0.66963E-010.88082E-02
 32.000     77.036    0.60723E-010.53471E-02
 32.000     78.204    0.65506E-010.60925E-02
 32.000     79.213    0.75012E-010.87981E-02
 32.000     80.375    0.75411E-010.81189E-02
 32.000     80.383    0.82248E-010.51844E-02
 32.000     82.381    0.88239E-010.86397E-02
 32.000     83.228    0.10553    0.11869E-01
 32.000     84.368    0.84934E-010.66369E-02
 32.000     85.219    0.10608    0.12442E-01
 32.000     86.197    0.88204E-010.82049E-02
 32.000     87.206    0.10155    0.11424E-01
 32.000     89.035    0.10546    0.15351E-01
 40.000     19.785    0.60134    0.28850E-01
 40.000     21.944    0.61111    0.32489E-01
 40.000     23.908    0.48042    0.23049E-01
 40.000     25.831    0.26480    0.12709E-01
 40.000     27.739    0.12663    0.86784E-02
 40.000     29.402    0.13082    0.14179E-01
 40.000     31.625    0.23465    0.17277E-01
 40.000     33.637    0.28247    0.17923E-01
 40.000     35.781    0.25179    0.22330E-01
 40.000     38.052    0.15995    0.10962E-01
 40.000     39.795    0.77331E-010.49053E-02
 40.000     41.595    0.62138E-010.42586E-02
 40.000     43.794    0.90068E-010.61746E-02
 40.000     45.994    0.13127    0.96626E-02
 40.000     47.671    0.15377    0.97570E-02
 40.000     49.796    0.11635    0.79762E-02
 40.000     51.729    0.69226E-010.40374E-02
 40.000     53.689    0.52667E-010.36105E-02
 40.000     55.677    0.51235E-010.29891E-02
 40.000     57.560    0.85602E-010.63044E-02
 40.000     59.565    0.97039E-010.66506E-02
 40.000     61.745    0.11874    0.75346E-02
 40.000     63.715    0.99132E-010.72971E-02
 40.000     65.859    0.87883E-010.55763E-02
 40.000     67.328    0.71007E-010.62987E-02
 40.000     69.470    0.62265E-010.52113E-02
 40.000     71.315    0.74549E-010.69816E-02
 40.000     72.807    0.73323E-010.53987E-02
 40.000     73.647    0.80451E-010.42770E-02
 40.000     75.324    0.94758E-010.74551E-02
 40.000     77.319    0.97358E-010.76579E-02
 40.000     78.470    0.89197E-010.70176E-02
 40.000     79.631    0.89184E-010.79095E-02
 40.000     81.455    0.88196E-010.78201E-02
 40.000     82.285    0.88187E-010.86959E-02
 40.000     83.122    0.94152E-010.78800E-02
 40.000     84.454    0.98342E-010.72389E-02
 40.000     85.276    0.92092E-010.77076E-02
 40.000     87.096    0.88134E-010.82539E-02
 40.000     89.276    0.10785    0.90243E-02
 40.000     91.244    0.87610E-010.73325E-02
 40.000     93.073    0.91004E-010.66988E-02
 40.000     95.066    0.92486E-010.68096E-02
 40.000     97.217    0.88025E-010.73640E-02
 40.000     99.042    0.88005E-010.73656E-02
 40.000     100.88    0.97077E-010.71495E-02
 40.000     103.03    0.93410E-010.68776E-02
 40.000     105.00    0.79705E-010.62708E-02
 40.000     107.15    0.73015E-010.61110E-02
 40.000     108.79    0.61965E-010.54932E-02
 40.000     111.13    0.68723E-010.50587E-02
 40.000     112.99    0.92788E-010.63610E-02
 40.000     115.00    0.11109    0.76199E-02
 40.000     117.15    0.10985    0.80905E-02
 48.000     20.291    0.37359    0.18010E-01
 48.000     21.922    0.28076    0.19339E-01
 48.000     23.883    0.20641    0.16313E-01
 48.000     25.798    0.95687E-010.70787E-02
 48.000     28.004    0.15766    0.10859E-01
 48.000     29.694    0.21554    0.17035E-01
 48.000     32.047    0.29144    0.17079E-01
 48.000     33.841    0.21309    0.14682E-01
 48.000     36.086    0.96107E-010.66199E-02
 48.000     37.854    0.54289E-010.37394E-02
 48.000     39.917    0.11265    0.77572E-02
 48.000     41.778    0.16180    0.77974E-02
 48.000     43.795    0.20939    0.12267E-01
 48.000     46.068    0.12633    0.93454E-02
 48.000     48.162    0.67176E-010.49707E-02
 48.000     49.628    0.51043E-010.16530E-02
 48.000     51.831    0.80929E-010.51596E-02
 48.000     53.701    0.12762    0.10731E-01
 48.000     55.528    0.13042    0.89837E-02
 48.000     57.501    0.10819    0.10180E-01
 48.000     59.644    0.94297E-010.55259E-02
 48.000     61.587    0.57837E-010.39839E-02
 48.000     63.916    0.61760E-010.39386E-02
 48.000     65.906    0.61073E-010.45160E-02
 48.000     67.914    0.72786E-010.42654E-02
 48.000     69.892    0.63438E-010.53356E-02
 48.000     71.556    0.67006E-010.95463E-02
 48.000     73.546    0.66260E-010.88148E-02
 48.000     75.871    0.67344E-010.10225E-01
 48.000     77.716    0.82495E-010.93879E-02
 48.000     79.551    0.91045E-010.11239E-01
 48.000     80.565    0.10972    0.10868E-01
 48.000     81.541    0.90527E-010.11177E-01
 48.000     82.546    0.99919E-010.68842E-02
 48.000     83.705    0.97202E-010.12929E-01
 48.000     84.554    0.11843    0.99589E-02
 48.000     85.369    0.10155    0.10547E-01
 48.000     86.358    0.95063E-010.65480E-02
 48.000     87.221    0.13433    0.15934E-01
 48.000     89.365    0.11772    0.16218E-01
ENDDATA            182
ENDSUBENT          202
SUBENT        D0410004   20060802   20061122   20061122       D049
BIB                  5         11
REACTION   (5-B-11(5-B-10,EL)5-B-11,,DA,,RTH)
SAMPLE     Self-supporting 11B targets, 30 mu-g/cm2 to 50 mu-g/cm2
           thick, were used. A very thin gold layer was deposited
           on both sides of  the target for normalization purposes
           and to minimize the target oxidation.
DETECTOR   (COIN,PS,PS) The scattered particles and the recoiling
           nuclei were detected in coincidence by two position-
           sensitive solid-state detectors.
ERR-ANALYS (ANG-ERR-D)  Digitizing error
           (ERR-DIG)    Digitizing error
STATUS     (CURVE) points from fig. 4
ENDBIB              11
COMMON               2          3
ANG-ERR-D  ERR-DIG
ADEG       PER-CENT
0.4          0.2
ENDCOMMON            3
DATA                 4        223
EN         ANG-CM     DATA-CM    DATA-ERR
MEV        ADEG       NO-DIM     NO-DIM
 24.000     25.448    0.46706    0.36666E-01
 24.000     27.466    0.48490    0.25713E-01
 24.000     29.512    0.54932    0.31989E-01
 24.000     31.148    0.49226    0.33723E-01
 24.000     33.467    0.46322    0.29373E-01
 24.000     35.248    0.38878    0.16600E-01
 24.000     37.360    0.32273    0.13779E-01
 24.000     39.125    0.25789    0.12368E-01
 24.000     40.938    0.23878    0.11438E-01
 24.000     42.769    0.23347    0.12406E-01
 24.000     44.666    0.27934    0.16267E-01
 24.000     46.702    0.30626    0.16240E-01
 24.000     48.360    0.29462    0.21676E-01
 24.000     50.175    0.27428    0.10259E-01
 24.000     52.113    0.22278    0.10672E-01
 24.000     54.027    0.16856    0.80653E-02
 24.000     55.932    0.12411    0.52920E-02
 24.000     57.899    0.11060    0.52981E-02
 24.000     59.746    0.11358    0.72024E-02
 24.000     61.452    0.12591    0.73323E-02
 24.000     63.171    0.14580    0.69846E-02
 24.000     65.198    0.15556    0.82574E-02
 24.000     67.217    0.16238    0.94561E-02
 24.000     69.030    0.15035    0.11053E-01
 24.000     71.144    0.12549    0.10487E-01
 24.000     72.759    0.10590    0.88617E-02
 24.000     74.242    0.99141E-010.82799E-02
 24.000     76.522    0.82742E-010.81498E-02
 24.000     78.492    0.74139E-010.61958E-02
 24.000     80.308    0.69397E-010.51020E-02
 24.000     82.190    0.79052E-010.58118E-02
 24.000     84.259    0.96136E-010.75575E-02
 24.000     86.240    0.89006E-010.65436E-02
 24.000     87.589    0.92427E-010.72659E-02
 24.000     89.039    0.78434E-010.57664E-02
 24.000     91.364    0.75024E-010.58857E-02
 24.000     92.978    0.62972E-010.61992E-02
 24.000     94.477    0.61917E-010.39161E-02
 24.000     96.310    0.60873E-010.77595E-02
 24.000     98.132    0.57920E-010.71096E-02
 24.000     100.19    0.67798E-010.79934E-02
 24.000     102.46    0.92450E-010.13526E-01
 24.000     104.47    0.91883E-010.14294E-01
 24.000     106.78    0.84596E-010.13549E-01
 24.000     108.81    0.91744E-010.13848E-01
 24.000     110.59    0.76582E-010.82881E-02
 24.000     112.81    0.88183E-010.86811E-02
 24.000     114.78    0.78584E-010.81215E-02
 24.000     116.95    0.79386E-010.74194E-02
 24.000     119.05    0.10420    0.13772E-01
 24.000     121.31    0.81457E-010.11537E-01
 24.000     123.57    0.10809    0.13262E-01
 24.000     125.76    0.11406    0.13448E-01
 24.000     127.53    0.92145E-010.12188E-01
 24.000     129.67    0.83921E-010.12278E-01
 24.000     131.59    0.64898E-010.11860E-01
 24.000     133.63    0.70382E-010.79585E-02
 36.000     28.809    0.22748    0.13193E-01
 36.000     30.506    0.14957    0.94385E-02
 36.000     32.566    0.17594    0.14658E-01
 36.000     34.707    0.26290    0.20589E-01
 36.000     36.799    0.33920    0.31623E-01
 36.000     38.808    0.34266    0.30252E-01
 36.000     40.244    0.28007    0.19112E-01
 36.000     42.054    0.15728    0.75106E-02
 36.000     44.209    0.90744E-010.47917E-02
 36.000     46.001    0.79159E-010.69886E-02
 36.000     47.826    0.12491    0.12259E-01
 36.000     49.762    0.16651    0.13873E-01
 36.000     51.594    0.16371    0.16067E-01
 36.000     53.559    0.14515    0.11368E-01
 36.000     55.484    0.11419    0.10645E-01
 36.000     57.630    0.64465E-010.60029E-02
 36.000     59.107    0.59384E-010.69804E-02
 36.000     60.899    0.84967E-010.75013E-02
 36.000     62.629    0.10105    0.89215E-02
 36.000     64.544    0.12689    0.99309E-02
 36.000     66.770    0.14845    0.11626E-01
 36.000     68.573    0.13379    0.12473E-01
 36.000     70.341    0.10875    0.11199E-01
 36.000     71.438    0.87455E-010.98639E-02
 36.000     74.288    0.89774E-010.10553E-01
 36.000     76.493    0.98927E-010.11634E-01
 36.000     78.005    0.10105    0.12367E-01
 36.000     80.052    0.11443    0.12346E-01
 36.000     81.848    0.10091    0.11376E-01
 36.000     83.991    0.92430E-010.11747E-01
 36.000     85.971    0.85594E-010.92355E-02
 36.000     87.139    0.85095E-010.17003E-01
 36.000     88.558    0.10863    0.11727E-01
 36.000     90.315    0.85461E-010.13256E-01
 36.000     92.218    0.10331    0.13618E-01
 36.000     94.216    0.10101    0.14264E-01
 36.000     96.462    0.12545    0.23411E-01
 36.000     98.309    0.12883    0.22323E-01
 36.000     99.890    0.98638E-010.16648E-01
 36.000     101.97    0.12385    0.20909E-01
 36.000     104.43    0.17430    0.34820E-01
 36.000     105.42    0.16865    0.35882E-01
 36.000     106.75    0.16405    0.23937E-01
 36.000     108.44    0.17500    0.37242E-01
 36.000     110.35    0.21502    0.42965E-01
 36.000     112.51    0.20909    0.39951E-01
 36.000     114.48    0.18741    0.39883E-01
 36.000     123.57    0.22844    0.38554E-01
 36.000     125.64    0.16834    0.35103E-01
 36.000     127.62    0.25709    0.41055E-01
 36.000     129.68    0.29753    0.50201E-01
 36.000     131.76    0.22777    0.43530E-01
 36.000     133.57    0.20752    0.45920E-01
 36.000     135.54    0.30843    0.54843E-01
 36.000     137.90    0.32716    0.63945E-01
 36.000     139.68    0.27774    0.51856E-01
 40.000     28.496    0.14977    0.86795E-02
 40.000     30.470    0.13720    0.72469E-02
 40.000     32.303    0.21641    0.11456E-01
 40.000     34.604    0.31118    0.13235E-01
 40.000     36.638    0.33734    0.17838E-01
 40.000     38.393    0.26688    0.14112E-01
 40.000     40.187    0.14671    0.85192E-02
 40.000     41.968    0.77639E-010.48955E-02
 40.000     43.825    0.81917E-010.34792E-02
 40.000     45.854    0.14017    0.88550E-02
 40.000     47.759    0.16941    0.89582E-02
 40.000     49.616    0.17875    0.75917E-02
 40.000     51.378    0.14374    0.83465E-02
 40.000     53.145    0.11748    0.74215E-02
 40.000     55.277    0.65278E-010.47809E-02
 40.000     56.988    0.73122E-010.64467E-02
 40.000     59.072    0.91297E-010.66865E-02
 40.000     60.882    0.13492    0.98967E-02
 40.000     62.747    0.14548    0.99286E-02
 40.000     64.556    0.13400    0.84495E-02
 40.000     66.525    0.12077    0.11851E-01
 40.000     68.505    0.11245    0.10476E-01
 40.000     70.779    0.93402E-010.91603E-02
 40.000     72.272    0.90356E-010.84176E-02
 40.000     74.331    0.10512    0.11848E-01
 40.000     75.791    0.92723E-010.13521E-01
 40.000     77.825    0.10052    0.14185E-01
 40.000     79.732    0.76137E-010.85772E-02
 40.000     81.774    0.84353E-010.98990E-02
 40.000     83.583    0.77698E-010.10239E-01
 40.000     85.135    0.88951E-010.14190E-01
 40.000     87.365    0.10461    0.17170E-01
 40.000     88.790    0.13425    0.15769E-01
 40.000     90.636    0.13710    0.16104E-01
 40.000     92.680    0.15272    0.16467E-01
 40.000     94.151    0.13917    0.15678E-01
 40.000     96.197    0.15587    0.20533E-01
 40.000     98.231    0.16898    0.23845E-01
 40.000     100.08    0.10757    0.19108E-01
 40.000     102.42    0.17336    0.25261E-01
 40.000     104.26    0.17609    0.28100E-01
 40.000     106.40    0.15869    0.26757E-01
 40.000     108.43    0.17204    0.27462E-01
 40.000     110.32    0.19693    0.30524E-01
 40.000     112.50    0.20000    0.29164E-01
 40.000     114.37    0.13963    0.28494E-01
 40.000     120.84    0.19298    0.29912E-01
 40.000     122.64    0.17489    0.33392E-01
 40.000     124.71    0.20681    0.34870E-01
 40.000     126.59    0.14439    0.31935E-01
 40.000     128.52    0.11737    0.26454E-01
 40.000     130.76    0.22631    0.40214E-01
 40.000     132.69    0.29354    0.41422E-01
 40.000     134.86    0.29490    0.41629E-01
 40.000     136.57    0.20478    0.40008E-01
 40.000     138.75    0.20573    0.39281E-01
 48.000     30.449    0.28501    0.20880E-01
 48.000     32.501    0.32980    0.22497E-01
 48.000     34.462    0.28618    0.22388E-01
 48.000     36.281    0.15822    0.13953E-01
 48.000     38.255    0.84211E-010.70126E-02
 48.000     40.175    0.10922    0.90842E-02
 48.000     41.971    0.16227    0.13496E-01
 48.000     43.724    0.21048    0.15420E-01
 48.000     45.707    0.19600    0.16312E-01
 48.000     47.610    0.14140    0.12477E-01
 48.000     51.260    0.76453E-010.55932E-02
 48.000     53.307    0.87038E-010.50472E-02
 48.000     55.518    0.98546E-010.11098E-01
 48.000     57.048    0.10686    0.72838E-02
 48.000     59.022    0.96841E-010.70848E-02
 48.000     60.796    0.78735E-010.84862E-02
 48.000     62.569    0.64015E-010.65918E-02
 48.000     64.540    0.57388E-010.50609E-02
 48.000     66.457    0.73629E-010.82916E-02
 48.000     68.491    0.80696E-010.90915E-02
 48.000     70.503    0.82413E-010.11625E-01
 48.000     72.558    0.56617E-010.11055E-01
 48.000     74.369    0.88329E-010.13690E-01
 48.000     76.050    0.91204E-010.14960E-01
 48.000     77.873    0.86800E-010.14634E-01
 48.000     79.870    0.84419E-010.11908E-01
 48.000     81.570    0.92532E-010.13053E-01
 48.000     83.606    0.10197    0.14858E-01
 48.000     85.601    0.98632E-010.13918E-01
 48.000     87.171    0.71552E-010.15211E-01
 48.000     88.572    0.87437E-010.13944E-01
 48.000     90.386    0.80986E-010.12179E-01
 48.000     92.212    0.77918E-010.14184E-01
 48.000     93.943    0.94177E-010.13723E-01
 48.000     96.064    0.79960E-010.19999E-01
 48.000     98.129    0.96635E-010.24165E-01
 48.000     100.10    0.87103E-010.25238E-01
 48.000     102.00    0.10527    0.19163E-01
 48.000     104.04    0.11727    0.27399E-01
 48.000     106.06    0.12240    0.29610E-01
 48.000     108.24    0.12774    0.29845E-01
 48.000     110.11    0.14001    0.20408E-01
 48.000     112.20    0.10722    0.19040E-01
 48.000     114.26    0.12611    0.17199E-01
 48.000     116.44    0.12949    0.23577E-01
 48.000     118.53    0.16977    0.23154E-01
 48.000     120.60    0.20629    0.29090E-01
 48.000     122.24    0.19212    0.33256E-01
 48.000     124.37    0.16490    0.31475E-01
 48.000     126.54    0.16568    0.30159E-01
 48.000     128.23    0.17294    0.30719E-01
 48.000     130.20    0.26543    0.44751E-01
 48.000     132.19    0.25536    0.45347E-01
 48.000     134.18    0.23909    0.44593E-01
ENDDATA            225
ENDSUBENT          245
SUBENT        D0410005   20060802   20061122   20061122       D049
BIB                  2          2
REACTION   (5-B-10(5-B-10,EL)5-B-10,,SIG,,,DERIV)
STATUS     (TABLE) data from tbl.1 from ref.
ENDBIB               2
NOCOMMON             0          0
DATA                 2          5
EN         DATA
MEV        MB
  24.        1111.
  32.        1134.
  36.        1154.0
  40.        1143.6
  48.        1255.9
ENDDATA              7
ENDSUBENT           14
SUBENT        D0410006   20060802   20061122   20061122       D049
BIB                  2          2
REACTION   (5-B-11(5-B-10,EL)5-B-11,,SIG,,,DERIV)
STATUS     (TABLE) data from tbl.1 from ref.
ENDBIB               2
NOCOMMON             0          0
DATA                 2          4
EN         DATA
MEV        MB
  24.        1105.17
  36.        1245.23
  40.        1217.86
  48.        1287.05
ENDDATA              6
ENDSUBENT           13
SUBENT        D0410007   20060802   20061122   20061122       D049
BIB                  2          2
REACTION   (5-B-11(5-B-11,EL)5-B-11,,SIG,,,DERIV)
STATUS     (TABLE) data from tbl.1 from ref.
ENDBIB               2
NOCOMMON             0          0
DATA                 2          4
EN         DATA
MEV        MB
  24.        1032.9
  32.        1233.4
  40.        1270.3
  48.        1306.0
ENDDATA              6
ENDSUBENT           13
SUBENT        D0410008   20060802   20061122   20061122       D049
BIB                  8         27
REACTION   (5-B-10(5-B-10,FUS),,DA,ER)
           Absolute cross sections were obtained with reference
           to the elastic-scattering data.
SAMPLE     Self-supporting 10B targets, 30 mu-g/cm2 to 50 mu-g/cm2
           thick, were used. A very thin gold layer was deposited
           on both sides of  the target for normalization purposes
           and to minimize the target oxidation.
DETECTOR   (TELES,SOLST,SIBAR) time-of-flight device based on a
           microchannel plate (MCP) and an ionization chamber (IC)
           and a position-sensitive ionization chamber(PSIC) were
           used. PSIC was followed by a large area soli-state
           detector. A MCP was used to detect the initial passage
           of the reaction products which were then stopped in a
           300  mm2 silicon surface barrier detector located at
           the end of a 20 cm long ionization  chamber.
           (SIBAR) Two surface-barrier detectors, located at
            -+15 degr., out of the reaction plane were used as
           monitors for the relative normalizations and to follow
           the carbon build up.
METHOD     (TOF,EDE)
MISC-COL   (MISC) Ang. distrib.in mb/rad as presented on fig.10(a)
           (MISC-ERR) the same as DATA-ERR
ERR-ANALYS (ANG-ERR-D)  Digitizing error
           (ERR-DIG)    Digitizing error
COMMENT    Compiler calculated ang. distributin using formula
           from p. 174. (All data were divided on 2*Pi*sin(theta)
STATUS     (CURVE) points from fig. 10 (a)
ENDBIB              27
COMMON               2          3
ANG-ERR-D  ERR-DIG
ADEG       MB/SR
 0.4         5.
ENDCOMMON            3
DATA                 6        111
EN         ANG        DATA       DATA-ERR   MISC       MISC-ERR
MEV        ADEG       MB/SR      MB/SR      ARB-UNITS  ARB-UNITS
     24.     5.0368    2331.243   83.0401     1286.0     45.808
     24.     5.9917    2227.125   82.76818    1460.7     54.285
     24.     6.9344    2128.426   71.7042     1614.6     54.394
     24.     8.0564    1989.037   47.3928     1751.5     41.733
     24.     8.9399    1848.527   60.10556    1804.9     58.687
     24.     9.9229    1723.869   54.1017     1866.5     58.578
     24.     10.983    1586.218   45.43962    1898.8     54.394
     24.     11.927    1458.199   35.44499    1893.5     46.026
     24.     12.98     1355.724   32.61305    1913.3     46.026
     24.     13.911    1249.262   30.46926    1887.1     46.026
     24.     15.199    1106.551   35.62658    1822.8     58.687
     24.     16.31     1008.536   28.39327    1779.6     50.101
     24.     17.243    943.6794   29.20488    1757.6     54.394
     24.     18.153    865.2583   25.6492     1693.8     50.210
     24.     19.224    765.5088   22.24746    1583.7     46.026
     24.     20.218    692.1706   21.19617    1503.0     46.026
     24.     21.226    636.2708   18.39356    1447.4     41.842
     24.     22.233    583.663    15.83958    1387.6     37.657
     24.     23.217    520.8869   16.89229    1290.2     41.841
     24.     24.176    447.2593   13.00818    1150.9     33.473
     24.     25.277    406.6504   17.15535    1091.0     46.026
     24.     26.276    366.2353   18.05112    1018.7     50.210
     24.     27.24     308.6958   13.09381    887.79     37.657
     24.     28.533    277.1732   12.58337    831.87     37.766
     24.     29.561    261.2252   10.79838    809.75     33.473
     24.     30.48     239.2884   13.12834    762.63     41.841
     24.     31.494    217.9532   11.47239    715.41     37.657
     24.     32.492    190.5297   7.438032    643.08     25.105
     24.     33.479    158.6349   8.450351    549.83     29.289
     24.     34.587    140.8864   8.211787    502.50     29.289
     24.     35.504    123.6493   9.173123    451.20     33.473
     24.     36.527    112.4962   8.95055     420.71     33.473
     24.     37.446    97.79413   7.695268    373.60     29.398
     24.     38.467    86.715     7.521457    338.93     29.398
     24.     39.493    78.23295   5.235467    312.62     20.921
     24.     40.611    68.95834   5.115334    282.03     20.921
     24.     41.632    59.25919   7.9929      247.36     33.364
     36.     4.9687    2999.462   89.77807    1632.3     48.857
     36.     5.9508    2810.838   69.5218     1831.0     45.287
     36.     7.0176    2624.26    63.77296    2014.5     48.955
     36.     7.97      2488.537   69.16022    2168.0     60.252
     36.     8.8979    2350.057   58.22305    2283.9     56.584
     36.     9.9006    2193.312   66.31957    2369.5     71.647
     36.     10.981    2029.251   50.42421    2428.7     60.350
     36.     11.929    1872.208   43.56859    2431.5     56.584
     36.     12.985    1737.486   45.34464    2453.0     64.018
     36.     13.984    1572.703   39.68278    2387.9     60.252
     36.     14.968    1417.408   37.18831    2300.2     60.350
     36.     15.987    1226.225   37.05026    2122.0     64.116
     36.     17.178    1110.37    30.43938    2060.5     56.486
     36.     18.261    1005.833   28.74011    1980.3     56.584
     36.     19.27     930.8526   25.37733    1930.2     52.622
     36.     20.252    845.4531   27.70298    1838.8     60.252
     36.     21.139    771.1653   16.61885    1747.4     37.657
     36.     22.142    745.7452   23.26647    1689.8     52.720
     36.     23.234    596.1731   16.75151    1477.7     41.521
     36.     24.288    523.2106   14.57073    1352.2     37.657
     36.     25.27     470.0618   15.44366    1260.8     41.423
     36.     26.167    427.4905   12.26712    1184.5     33.990
     36.     27.517    371.2134   15.56678    1077.6     45.189
     36.     28.496    327.7014   13.81827    982.35     41.423
     36.     29.562    282.5048   13.36264    875.74     41.423
     36.     30.459    250.9945   11.8229     799.44     37.657
     36.     31.468    228.4807   10.33302    749.41     33.892
     36.     32.45     195.1601   12.31589    657.95     41.521
     36.     33.461    176.5635   8.724258    611.68     30.224
     36.     34.557    154.3942   9.509558    550.26     33.892
     36.     35.473    138.2484   6.196483    504.09     22.594
     36.     36.581    123.2439   7.039607    461.49     26.360
     36.     37.493    106.6296   7.877395    407.79     30.126
     36.     38.489    86.67311   6.74093     338.93     26.360
     36.     39.598    73.99198   5.666068    296.33     22.692
     36.     40.611    62.0608    4.603825    253.82     18.829
     36.     41.637    55.13084   6.337831    230.15     26.458
     48.     4.8685    3597.564   102.1491    1918.4     54.471
     48.     6.0043    3222.1     106.7917    2117.7     70.188
     48.     7.1253    2952.913   86.63838    2301.4     67.523
     48.     8.2477    2869.606   83.55862    2586.5     75.315
     48.     9.2149    2691.372   67.17596    2708.0     67.591
     48.     10.31     2458.185   71.59353    2764.3     80.509
     48.     11.219    2228.872   63.78956    2724.7     77.980
     48.     12.283    1981.46    50.51579    2648.6     67.524
     48.     13.222    1837.073   54.26049    2640.1     77.979
     48.     14.225    1684.226   45.45934    2600.4     70.188
     48.     15.404    1524.897   37.38664    2545.0     62.397
     48.     16.368    1391.417   33.77308    2463.7     59.800
     48.     17.345    1278.844   26.34241    2395.5     49.344
     48.     18.311    1173.644   32.85626    2316.8     64.859
     48.     19.261    974.549    25.06018    2019.9     51.941
     48.     20.226    847.0007   26.33349    1839.9     57.203
     48.     21.282    769.9928   19.35944    1756.0     44.150
     48.     22.214    732.3601   19.70767    1739.7     46.815
     48.     23.25     659.2065   18.87508    1635.0     46.815
     48.     24.162    621.3482   18.15052    1598.0     46.680
     48.     25.234    534.1911   17.45183    1430.9     46.747
     48.     26.186    482.0586   11.23998    1336.6     31.165
     48.     27.4      421.5073   11.65267    1218.8     33.694
     48.     28.568    317.1467   13.82963    952.91     41.553
     48.     29.632    282.2326   10.03191    876.78     31.165
     48.     30.521    255.8392   11.41541    816.37     36.426
     48.     31.418    233.1883   10.30809    763.76     33.762
     48.     32.575    173.2865   8.444839    586.21     28.568
     48.     33.589    160.2099   7.451817    556.90     25.903
     48.     34.543    130.5909   5.812679    465.26     20.709
     48.     35.634    114.1062   5.675532    417.70     20.776
     48.     36.534    98.29999   4.860192    367.68     18.179
     48.     37.537    85.675     4.748722    327.98     18.179
     48.     38.566    80.22628   3.977998    314.25     15.582
     48.     39.577    70.53001   4.558196    282.34     18.247
     48.     40.576    58.09962   4.448065    237.45     18.179
     48.     41.512    54.3613    4.349288    226.38     18.112
ENDDATA            113
ENDSUBENT          149
SUBENT        D0410009   20060802   20061122   20061122       D049
BIB                  8         27
REACTION   (5-B-11(5-B-10,FUS),,DA,ER)
           Absolute cross sections were obtained with reference
           to the elastic-scattering data.
SAMPLE     Self-supporting 11B targets, 30 mu-g/cm2 to 50 mu-g/cm2
           thick, were used. A very thin gold layer was deposited
           on both sides of  the target for normalization purposes
           and to minimize the target oxidation.
DETECTOR   (TELES,SOLST,SIBAR) time-of-flight device based on a
           microchannel plate (MCP) and an ionization chamber (IC)
           and a position-sensitive ionization chamber(PSIC) were
           used. PSIC was followed by a large area soli-state
           detector. A MCP was used to detect the initial passage
           of the reaction products which were then stopped in a
           300  mm2 silicon surface barrier detector located at
           the end of a 20 cm long ionization  chamber.
           (SIBAR) Two surface-barrier detectors, located at
            -+15 degr., out of the reaction plane were used as
           monitors for the relative normalizations and to follow
           the carbon build up.
METHOD     (TOF,EDE)
ERR-ANALYS (ANG-ERR-D)  Digitizing error
           (ERR-DIG)    Digitizing error
MISC-COL   (MISC) Ang. distrib.in mb/rad as presented on fig.10(b)
           (MISC-ERR) the same as DATA-ERR
COMMENT    Compiler calculated ang. distributin using formula
           from p. 174. (All data were divided on 2*Pi*sin(theta)
STATUS     (CURVE) points from fig. 10 (b)
ENDBIB              27
COMMON               2          3
ANG-ERR-D  ERR-DIG
ADEG       MB/SR
 0.4         5.
ENDCOMMON            3
DATA                 6         39
EN         ANG        DATA       DATA-ERR   MISC       MISC-ERR
MEV        ADEG       MB/SR      MB/SR      ARB-UNITS  ARB-UNITS
     30.     5.0056    2536.533   82.70818    1390.6     45.343
     30.     5.9647    2466.599   78.70604    1610.5     51.389
     30.     6.9685    2329.658   59.39126    1775.9     45.274
     30.     7.7209    2250.      64.45783    1899.3     54.411
     30.     8.8243    2047.882   56.52191    1973.9     54.480
     30.     9.723     1967.698   42.66549    2088.0     45.274
     30.     10.904    1821.96    43.23653    2165.5     51.389
     30.     11.886    1670.324   49.10596    2161.6     63.549
     30.     12.91     1493.951   10.76654    2097.2     15.114
     30.     13.865    1358.129   38.14502    2044.9     57.434
     30.     16.078    1114.875   29.53212    1940.0     51.389
     30.     17.032    1024.079   27.92241    1884.7     51.388
     30.     18.054    933.2665   27.94253    1817.3     54.411
     30.     19.071    847.8935   22.08654    1740.7     45.343
     30.     20.088    771.1603   21.01113    1664.2     45.343
     30.     23.114    564.4739   15.932      1392.3     39.297
     30.     23.995    525.6532   22.47812    1343.1     57.434
     30.     25.067    462.1247   20.46541    1230.2     54.480
     30.     26.143    405.7491   18.56195    1123.3     51.388
     30.     27.105    378.3751   20.0865     1083.2     57.503
     30.     30.288    258.8112   12.42256    820.15     39.366
     30.     31.401    238.2074   12.92726    779.82     42.320
     30.     32.184    206.5926   10.81817    691.40     36.205
     30.     33.279    179.198    10.52123    617.82     36.274
     30.     34.235    160.8439   8.551692    568.56     30.229
     30.     37.357    121.4106   7.928621    462.88     30.228
     30.     38.476    110.4078   7.732283    431.62     30.228
     30.     39.36     97.48922   6.06889     388.47     24.183
     48.     12.915    1781.919   36.64242    2502.4     51.458
     48.     13.911    1581.918   34.01891    2389.6     51.388
     48.     14.942    1442.718   27.98834    2337.3     45.343
     48.     16.155    1261.914   31.1237     2206.1     54.411
     48.     16.781    1235.798   19.99614    2241.8     36.274
     48.     17.048    1182.424   36.17737    2178.1     66.641
     48.     24.983    508.0443   27.36438    1348.2     72.617
     48.     26.188    433.4469   21.80289    1201.9     60.457
     48.     27.119    386.6089   19.02145    1107.3     54.480
     48.     28.466    315.82     27.27588    945.82     81.686
     48.     29.317    274.7363   26.57391    845.23     81.755
ENDDATA             41
ENDSUBENT           77
SUBENT        D0410010   20060802   20061122   20061122       D049
BIB                  8         27
REACTION   (5-B-11(5-B-11,FUS),,DA,ER)
           Absolute cross sections were obtained with reference
           to the elastic-scattering data.
SAMPLE     Self-supporting 11B targets, 30 mu-g/cm2 to 50 mu-g/cm2
           thick, were used. A very thin gold layer was deposited
           on both sides of  the target for normalization purposes
           and to minimize the target oxidation.
DETECTOR   (TELES,SOLST,SIBAR) time-of-flight device based on a
           microchannel plate (MCP) and an ionization chamber (IC)
           and a position-sensitive ionization chamber(PSIC) were
           used. PSIC was followed by a large area soli-state
           detector. A MCP was used to detect the initial passage
           of the reaction products which were then stopped in a
           300  mm2 silicon surface barrier detector located at
           the end of a 20 cm long ionization  chamber.
           (SIBAR) Two surface-barrier detectors, located at
            -+15 degr., out of the reaction plane were used as
           monitors for the relative normalizations and to follow
           the carbon build up.
METHOD     (TOF,EDE)
ERR-ANALYS (ANG-ERR-D)  Digitizing error
           (ERR-DIG)    Digitizing error
MISC-COL   (MISC) Ang. distrib.in mb/rad as presented on fig.10(c)
           (MISC-ERR) the same as DATA-ERR
COMMENT    Compiler calculated ang. distributin using formula
           from p. 174. (All data were divided on 2*Pi*sin(theta)
STATUS     (CURVE) points from fig. 10 (c)
ENDBIB              27
COMMON               2          3
ANG-ERR-D  ERR-DIG
ADEG       MB/SR
 0.4         5.
ENDCOMMON            3
DATA                 6        133
EN         ANG        DATA       DATA-ERR   MISC       MISC-ERR
MEV        ADEG       MB/SR      MB/SR      ARB-UNITS  ARB-UNITS
     24.     5.0554    4019.731   149.4846    2225.6     82.765
     24.     6.0888    3777.437   113.1221    2517.5     75.391
     24.     7.082     3422.819   106.6476    2651.5     82.615
     24.     8.0657    3116.881   85.34613    2747.8     75.240
     24.     9.0359    2828.747   91.64902    2791.4     90.439
     24.     10.1      2566.015   88.77047    2827.4     97.813
     24.     11.028    2251.01    62.60145    2705.5     75.241
     24.     12.069    2018.038   68.84028    2651.2     90.439
     24.     13.113    1827.029   47.6098     2604.4     67.867
     24.     14.223    1583.536   48.73813    2444.6     75.240
     24.     15.439    1388.323   44.9827     2322.2     75.241
     24.     16.365    1238.642   38.33589    2192.8     67.867
     24.     17.492    1112.33    35.85593    2100.7     67.716
     24.     18.411    978.2151   26.6167     1941.2     52.819
     24.     19.444    887.7476   28.77817    1856.8     60.192
     24.     20.405    850.3366   30.91166    1862.8     67.717
     24.     21.431    761.5348   29.56191    1748.3     67.867
     24.     22.367    692.8078   15.73403    1656.5     37.620
     24.     27.515    399.3499   18.19639    1159.2     52.819
     24.     28.635    344.394    20.04028    1037.0     60.343
     24.     29.575    309.6398   16.98337    960.24     52.668
     24.     30.616    283.104    18.81079    905.91     60.193
     24.     31.638    235.5533   13.6972     776.35     45.144
     24.     39.538    40.45181   9.443172    161.80     37.771
     24.     40.486    28.22688   7.377475    115.15     30.096
     24.     41.443    25.52005   9.046116    106.13     37.620
     24.     42.396    19.36785   8.915714    82.051     37.771
     24.     43.352    16.93003   10.46628    73.024     45.144
     32.     4.9496    4589.283   83.48293    2487.9     45.257
     32.     6.1057    4168.338   92.88195    2785.7     62.073
     32.     7.0452    3906.318   102.5136    3010.4     79.002
     32.     8.0327    3523.791   102.8333    3093.9     90.288
     32.     9.1794    3074.121   67.55922    3081.3     67.717
     32.     10.107    2711.632   66.53154    2989.9     73.359
     32.     11.149    2427.472   69.6717     2949.2     84.646
     32.     12.18     2172.666   59.59482    2880.2     79.002
     32.     13.208    1950.366   58.96094    2800.0     84.646
     32.     14.215    1722.46    51.20325    2657.6     79.002
     32.     16.508    1316.312   22.12487    2350.1     39.501
     32.     17.429    1188.171   38.98048    2236.1     73.360
     32.     18.541    1062.038   39.54199    2121.9     79.003
     32.     19.389    995.1115   35.2237     2075.7     73.473
     32.     20.416    910.4421   28.37221    1995.5     62.186
     32.     24.39     597.5829   26.09901    1550.5     67.717
     32.     25.404    530.7772   20.97696    1430.7     56.543
     32.     26.438    488.7999   20.21224    1367.4     56.543
     32.     27.354    430.2665   17.59133    1242.2     50.787
     32.     31.711    241.2291   11.96032    796.70     39.501
     32.     32.639    208.1204   16.68522    705.28     56.543
     32.     33.579    186.389    13.02303    647.73     45.257
     32.     34.61     162.1759   15.81213    578.77     56.430
     32.     35.642    139.2414   9.247436    509.81     33.858
     32.     39.494    68.52433   7.088914    273.83     28.328
     32.     40.436    54.4528    8.335884    221.91     33.971
     32.     41.481    47.22629   11.07754    192.46     45.144
     32.     42.434    41.13664   6.65522     174.40     28.215
     32.     43.387    36.22275   7.870813    156.34     33.971
     40.     2.9536    4651.036   116.4334    1505.8     37.696
     40.     4.0598    4034.75    92.85905    1794.8     41.307
     40.     4.93      4395.99    97.67776    2373.7     52.743
     40.     6.0037    3954.187   103.0423    2598.6     67.717
     40.     7.0658    3624.056   102.1192    2801.0     78.927
     40.     8.0245    3407.201   94.36071    2988.5     82.765
     40.     9.1059    3057.49    83.23297    3040.3     82.765
     40.     10.105    2828.908   71.66429    3118.6     79.003
     40.     11.133    2526.449   80.62364    3065.1     97.813
     40.     12.138    2245.317   68.398      2966.4     90.364
     40.     13.11     1967.353   50.20757    2803.8     71.554
     40.     14.107    1756.598   51.63683    2690.1     79.078
     40.     15.478    1525.119   42.58322    2557.3     71.403
     40.     16.477    1267.713   35.8873     2259.2     63.955
     40.     17.415    1178.993   28.04729    2217.1     52.743
     40.     18.575    1022.64    26.27697    2046.8     52.593
     40.     19.511    953.485    26.92669    2000.9     56.506
     40.     20.506    855.7321   25.67196    1883.5     56.505
     40.     21.511    774.7221   24.49344    1784.9     56.431
     40.     22.474    667.6126   17.26092    1603.5     41.458
     40.     23.576    600.264    20.95771    1508.5     52.668
     40.     24.489    544.2497   12.971      1417.5     33.783
     40.     25.396    488.0341   15.35687    1315.1     41.382
     40.     26.489    428.6932   14.76626    1201.4     41.382
     40.     27.492    378.9027   10.35035    1099.0     30.021
     40.     28.466    313.9234   18.868      940.14     56.506
     40.     29.475    274.6207   15.81895    849.02     48.906
     40.     31.607    213.8925   12.58958    704.34     41.457
     40.     32.637    193.1759   10.0138     654.60     33.933
     40.     33.659    169.3689   9.743982    589.82     33.933
     40.     34.581    145.1393   7.384412    517.59     26.334
     40.     35.6      121.7439   7.220318    445.29     26.409
     40.     39.611    55.88129   5.653282    223.86     22.647
     40.     40.566    52.75919   4.603397    215.58     18.810
     40.     41.512    45.26506   4.516901    188.50     18.810
     40.     42.457    38.05592   3.547893    161.41     15.048
     40.     43.41     34.59317   4.356279    149.37     18.810
     48.     2.98      8254.476   248.3629    2696.3     81.127
     48.     3.9789    6960.322   197.2542    3034.6     86.000
     48.     5.0563    6444.766   181.1772    3568.9     100.33
     48.     6.1279    6096.13    99.72707    4088.8     66.889
     48.     7.0521    5497.537   148.6518    4240.8     114.67
     48.     7.9839    5055.551   125.919     4412.0     109.89
     48.     9.0154    4664.541   135.8756    4592.6     133.78
     48.     9.8898    4281.466   119.6297    4620.4     129.10
     48.     10.973    3922.292   115.9296    4691.0     138.65
     48.     12.005    3544.759   91.39275    4632.6     119.44
     48.     13.038    3061.788   77.52531    4340.0     109.89
     48.     14.059    2786.439   87.70765    4253.0     133.87
     48.     15.075    2397.202   70.2259     3917.4     114.76
     48.     16.425    2080.447   61.85279    3696.2     109.89
     48.     17.468    1944.012   58.2647     3666.5     109.89
     48.     18.594    1679.194   50.07833    3364.2     100.33
     48.     19.495    1535.583   43.33769    3219.9     90.873
     48.     20.512    1310.06    45.57025    2884.3     100.33
     48.     21.438    1116.146   35.40951    2563.2     81.317
     48.     22.531    1004.603   31.7509     2418.7     76.444
     48.     23.547    925.0856   26.6853     2322.1     66.984
     48.     24.546    836.146    23.79559    2182.5     62.111
     48.     25.536    745.4173   24.6955     2019.0     66.889
     48.     26.433    666.8638   18.82428    1865.2     52.651
     48.     27.525    590.9377   19.77793    1715.9     57.429
     48.     28.516    519.1314   27.07738    1557.2     81.222
     48.     29.73     491.628    27.07738    1474.7     81.222
     48.     30.691    386.5301   20.85722    1239.6     66.889
     48.     31.674    321.8036   17.37776    1061.7     57.333
     48.     32.612    297.7279   15.54818    1008.2     52.651
     48.     33.644    272.8572   13.75231    949.84     47.873
     48.     34.641    225.5167   14.74167    805.45     52.651
     48.     35.65     188.348    13.04678    689.74     47.778
     48.     36.574    161.0028   14.03773    602.78     52.556
     48.     39.559    98.53066   9.551686    394.28     38.222
     48.     40.503    87.01838   8.195327    355.11     33.444
     48.     41.54     74.65455   10.32002    311.06     43.000
     48.     42.489    67.43907   5.628916    286.21     23.889
     48.     43.439    60.49931   6.65754     261.37     28.762
ENDDATA            135
ENDSUBENT          171
SUBENT        D0410011   20060802   20061122   20061122       D049
BIB                  8         25
REACTION   (5-B-10(5-B-10,FUS),,SIG)
           Absolute cross sections were obtained with reference
           to the elastic-scattering data.
SAMPLE     Self-supporting 10B targets, 30 mu-g/cm2 to 50 mu-g/cm2
           thick, were used. A very thin gold layer was deposited
           on both sides of  the target for normalization purposes
           and to minimize the target oxidation.
DETECTOR   (TELES,SOLST,SIBAR) time-of-flight device based on a
           microchannel plate (MCP) and an ionization chamber (IC)
           and a position-sensitive ionization chamber(PSIC) were
           used. PSIC was followed by a large area soli-state
           detector. A MCP was used to detect the initial passage
           of the reaction products which were then stopped in a
           300  mm2 silicon surface barrier detector located at
           the end of a 20 cm long ionization  chamber.
           (SIBAR) Two surface-barrier detectors, located at
            -+15 degr., out of the reaction plane were used as
           monitors for the relative normalizations and to follow
           the carbon build up.
METHOD     (TOF,EDE)
MISC-COL   (MISC) 1/Incident energy in 1/MeV units
COMMENT    Compiler calculated energy from 1/Ec.m. values
ERR-ANALYS (EN-ERR-DIG)  Digitizing error
           (ERR-DIG)    Digitizing error
STATUS     (CURVE) points from fig. 12 (a)
ENDBIB              25
COMMON               2          3
EN-ERR-DIG ERR-DIG
MEV        MB
 0.01         1.
ENDCOMMON            3
DATA                 4         20
EN-CM      DATA-CM    DATA-ERR   MISC
MEV        MB         MB         1/MEV
   7.97E+00   506.55    50.392      0.12546
   9.00E+00   667.75    65.263      0.11115
   1.00E+01   716.02    62.298      1.00E-01
   1.10E+01   793.81    56.366      9.06E-02
   1.20E+01   850.69    65.263      8.33E-02
   1.21E+01    79.681   32.621      8.25E-02
   1.25E+01   877.62    62.276      8.01E-02
   1.38E+01   976.07    65.22       7.22E-02
   1.50E+01   955.72    65.22       6.66E-02
   1.60E+01  1036.1     59.289      6.25E-02
   1.72E+01  1033.4     71.172      5.81E-02
   1.81E+01  1018.8     68.228      5.52E-02
   1.81E+01   206.24    38.53       5.52E-02
   1.89E+01  1036.8     68.207      5.28E-02
   1.99E+01  1034.      65.241      5.02E-02
   2.07E+01  1054.9     65.22       4.84E-02
   2.21E+01  1055.2     53.401      4.52E-02
   2.39E+01  1058.4     44.483      4.19E-02
   2.51E+01   993.27    56.366      3.98E-02
   2.51E+01   272.6     59.354      3.99E-02
ENDDATA             22
ENDSUBENT           56
SUBENT        D0410012   20060802   20061122   20061122       D049
BIB                  8         25
REACTION   (5-B-11(5-B-10,FUS),,SIG)
           Absolute cross sections were obtained with reference
           to the elastic-scattering data.
SAMPLE     Self-supporting 11B targets, 30 mu-g/cm2 to 50 mu-g/cm2
           thick, were used. A very thin gold layer was deposited
           on both sides of  the target for normalization purposes
           and to minimize the target oxidation.
DETECTOR   (TELES,SOLST,SIBAR) time-of-flight device based on a
           microchannel plate (MCP) and an ionization chamber (IC)
           and a position-sensitive ionization chamber(PSIC) were
           used. PSIC was followed by a large area soli-state
           detector. A MCP was used to detect the initial passage
           of the reaction products which were then stopped in a
           300  mm2 silicon surface barrier detector located at
           the end of a 20 cm long ionization  chamber.
           (SIBAR) Two surface-barrier detectors, located at
            -+15 degr., out of the reaction plane were used as
           monitors for the relative normalizations and to follow
           the carbon build up.
METHOD     (TOF,EDE)
MISC-COL   (MISC) 1/Incident energy in 1/MeV units
COMMENT    Compiler calculated energy from 1/Ec.m. values
ERR-ANALYS (EN-ERR-DIG)  Digitizing error
           (ERR-DIG)    Digitizing error
STATUS     (CURVE) points from fig. 12 (b)
ENDBIB              25
COMMON               2          3
EN-ERR-DIG ERR-DIG
MEV        MB
 0.01         1.
ENDCOMMON            3
DATA                 4         10
EN-CM      DATA-CM    DATA-ERR   MISC
MEV        MB         MB         1/MEV
   1.05E+01   816.4     76.831      9.56E-02
   1.30E+01   929.88    88.651      7.69E-02
   1.58E+01  1037.1     91.606      6.34E-02
   1.83E+01  1117.5     94.561      5.46E-02
   1.93E+01  1162.      88.651      5.17E-02
   2.08E+01  1114.9    100.47       4.82E-02
   2.18E+01  1097.3     82.741      4.58E-02
   2.35E+01  1062.1     79.786      4.26E-02
   2.51E+01  1047.5     73.876      3.99E-02
   2.66E+01  1041.7     76.85       3.75E-02
ENDDATA             12
ENDSUBENT           46
SUBENT        D0410013   20060802   20061122   20061122       D049
BIB                  8         25
REACTION   (5-B-11(5-B-11,FUS),,SIG)
           Absolute cross sections were obtained with reference
           to the elastic-scattering data.
SAMPLE     Self-supporting 11B targets, 30 mu-g/cm2 to 50 mu-g/cm2
           thick, were used. A very thin gold layer was deposited
           on both sides of  the target for normalization purposes
           and to minimize the target oxidation.
DETECTOR   (TELES,SOLST,SIBAR) time-of-flight device based on a
           microchannel plate (MCP) and an ionization chamber (IC)
           and a position-sensitive ionization chamber(PSIC) were
           used. PSIC was followed by a large area soli-state
           detector. A MCP was used to detect the initial passage
           of the reaction products which were then stopped in a
           300  mm2 silicon surface barrier detector located at
           the end of a 20 cm long ionization  chamber.
           (SIBAR) Two surface-barrier detectors, located at
            -+15 degr., out of the reaction plane were used as
           monitors for the relative normalizations and to follow
           the carbon build up.
METHOD     (TOF,EDE)
MISC-COL   (MISC) 1/Incident energy in 1/MeV units
COMMENT    Compiler calculated energy from 1/Ec.m. values
ERR-ANALYS (EN-ERR-DIG)  Digitizing error
           (ERR-DIG)    Digitizing error
STATUS     (CURVE) points from fig. 12 (c)
ENDBIB              25
COMMON               2          3
EN-ERR-DIG ERR-DIG
MEV        MB
 0.01         1.
ENDCOMMON            3
DATA                 4         17
EN-CM      DATA-CM    DATA-ERR   MISC
MEV        MB         MB         1/MEV
   7.52E+00   622.45    59.046      0.13305
   9.01E+00   747.5     61.983      0.11104
   9.98E+00   836.59    79.707      0.1002
   1.11E+01   863.63    73.79       9.05E-02
   1.20E+01  1023.4     88.548      8.32E-02
   1.29E+01  1029.6     94.451      7.73E-02
   1.39E+01  1159.7     73.79       7.18E-02
   1.50E+01  1162.9     88.548      6.65E-02
   1.59E+01  1192.6     76.741      6.27E-02
   1.81E+01  1231.4     91.499      5.54E-02
   1.90E+01  1240.3     85.596      5.27E-02
   2.00E+01  1246.4     97.402      5.01E-02
   2.08E+01  1237.6     85.582      4.80E-02
   2.20E+01  1252.5     91.499      4.54E-02
   2.28E+01  1243.7     94.465      4.39E-02
   2.37E+01  1235.      91.499      4.21E-02
   2.48E+01  1246.9     88.548      4.04E-02
ENDDATA             19
ENDSUBENT           53
ENDENTRY            13
