ENTRY            D0429   20110913   20111102   20111018       D079
SUBENT        D0429001   20110913   20111102   20111018       D079
BIB                 10         26
TITLE      Precise measurement of the differential cross section
           from the 16O(alpha,alpha)160 elastic reaction at 165
           and 170 degr. between 2.4 and  6.0 MeV
AUTHOR     (J.Demarche,G.Terwagne)
INSTITUTE  (2BLGNAM)
REFERENCE  (J,JAP,100,124909,2006)
FACILITY   (DYNAM,2BLGNAM) Accelerator Lineaire Tandetron pour
           l'Analyse l'Implantation des Solides (ALTAlS),
           the 2 MV Tandetron accelerator installed al
           LARN (Namur,Belgium)
SAMPLE     The measurements were realized with the thin Ta2O5
           standard in regions  were the cross section varied
           rapidly. The thicker Ta2O5 standard was  used to
           explore the regions where the cross section varied
           slowly.
DETECTOR   (SI) Backscattered alpha particles were detected in
           two passivated  implanted planar silicon (PIPS)
           detectors with an active area of 25 mm2  and a
ERR-ANALYS (ANG-ERR) Scale error
           (DATA-ERR) Uncertainty in cross section
           (EN-ERR) Scale error
STATUS     (TABLE) Data were taken from DB IBANDL
            (http://www-nds.iaea.org/ibandl/). (Originally from
           the author).
           (APRVD) Entry approved by Dr. J.Demarche
HISTORY    (20070109C)
ENDBIB              26
COMMON               1          3
ANG-ERR
ADEG
  0.5
ENDCOMMON            3
ENDSUBENT           33
SUBENT        D0429002   20110913   20111102   20111018       D079
BIB                  2          2
REACTION   (8-O-16(A,EL)8-O-16,,DA)
HISTORY    (20110909A) VS. EN: MEV -> KEV.
ENDBIB               2
NOCOMMON             0          0
DATA                 5        590
ANG        EN         EN-ERR     DATA       DATA-ERR
ADEG       KEV        KEV        MB/SR      MB/SR
  165.0     2433.000      0.500      40.280     3.060
  165.0     2453.200      0.500      47.640     3.510
  165.0     2468.600      0.500      35.660     1.980
  165.0     2473.400      0.500      56.740     3.950
  165.0     2478.500      0.500      81.560     4.910
  165.0     2483.400      0.500      99.350     5.380
  165.0     2488.300      0.500     112.610     5.850
  165.0     2493.200      0.500     103.420     5.340
  165.0     2503.000      0.500     104.060     5.300
  165.0     2545.600      0.500      59.620     1.860
  165.0     2595.300      0.500      53.770     1.340
  165.0     2645.050      0.500      55.650     1.290
  165.0     2645.100      0.500      51.340     1.290
  165.0     2694.580      0.500      53.210     0.830
  165.0     2694.800      0.500      49.460     1.250
  165.0     2744.220      0.500      50.500     0.800
  165.0     2744.600      0.500      50.080     1.200
  165.0     2793.830      0.500      50.660     0.770
  165.0     2794.300      0.500      49.480     1.550
  165.0     2843.440      0.500      51.140     0.750
  165.0     2844.100      0.500      48.130     1.490
  165.0     2893.900      0.500      49.380     1.440
  165.0     2895.000      0.500      51.500     1.440
  165.0     2952.200      0.500      64.070     4.160
  165.0     2992.300      0.500      92.360     6.740
  165.0     3002.300      0.500     126.910     6.030
  165.0     3007.200      0.500     152.530     6.670
  165.0     3014.800      0.500     164.710     9.630
  165.0     3015.800      0.500     189.490     10.620
  165.0     3016.800      0.500     189.700     10.610
  165.0     3017.800      0.500     226.690     11.600
  165.0     3018.700      0.500     246.760     12.250
  165.0     3019.700      0.500     240.310     11.930
  165.0     3020.600      0.500     293.090     13.230
  165.0     3021.600      0.500     306.120     13.570
  165.0     3022.600      0.500     304.270     13.230
  165.0     3023.500      0.500     380.020     15.520
  165.0     3024.500      0.500     406.170     15.840
  165.0     3025.400      0.500     508.150     18.480
  165.0     3026.300      0.500     527.620     18.460
  165.0     3027.300      0.500     623.770     20.750
  165.0     3028.300      0.500     697.740     22.390
  165.0     3029.200      0.500     751.600     23.350
  165.0     3030.200      0.500     733.680     23.010
  165.0     3031.100      0.500     759.850     23.650
  165.0     3032.000      0.500     719.350     22.650
  165.0     3032.800      0.500     614.940     20.030
  165.0     3033.000      0.500     620.110     20.680
  165.0     3033.900      0.500     528.920     17.720
  165.0     3034.000      0.500     548.550     19.020
  165.0     3034.900      0.500     433.540     16.070
  165.0     3034.900      0.500     440.750     16.380
  165.0     3035.900      0.500     351.710     14.090
  165.0     3036.900      0.500     263.120     11.760
  165.0     3036.900      0.500     278.170     12.460
  165.0     3037.900      0.500     224.350     10.810
  165.0     3038.800      0.500     169.310     9.160
  165.0     3038.800      0.500     175.520     9.490
  165.0     3039.800      0.500     117.590     7.530
  165.0     3041.000      0.500      92.690     6.200
  165.0     3042.800      0.500      70.090     3.260
  165.0     3043.500      0.500      57.670     2.610
  165.0     3046.500      0.500      47.150     2.280
  165.0     3047.400      0.500      38.350     1.950
  165.0     3048.100      0.500      23.390     1.620
  165.0     3049.900      0.500      17.200     1.300
  165.0     3051.800      0.500      16.530     1.300
  165.0     3053.600      0.500      12.950     0.970
  165.0     3055.400      0.500      10.020     0.970
  165.0     3060.300      0.500      11.600     0.970
  165.0     3061.900      0.500       6.760     0.640
  165.0     3065.100      0.500       8.670     0.960
  165.0     3066.700      0.500       7.700     0.960
  165.0     3071.600      0.500      10.240     0.960
  165.0     3076.400      0.500      29.340     1.590
  165.0     3081.200      0.500      35.290     1.910
  165.0     3086.000      0.500      19.970     1.270
  165.0     3094.500      0.500      23.010     1.450
  165.0     3143.800      0.500      24.740     0.610
  165.0     3193.430      0.500      28.120     0.590
  165.0     3193.700      0.500      27.220     0.560
  165.0     3243.040      0.500      30.130     0.580
  165.0     3243.300      0.500      29.270     0.550
  165.0     3292.680      0.500      32.010     0.560
  165.0     3293.000      0.500      33.400     0.600
  165.0     3304.300      0.500      39.810     1.940
  165.0     3314.100      0.500      44.520     1.920
  165.0     3323.900      0.500      45.900     2.190
  165.0     3333.700      0.500      58.120     2.440
  165.0     3344.300      0.500      72.590     4.320
  165.0     3345.200      0.500      59.610     4.050
  165.0     3346.100      0.500      53.910     3.390
  165.0     3347.000      0.500      56.580     3.520
  165.0     3349.000      0.500      82.080     4.900
  165.0     3350.900      0.500      79.570     4.350
  165.0     3352.800      0.500      88.070     5.410
  165.0     3354.800      0.500      97.080     5.350
  165.0     3356.700      0.500     122.690     7.150
  165.0     3358.600      0.500     146.360     8.820
  165.0     3360.600      0.500     178.790     10.680
  165.0     3362.500      0.500     185.260     11.910
  165.0     3364.400      0.500     159.720     9.930
  165.0     3364.500      0.500     156.510     4.530
  165.0     3365.400      0.500     128.450     4.000
  165.0     3366.200      0.500     108.410     3.460
  165.0     3366.400      0.500     124.380     4.160
  165.0     3368.100      0.500      74.760     2.660
  165.0     3368.900      0.500      61.170     2.390
  165.0     3369.200      0.500      91.730     3.580
  165.0     3369.700      0.500      54.490     2.130
  165.0     3370.700      0.500      43.040     1.860
  165.0     3371.400      0.500      39.300     1.860
  165.0     3372.000      0.500      41.680     1.720
  165.0     3373.900      0.500      31.020     1.550
  165.0     3375.500      0.500      24.640     0.990
  165.0     3377.200      0.500      25.400     1.070
  165.0     3382.200      0.500      23.220     1.320
  165.0     3392.100      0.500      23.870     1.310
  165.0     3440.800      0.500      21.920     1.530
  165.0     3441.640      0.500      21.400     0.510
  165.0     3491.280      0.500      24.020     0.500
  165.0     3543.770      0.500      24.510     0.480
  165.0     3593.410      0.500      25.010     0.470
  165.0     3643.040      0.500      25.240     0.450
  165.0     3692.290      0.500      24.570     0.440
  165.0     3742.350      0.500      24.780     0.430
  165.0     3842.840      0.500      25.750     0.410
  165.0     3843.500      0.500      30.240     1.840
  165.0     3845.400      0.500      28.170     1.840
  165.0     3849.400      0.500      33.000     2.040
  165.0     3851.300      0.500      31.540     1.830
  165.0     3856.300      0.500      32.270     2.030
  165.0     3860.700      0.500      40.900     2.230
  165.0     3865.700      0.500      59.380     2.630
  165.0     3870.600      0.500      89.250     3.420
  165.0     3872.500      0.500      58.370     2.620
  165.0     3873.500      0.500      35.200     2.010
  165.0     3875.600      0.500      29.140     1.810
  165.0     3893.300      0.500      21.510     1.590
  165.0     3941.540      0.500      21.950     0.390
  165.0     4042.940      0.500      23.640     0.370
  165.0     4142.530      0.500      24.800     0.350
  165.0     4242.220      0.500      25.660     0.340
  165.0     4341.710      0.500      27.380     0.320
  165.0     4441.330      0.500      31.670     0.310
  165.0     4542.020      0.500      39.790     0.290
  165.0     4641.730      0.500      52.250     0.280
  165.0     4741.350      0.500      67.000     0.270
  165.0     4840.940      0.500      83.460     0.260
  165.0     4901.400      0.500     110.810     5.790
  165.0     4911.400      0.500     120.620     6.010
  165.0     4921.400      0.500     117.260     5.860
  165.0     4931.300      0.500     124.990     6.080
  165.0     4940.580      0.500     105.850     0.250
  165.0     4948.200      0.500     155.690     6.910
  165.0     4950.200      0.500     153.100     6.660
  165.0     4952.200      0.500     182.760     7.510
  165.0     4954.200      0.500     223.690     8.490
  165.0     4956.100      0.500     266.150     9.340
  165.0     4958.100      0.500     186.380     7.490
  165.0     4960.000      0.500     117.410     5.640
  165.0     4962.000      0.500      81.890     4.540
  165.0     4963.900      0.500      78.880     4.530
  165.0     4977.900      0.500     100.240     5.120
  165.0     4991.400      0.500     111.820     5.810
  165.0     4996.400      0.500      99.620     5.320
  165.0     5001.300      0.500      99.430     5.320
  165.0     5011.300      0.500     112.970     5.650
  165.0     5021.200      0.500     117.800     5.750
  165.0     5031.200      0.500     113.870     5.720
  165.0     5041.100      0.500     104.400     5.340
  165.0     5044.690      0.500     102.470     0.240
  165.0     5051.100      0.500     109.070     5.560
  165.0     5061.000      0.500     144.000     6.360
  165.0     5071.000      0.500     146.720     6.570
  165.0     5081.000      0.500     144.270     6.430
  165.0     5090.800      0.500     162.110     6.870
  165.0     5100.800      0.500     167.740     7.080
  165.0     5112.100      0.500     187.560     10.160
  165.0     5120.800      0.500     230.550     8.520
  165.0     5131.000      0.500     322.840     13.760
  165.0     5140.700      0.500     308.370     10.280
  165.0     5141.900      0.500     311.770     13.360
  165.0     5143.000      0.500     301.480     13.240
  165.0     5143.900      0.500     263.390     11.870
  165.0     5145.000      0.500     249.020     11.750
  165.0     5146.900      0.500     204.400     10.480
  165.0     5149.000      0.500     163.370     9.110
  165.0     5150.900      0.500     165.070     9.330
  165.0     5159.000      0.500     109.210     7.140
  165.0     5170.700      0.500     125.530     7.790
  165.0     5170.800      0.500      94.490     4.970
  165.0     5180.800      0.500     113.460     5.620
  165.0     5190.800      0.500      88.380     4.820
  165.0     5210.700      0.500     102.830     5.340
  165.0     5224.400      0.500      84.590     4.420
  165.0     5230.700      0.500      93.220     4.960
  165.0     5250.500      0.500      95.470     5.040
  165.0     5270.500      0.500     103.870     5.320
  165.0     5290.400      0.500      98.240     5.070
  165.0     5316.400      0.500      95.150     5.020
  165.0     5326.500      0.500     100.960     4.790
  165.0     5327.400      0.500     104.960     4.900
  165.0     5328.400      0.500      92.170     4.460
  165.0     5329.300      0.500     103.720     4.790
  165.0     5330.300      0.500     100.600     5.210
  165.0     5350.200      0.500     121.470     5.690
  165.0     5359.600      0.500     141.320     8.510
  165.0     5360.100      0.500     128.270     7.770
  165.0     5365.100      0.500     175.320     9.230
  165.0     5366.300      0.500     163.500     6.500
  165.0     5367.100      0.500     175.190     9.650
  165.0     5368.100      0.500     197.850     9.950
  165.0     5370.000      0.500     252.770     11.520
  165.0     5370.100      0.500     271.810     11.940
  165.0     5370.300      0.500     256.820     10.370
  165.0     5371.200      0.500     285.820     11.930
  165.0     5371.700      0.500     364.740     14.960
  165.0     5372.000      0.500     368.670     14.440
  165.0     5372.200      0.500     372.930     14.020
  165.0     5373.100      0.500     415.780     15.060
  165.0     5373.300      0.500     449.510     16.740
  165.0     5373.900      0.500     465.920     18.920
  165.0     5374.100      0.500     460.140     18.020
  165.0     5374.800      0.500     339.870     14.210
  165.0     5375.100      0.500     438.550     15.460
  165.0     5376.000      0.500     349.740     13.370
  165.0     5376.100      0.500     306.710     16.730
  165.0     5377.000      0.500     253.260     11.690
  165.0     5377.900      0.500      75.970     6.060
  165.0     5378.100      0.500     135.860     8.350
  165.0     5379.200      0.500      97.630     7.000
  165.0     5379.400      0.500      28.890     3.650
  165.0     5380.100      0.500      47.860     4.590
  165.0     5390.100      0.500      45.710     3.320
  165.0     5390.200      0.500      44.570     3.530
  165.0     5405.300      0.500      67.350     4.340
  165.0     5410.700      0.500      71.760     4.330
  165.0     5425.400      0.500      66.240     4.310
  165.0     5430.600      0.500      76.860     4.400
  165.0     5435.300      0.500      72.030     4.500
  165.0     5445.200      0.500      68.100     4.380
  165.0     5450.700      0.500      35.050     2.030
  165.0     5455.100      0.500      64.810     4.260
  165.0     5465.100      0.500      56.590     3.940
  165.0     5467.400      0.500      46.750     3.540
  165.0     5468.900      0.500      45.610     3.530
  165.0     5469.000      0.500      52.570     3.730
  165.0     5470.500      0.500      79.470     4.540
  165.0     5471.400      0.500      57.770     4.030
  165.0     5471.800      0.500      72.680     4.540
  165.0     5472.300      0.500     129.210     5.750
  165.0     5473.000      0.500     138.950     6.450
  165.0     5474.200      0.500     137.480     6.050
  165.0     5475.500      0.500     138.120     6.540
  165.0     5476.200      0.500     134.760     5.940
  165.0     5477.000      0.500     133.320     6.340
  165.0     5478.200      0.500     125.920     5.630
  165.0     5479.500      0.500     125.960     6.230
  165.0     5480.300      0.500     116.470     5.530
  165.0     5481.700      0.500     106.770     5.830
  165.0     5482.100      0.500     107.060     5.130
  165.0     5483.600      0.500      90.240     5.220
  165.0     5484.100      0.500     108.690     5.220
  165.0     5485.700      0.500     103.110     5.620
  165.0     5486.100      0.500     106.200     5.110
  165.0     5487.600      0.500      86.300     5.120
  165.0     5489.600      0.500      89.640     5.210
  165.0     5490.400      0.500      95.020     5.010
  165.0     5491.600      0.500      91.480     5.300
  165.0     5492.000      0.500      96.260     4.900
  165.0     5493.600      0.500      93.810     5.300
  165.0     5494.000      0.500     101.390     5.000
  165.0     5495.300      0.500      97.950     5.300
  165.0     5496.000      0.500      93.730     4.700
  165.0     5500.300      0.500      98.470     4.990
  165.0     5505.300      0.500      86.240     4.980
  165.0     5510.600      0.500      93.830     5.050
  165.0     5525.300      0.500      84.040     4.840
  165.0     5545.300      0.500      85.390     4.910
  165.0     5565.800      0.500      86.420     5.160
  165.0     5585.800      0.500      89.480     5.130
  165.0     5605.800      0.500      79.720     4.800
  165.0     5625.800      0.500      86.590     4.960
  165.0     5645.800      0.500      82.570     4.830
  165.0     5665.800      0.500      85.940     4.890
  165.0     5685.800      0.500      85.150     4.860
  165.0     5705.800      0.500      82.970     4.830
  165.0     5725.800      0.500      75.310     4.510
  165.0     5745.700      0.500      90.880     5.030
  165.0     5765.800      0.500      84.520     4.820
  165.0     5785.800      0.500      81.330     4.690
  165.0     5798.900      0.500      84.460     4.760
  165.0     5805.900      0.500      80.680     4.660
  165.0     5824.500      0.500      98.490     5.160
  165.0     5845.100      0.500      98.680     5.220
  165.0     5865.700      0.500      79.210     4.650
  165.0     5885.800      0.500      70.400     4.360
  165.0     5906.200      0.500      60.740     4.330
  165.0     5915.900      0.500      59.510     2.670
  165.0     5926.200      0.500      37.040     2.150
  165.0     5936.000      0.500      16.790     1.370
  165.0     5946.200      0.500      45.410     2.390
  165.0     5956.200      0.500      85.760     3.410
  165.0     5966.100      0.500      96.840     3.650
  165.0     5976.200      0.500      94.730     3.720
  165.0     5976.300      0.500     101.150     5.580
  165.0     5986.100      0.500      97.960     3.710
  165.0     5996.300      0.500      99.980     5.540
  165.0     6006.000      0.500      98.400     5.270
  170.0     2433.000      0.600      29.930     1.000
  170.0     2453.200      0.510      25.030     0.980
  170.0     2468.600      0.810      39.250     0.970
  170.0     2473.400      1.280      61.790     1.930
  170.0     2478.500      1.620      77.880     2.400
  170.0     2483.400      2.130     102.000     2.870
  170.0     2488.300      1.860      88.720     2.860
  170.0     2493.200      2.300     109.270     3.330
  170.0     2503.000      1.820      85.790     2.830
  170.0     2545.600      1.400      63.800     1.370
  170.0     2595.300      1.210      53.050     1.320
  170.0     2645.100      1.290      54.450     1.270
  170.0     2645.100      1.260      53.180     1.270
  170.0     2694.600      1.280      52.060     1.220
  170.0     2694.800      1.260      51.240     1.220
  170.0     2744.200      1.300      50.980     1.180
  170.0     2744.600      1.170      45.870     1.180
  170.0     2793.800      1.310      49.570     1.140
  170.0     2794.300      1.220      46.140     1.130
  170.0     2843.400      1.350      49.310     1.100
  170.0     2844.100      1.390      50.750     1.100
  170.0     2893.900      1.420      50.070     1.060
  170.0     2895.000      1.390      48.980     1.410
  170.0     2952.200      2.000      67.770     2.710
  170.0     2992.300      3.270     107.850     4.950
  170.0     3002.300      4.040     132.360     4.590
  170.0     3007.200      4.820     157.400     5.230
  170.0     3014.800      6.020     195.600     8.120
  170.0     3015.800      6.140     199.370     8.440
  170.0     3016.800      6.200     201.180     8.110
  170.0     3017.800      6.580     213.370     8.430
  170.0     3018.700      7.870     255.050     9.720
  170.0     3019.700      8.660     280.470     10.690
  170.0     3020.600      8.830     285.810     10.680
  170.0     3021.600      9.580     309.880     11.000
  170.0     3022.600     10.950     353.960     12.280
  170.0     3023.500     12.480     403.170     13.570
  170.0     3024.500     13.510     436.160     14.210
  170.0     3025.400     15.310     493.980     15.810
  170.0     3026.300     19.100     615.890     18.380
  170.0     3027.300     20.390     657.060     19.330
  170.0     3028.300     21.450     690.760     20.290
  170.0     3029.200     23.670     761.800     21.890
  170.0     3030.200     25.550     821.760     22.840
  170.0     3031.100     25.640     824.160     23.140
  170.0     3032.000     23.890     767.460     21.840
  170.0     3032.800     23.960     769.300     22.800
  170.0     3033.000     20.470     657.160     19.260
  170.0     3033.900     17.680     567.250     17.330
  170.0     3034.000     18.440     591.600     17.970
  170.0     3034.900     16.370     524.870     15.390
  170.0     3034.900     15.150     485.760     17.310
  170.0     3035.900     12.050     386.110     12.820
  170.0     3036.900     10.130     324.370     10.890
  170.0     3036.900      9.670     309.640     12.170
  170.0     3037.900      7.500     240.000     8.960
  170.0     3038.800      5.910     189.010     7.680
  170.0     3038.800      5.730     183.250     7.360
  170.0     3039.800      4.570     146.060     6.070
  170.0     3041.000      2.910      92.930     4.470
  170.0     3042.800      2.680      85.480     2.550
  170.0     3043.500      2.020      64.400     1.910
  170.0     3046.500      1.290      41.050     1.270
  170.0     3047.400      1.320      41.980     1.270
  170.0     3048.100      0.740      23.520     0.640
  170.0     3049.900      0.610      19.370     0.630
  170.0     3051.800      0.470      14.900     0.630
  170.0     3053.600      0.360      11.400     0.320
  170.0     3055.400      0.260       8.220     0.320
  170.0     3060.300      0.280       8.830     0.320
  170.0     3061.900      0.330      10.400     0.320
  170.0     3065.100      0.430      13.520     0.310
  170.0     3066.700      0.440      13.820     0.310
  170.0     3076.400      0.930      29.020     0.940
  170.0     3081.200      1.020      31.730     0.930
  170.0     3086.000      0.630      19.540     0.620
  170.0     3094.500      0.610      18.810     0.620
  170.0     3143.800      0.790      23.610     0.600
  170.0     3144.100      0.640      19.120     0.600
  170.0     3193.400      0.950      27.510     0.580
  170.0     3193.700      0.940      27.220     0.580
  170.0     3243.000      1.040      29.200     0.560
  170.0     3243.300      1.020      28.640     0.560
  170.0     3292.700      1.150      31.320     0.540
  170.0     3293.000      1.150      31.320     0.540
  170.0     3304.300      1.610      43.550     1.350
  170.0     3314.100      1.640      44.100     1.340
  170.0     3323.900      1.660      44.370     1.340
  170.0     3333.700      1.900      50.490     1.590
  170.0     3344.300      2.330      61.520     2.640
  170.0     3345.200      2.070      54.630     2.380
  170.0     3346.100      2.180      57.500     4.750
  170.0     3347.000      2.510      66.170     4.750
  170.0     3349.000      2.590      68.200     4.740
  170.0     3350.900      2.410      63.390     4.730
  170.0     3352.800      3.360      88.270     4.730
  170.0     3354.800      3.870     101.550     4.720
  170.0     3356.700      4.940     129.480     4.720
  170.0     3358.600      5.740     150.280     4.710
  170.0     3360.600      6.640     173.630     4.710
  170.0     3362.500      7.200     188.060     4.700
  170.0     3364.400      6.530     170.370     4.700
  170.0     3364.500      6.900     180.010     4.700
  170.0     3365.400      5.560     144.980     3.910
  170.0     3366.200      4.620     120.410     3.390
  170.0     3366.400      4.860     126.650     3.130
  170.0     3368.100      3.170      82.520     2.340
  170.0     3368.900      2.570      66.870     2.080
  170.0     3369.200      3.570      92.880     1.820
  170.0     3369.700      2.140      55.660     1.560
  170.0     3370.700      1.880      48.870     1.560
  170.0     3371.400      1.620      42.090     1.300
  170.0     3372.000      1.580      41.040     1.300
  170.0     3373.900      1.240      32.170     1.300
  170.0     3375.500      1.030      26.700     1.300
  170.0     3377.200      0.920      23.820     1.290
  170.0     3382.200      0.790      20.400     0.770
  170.0     3392.100      0.820      21.050     0.770
  170.0     3440.800      0.960      23.950     1.000
  170.0     3441.600      0.840      20.940     0.500
  170.0     3491.300      0.960      23.260     0.480
  170.0     3543.800      1.000      23.520     0.470
  170.0     3593.400      1.050      24.010     0.460
  170.0     3643.000      1.090      24.260     0.450
  170.0     3692.300      1.130      24.480     0.430
  170.0     3742.300      1.150      24.250     0.420
  170.0     3842.800      1.260      25.200     0.600
  170.0     3843.500      1.910      38.180     1.600
  170.0     3845.400      1.630      32.550     1.400
  170.0     3849.400      1.850      36.870     1.590
  170.0     3851.300      1.780      35.440     1.590
  170.0     3856.300      1.560      30.980     1.390
  170.0     3860.700      1.790      35.470     1.590
  170.0     3865.700      2.630      51.980     2.170
  170.0     3870.600      4.250      83.780     2.960
  170.0     3872.500      2.690      52.970     2.170
  170.0     3873.500      1.580      31.100     1.380
  170.0     3875.600      0.960      18.880     0.790
  170.0     3893.300      1.100      21.430     0.970
  170.0     3941.500      1.130      21.480     0.380
  170.0     4042.900      1.310      23.670     0.540
  170.0     4142.500      1.410      24.270     0.520
  170.0     4242.200      1.560      25.600     0.490
  170.0     4341.700      1.770      27.730     0.630
  170.0     4441.300      2.220      33.240     0.750
  170.0     4542.000      2.920      41.800     0.860
  170.0     4641.700      4.030      55.240     1.100
  170.0     4741.400      5.450      71.590     1.450
  170.0     4840.900      7.110      89.600     1.890
  170.0     4901.400      9.130     112.230     5.410
  170.0     4911.400     10.030     122.800     5.750
  170.0     4921.400      9.580     116.810     5.490
  170.0     4931.300      9.700     117.800     5.460
  170.0     4940.600      9.180     111.070     2.300
  170.0     4948.200     13.780     166.210     6.880
  170.0     4950.200     14.660     176.680     7.110
  170.0     4952.200     15.220     183.280     7.230
  170.0     4954.200     18.080     217.540     8.060
  170.0     4956.100     21.730     261.260     9.140
  170.0     4958.100     16.750     201.220     7.690
  170.0     4960.000     10.920     131.090     5.760
  170.0     4962.000      7.200      86.360     4.320
  170.0     4963.900      6.430      77.070     4.080
  170.0     4977.900      8.450     100.710     4.890
  170.0     4991.400      9.000     106.680     5.220
  170.0     4996.400      9.320     110.250     5.320
  170.0     5001.300      8.750     103.310     5.080
  170.0     5011.300     10.620     124.890     5.760
  170.0     5021.200     11.360     133.060     5.860
  170.0     5031.200     10.000     116.670     5.480
  170.0     5041.100     10.540     122.490     5.580
  170.0     5044.700      9.590     111.290     2.320
  170.0     5051.100      9.620     111.350     5.210
  170.0     5061.000     13.340     153.810     6.460
  170.0     5071.000     12.840     147.460     6.320
  170.0     5081.000     13.440     153.740     6.410
  170.0     5090.800     13.590     154.860     6.500
  170.0     5100.800     15.300     173.660     6.920
  170.0     5112.100     17.860     201.830     10.400
  170.0     5120.800     20.770     233.910     8.450
  170.0     5131.000     29.510     331.030     14.020
  170.0     5140.700     28.370     317.040     10.390
  170.0     5141.900     26.380     294.660     12.850
  170.0     5143.000     25.530     285.050     12.730
  170.0     5143.900     24.990     278.920     12.280
  170.0     5145.000     23.440     261.510     11.940
  170.0     5146.900     20.240     225.640     10.930
  170.0     5149.000     17.030     189.700     9.800
  170.0     5150.900     15.460     172.080     9.240
  170.0     5159.000     10.380     115.180     7.100
  170.0     5170.700     10.110     111.670     6.960
  170.0     5170.800      8.830      97.530     4.750
  170.0     5180.800      8.930      98.250     4.950
  170.0     5190.800      8.790      96.340     4.930
  170.0     5210.700      9.250     100.610     5.000
  170.0     5224.400     10.630     115.020     4.650
  170.0     5230.700      9.700     104.700     5.180
  170.0     5250.500      8.820      94.490     4.820
  170.0     5270.500      9.860     104.830     5.100
  170.0     5290.400     10.860     114.590     5.380
  170.0     5316.400     10.890     113.790     5.330
  170.0     5326.500     12.120     126.160     5.000
  170.0     5327.400     11.540     120.080     4.890
  170.0     5328.400     11.260     117.120     4.680
  170.0     5329.300     11.850     123.220     4.890
  170.0     5330.300     11.550     120.050     5.610
  170.0     5350.200     11.850     122.260     5.570
  170.0     5359.600     15.190     156.170     8.740
  170.0     5366.300     21.750     223.050     7.490
  170.0     5367.100     22.520     230.880     11.170
  170.0     5370.300     32.110     328.810     11.570
  170.0     5371.200     35.690     365.340     13.310
  170.0     5371.700     46.180     472.640     17.600
  170.0     5372.200     45.250     463.030     15.450
  170.0     5373.100     52.820     540.310     17.190
  170.0     5373.300     58.260     595.910     17.180
  170.0     5374.100     57.420     587.150     18.200
  170.0     5374.800     48.140     492.130     18.090
  170.0     5375.100     55.740     569.760     17.890
  170.0     5376.000     49.520     506.010     11.650
  170.0     5376.100     24.150     246.760     18.190
  170.0     5377.900     10.980     112.120     7.350
  170.0     5379.400      4.270      43.580     4.180
  170.0     5390.200      5.620      57.120     3.760
  170.0     5405.300      8.080      81.670     4.750
  170.0     5425.400      7.580      76.050     4.410
  170.0     5435.300      8.320      83.170     4.700
  170.0     5445.200      9.010      89.740     4.880
  170.0     5455.100      7.540      74.830     4.370
  170.0     5465.100      5.780      57.150     3.660
  170.0     5467.400      5.900      58.290     3.660
  170.0     5468.900      4.060      40.090     2.760
  170.0     5469.000      6.100      60.230     3.750
  170.0     5471.400      8.160      80.500     4.440
  170.0     5471.800      9.900      97.650     5.030
  170.0     5473.000     18.960     186.930     7.590
  170.0     5475.500     16.740     164.890     6.990
  170.0     5477.000     16.710     164.510     6.990
  170.0     5479.500     15.600     153.440     6.690
  170.0     5481.700     14.710     144.570     6.880
  170.0     5483.600     11.920     117.070     5.700
  170.0     5485.700     12.510     122.770     6.080
  170.0     5487.600     12.570     123.270     5.980
  170.0     5489.600     11.590     113.580     5.780
  170.0     5491.600     11.160     109.290     5.580
  170.0     5493.600     11.600     113.510     5.680
  170.0     5495.300     10.070      98.480     4.990
  170.0     5505.300     10.610     103.380     5.160
  170.0     5525.300     11.180     108.150     5.320
  170.0     5545.300     11.420     109.680     5.380
  170.0     5565.800     10.070      96.000     5.340
  170.0     5585.800     10.910     103.260     5.580
  170.0     5605.800     10.110      95.010     5.170
  170.0     5625.800      8.710      81.270     4.670
  170.0     5645.800     11.290     104.600     5.470
  170.0     5665.800     11.670     107.360     5.610
  170.0     5685.800     11.290     103.140     5.300
  170.0     5705.800     11.560     104.860     5.440
  170.0     5725.800     11.480     103.410     5.400
  170.0     5745.700     11.050      98.850     5.190
  170.0     5765.800     11.320     100.560     5.240
  170.0     5785.800     11.690     103.130     5.290
  170.0     5798.900     11.450     100.560     5.090
  170.0     5805.900     12.440     108.990     5.430
  170.0     5824.500     13.100     114.040     5.570
  170.0     5845.100     13.330     115.220     5.620
  170.0     5865.700     10.510      90.210     4.980
  170.0     5885.800     10.550      89.940     5.030
  170.0     5906.200      8.740      73.990     4.490
  170.0     5915.900      7.030      59.320     2.530
  170.0     5926.200      4.740      39.860     2.020
  170.0     5936.000      1.800      15.090     1.010
  170.0     5946.200      6.330      52.870     2.420
  170.0     5956.200     12.910     107.470     3.830
  170.0     5966.100     13.930     115.580     3.980
  170.0     5976.200     15.400     127.340     4.300
  170.0     5976.300     14.660     121.220     6.040
  170.0     5986.100     14.320     118.020     4.040
  170.0     5996.300     14.250     117.040     5.910
  170.0     6006.000     14.270     116.830     5.650
ENDDATA            592
ENDSUBENT          599
ENDENTRY             2
