ENTRY            21109     800331
SUBENT        21109001     800331
BIB                  9         24
INSTITUTE  (2UK HAR)
REFERENCE  (J,NP/A,108,535,6802)
           (P,AERE-PR/NP-9,9,6604) ABSTRACT.
           (R,AERE-NP/GEN-47,6704)
           (C,66TRIESTE,831,6612) GRAPH.
           (C,65ANTWERP,522,6507) PRELIMINARY REPORT.
           (P,AERE-PR/NP-8,9,6502) ABSTRACT.
AUTHOR     (M.ASGHAR,C.M.CHAFFEY,M.C.MOXON)
TITLE      -THE NEUTRON RESONANCE PARAMETERS AND AVERAGE CAPTURE
            CROSS-SECTION OF HO-165-
FACILITY   (LINAC) 45 MEV ELECTRON LINAC.
INC-SOURCE .PULSED NEUTRON SOURCE USING BOOSTED NEUTRON TARGET.
METHOD     (TOF  ) TIME-OF-FLIGHT.
            FLIGHT PATH OF 50 METERS FOR SCATTERING, AND 32.5
            FOR CAPTURE MEASUREMENTS.
STATUS     (NDD  ) FROM NEUDADA. TABLES AND GRAPHS IN PUBLICATION
HISTORY    (790903C)
           (791001E)
           (800131A) FULL SET OF REFERENCES ADDED, DATA UNCHANGED
           (800213E)
           (800227A) REACTION STRINGS CORRECTED.
           (800303E)
           (800314A) SUBWORK 003 AND 004 CORRECTED.
           (800331E)
ENDBIB              24
NOCOMMON             0          0
ENDSUBENT           27
SUBENT        21109002     801105
BIB                  8         13
REACTION   (67-HO-165(N,EL),,WID,,S0)
SAMPLE     .METALLIC SAMPLE OF THICKNESS 0.9322 E-04 ATOM/BARN.
DETECTOR   (SCIN ) LITHIUM GLASS SCINTILLATOR PLACED AT FLIGHT
                   PATH OF 50 METRES. TIMING RESOLUTION 6 NSEC/M.
ANALYSIS   (AREA ) FROM MEASURED SCATTERING YIELD OF HO IN FIG.3
                   OF THE PUBLICATION AND OF A 5.48 ATOMS/B
                   CALIBRATION SAMPLE.
STATUS     .TABLE 1.
HISTORY    (800227A)
CORRECTION .RESONANCE SELF SCREENING, DOPPLER BROADENING AND
            MULTIPLE SCATTERING CORRECTIONS APPLIED TO THE
            OBSERVED RESONANCE AREAS.
ERR-ANALYS .STATISTICAL STANDARD ERROR.
ENDBIB              13
COMMON               1          3
THICKNESS
ATOMS/B
 9.3220E-05
ENDCOMMON            3
DATA                 3         26
EN-RES     DATA       DATA-ERR
EV         B*EV       B*EV
 3.5300E+01 2.9700E+01 5.3000E+00
 3.9400E+01 1.4170E+02 6.0000E+00
 4.7400E+01 1.6100E+02 7.1000E+00
 5.1400E+01 4.6570E+02 1.4000E+01
 6.0000E+01 1.0520E+02 5.6000E+00
 7.1300E+01 1.2760E+02 6.8000E+00
 8.3800E+01 3.0700E+01 5.3000E+00
 8.5500E+01 3.0460E+02 1.5400E+01
 9.3300E+01 8.0020E+02 1.7200E+01
 1.0180E+02 6.3100E+01 6.4000E+00
 1.1780E+02 2.4100E+01 4.0000E+00
 1.2450E+02 1.6830E+02 1.0000E+01
 1.2660E+02 6.9000E+01 7.5000E+00
 1.2810E+02 4.8000E+01 7.5000E+00
 1.5080E+02 1.2720E+02 1.0400E+01
 1.6390E+02 2.2000E+01 8.2000E+00
 1.6950E+02 4.0000E+01 8.8000E+00
 1.8080E+02 4.5100E+01 1.0500E+01
 1.8960E+02 2.5500E+01 9.1000E+00
 2.0190E+02 2.9000E+02 1.3500E+01
 2.1420E+02 1.5580E+02 1.3000E+01
 2.2040E+02 5.1500E+01 1.1400E+01
 2.3920E+02 5.7100E+01 1.1400E+01
 2.5520E+02 3.3640E+02 2.1000E+01
 2.6070E+02 3.8000E+01 1.7500E+01
 2.9900E+02 3.3220E+02 1.9200E+01
ENDDATA             28
ENDSUBENT           50
SUBENT        21109003     801104
BIB                  8         14
REACTION   (67-HO-165(N,EL),,WID,,S0)
SAMPLE     .METALLIC SAMPLE OF THICKNESS 3.398 E-04 ATOM/BARN.
DETECTOR   (SCIN ) LITHIUM GLASS SCINTILLATOR PLACED AT FLIGHT
                   PATH OF 50 METRES. TIMING RESOLUTION 6 NSEC/M.
ANALYSIS   (AREA ) FROM MEASURED SCATTERING YIELD OF HO IN FIG.3
                   OF THE PUBLICATION AND OF A 5.48 ATOMS/B
                   CALIBRATION SAMPLE.
STATUS     .TABLE 1.
HISTORY    (800227A)
           (800314A)
CORRECTION .RESONANCE SELF SCREENING, DOPPLER BROADENING AND
            MULTIPLE SCATTERING CORRECTIONS APPLIED TO THE
            OBSERVED RESONANCE AREAS.
ERR-ANALYS .STATISTICAL STANDARD ERROR.
ENDBIB              14
COMMON               1          3
THICKNESS
ATOMS/B
 3.3980E-04
ENDCOMMON            3
DATA                 3         26
EN-RES     DATA       DATA-ERR
EV         B*EV       B*EV
 3.5300E+01 2.2400E+01 3.0000E+00
 3.9400E+01 1.3060E+02 2.3000E+00
 4.7400E+01 1.6760E+02 3.3000E+00
 5.1400E+01 4.7210E+02 7.2000E+00
 6.0000E+01 1.0970E+02 5.0000E+00
 7.1300E+01 1.2850E+02 3.0000E+00
 8.3800E+01 2.6900E+01 2.3000E+00
 8.5500E+01 2.8250E+02 9.5000E+00
 9.3300E+01 8.1670E+02 1.0000E+01
 1.0180E+02 5.5600E+01 2.6000E+00
 1.1780E+02 2.3000E+01 2.3000E+00
 1.2450E+02 1.6030E+02 4.7000E+00
 1.2660E+02 7.4700E+01 7.6000E+00
 1.2810E+02 4.8300E+01 5.4000E+00
 1.5080E+02 1.3190E+02 5.6000E+00
 1.6390E+02 2.3250E+01 3.1000E+00
 1.6950E+02 3.7000E+01 2.1000E+00
 1.8080E+02 5.3400E+01 4.0000E+00
 1.8960E+02 2.4300E+01 3.4000E+00
 2.0190E+02 2.9210E+02 7.1000E+00
 2.1420E+02 1.5250E+02 5.5000E+00
 2.2040E+02 5.6800E+01 4.3000E+00
 2.3920E+02 5.5000E+01 5.3000E+00
 2.5520E+02 3.5710E+02 8.0000E+00
 2.6070E+02 5.5270E+01 5.2000E+00
 2.9900E+02 3.3110E+02 1.6500E+01
ENDDATA             28
ENDSUBENT           51
SUBENT        21109004     801104
BIB                  5          9
REACTION   (67-HO-165(N,G)67-HO-166,,SIG)
SAMPLE     .3 METALLIC SAMPLES. TWO 8 CM DIAMETER DISCS OF
            THICKNESS 0.9322E-04 AND 3.398E-04 ATOMS/B, ONE
            SQUARE OF SIDE 2.5 CM AND THICKNESS 1.596E-03
            ATOM/B.
DETECTOR   (MOXR ) MOXON-RAE DETECTOR PLACED AT FLIGHT PATH OF
                   32.5 METRES. TIMING RESOLUTION 12 NSEC/M.
STATUS     .GRAPHICAL DATA IN FIG.1 OF THE PUBLICATION.
HISTORY    (800314A)
ENDBIB               9
COMMON               2          3
EN-MIN     EN-MAX
EV         KEV
 2.5000E+00 1.0000E+02
ENDCOMMON            3
NODATA               0          0
ENDSUBENT           17
SUBENT        21109005     800303
BIB                  9         33
REACTION  1(67-HO-165(N,EL),,WID)
          2(67-HO-165(N,G),,WID)
          3(67-HO-165(N,0),,J)
ANALYSIS   (AREA ) AREA ANALYSIS APPLIED TO CAPTURE DATA AND USED
                   WITH SCATTERING AREAS TO GIVE RESONANCE WIDTHS
                   WITH CHI-SQARED FITTING TO SELECT THE SPIN.
ASSUMED    (ASSUM,67-HO-165(N,0),,J) VALUE OF RESONANCE SPIN FROM
                   BNL-325, 3RD.EDN., WHERE THIS HAS BEEN ASSUMED
                   TO SELECT RESONANCE PARAMETERS.
COMMENT    .WIDTH DATA GIVEN FOR BOTH POSSIBLE SPINS BY AUTHORS.
            COMPILED DATA IS FOR PREFERRED SPIN VALUES EITHER
            FROM PUBLICATION OR FROM BNL-325, 3RD.EDN..(COMMENT
            BY COMPILER).
FLAG       (1.) SPIN VALUE TAKEN FROM BNL-325, 3RD EDN., VOL 1,
                BY COMPLILER.
           (2.) SPIN VALUE PROVISIONAL IN BNL-325, 3RD EDN.
           (3.) PREFERRED SPIN VALUE MEASURED IN PUBLICATION.
           (4.) TENTATIVE SPIN ASSIGNMENT FROM PUBLICATION FROM
                CHI-SQUARED TEST.
           (5.) TENTATIVE SPIN ASSIGNMENT FROM PUBLICATION
                ASSUMING GAMMA WIDTH OF 75.7+-2.4 MILLI-EV.
           (6.) NO PREFERRED SPIN FROM EITHER PUBLICATION OR
                BNL-325. WIDTHS FOR BOTH POSSIBLE SPINS GIVEN.
STATUS     .TABLE 2.
HISTORY    (800124A)
           (800129E)
           (800227A)
CORRECTION .MULTIPLE SCATTERING CORRECTIONS APPLIED TO CAPTURE
            DATA.
ERR-ANALYS .ERRORS DUE TO MULTIPLE SCATTERING CORRECTIONS, TO
            THE MEASUREMENT OF THE ENERGY DEPENDENCE OF THE
            INCIDENT NEUTRON FLUX AND TO ABOUT 3 PERCENT ERROR
            IN CAPTURE DETECTOR EFFICIENCY.
ENDBIB              33
NOCOMMON             0          0
DATA                 8         47
EN-RES     DATA      1DATA-ERR  1DATA      2DATA-ERR  2DATA      3
ASSUM      FLAG
EV         MILLI-EV   MILLI-EV   MILLI-EV   MILLI-EV   NO-DIM
NO-DIM     NO-DIM
 8.1400E+00 1.7000E-01 6.0000E-02
 3.0000E+00 1.0000E+00
 1.2630E+01 1.5000E+01 1.5000E-01
 4.0000E+00 1.0000E+00
 1.8080E+01 1.3500E+00 1.4000E-01
 3.0000E+00 1.0000E+00
 2.0970E+01 6.3000E-01 2.0000E-01
 4.0000E+00 1.0000E+00
 3.5420E+01 7.4000E+00 1.0000E-01 7.2600E+01 5.5000E+00 3.0000E+00
            3.0000E+00
 3.7240E+01 7.5000E-01 3.0000E-01
 3.0000E+00 1.0000E+00
 3.9590E+01 1.9500E+01 2.0000E-01 9.0100E+01 4.5000E+00 4.0000E+00
            3.0000E+00
 4.7630E+01 2.6900E+01 3.0000E-01 9.0000E+01 2.1000E+00
 3.0000E+00 1.0000E+00
 5.1360E+01 5.4000E+01 1.2000E+00 7.9000E+01 2.6000E+00 3.0000E+00
            3.0000E+00
 5.4220E+01 3.3000E+00 8.0000E-01
 4.0000E+00 1.0000E+00
 6.4960E+01 2.0600E+01 3.0000E-01 7.4600E+01 2.0000E+00 4.0000E+00
            3.0000E+00
 6.8750E+01 1.0000E+00 3.0000E-01
 4.0000E+00 1.0000E+00
 7.1730E+01 2.3700E+01 3.0000E-01 7.4900E+01 1.8000E+00 4.0000E+00
            3.0000E+00
 7.9920E+01 1.6000E+00 7.0000E-01
 4.0000E+00 1.0000E+00
 8.3760E+01 1.1200E+01 2.0000E-01 6.6700E+01 4.3000E+00
 4.0000E+00 1.0000E+00
 9.3340E+01 8.7400E+01 1.0000E+00 7.6700E+01 1.6000E+00 4.0000E+00
            3.0000E+00
 1.0170E+02 1.8800E+01 3.0000E-01 7.5900E+01 2.6000E+00 4.0000E+00
            3.0000E+00
 1.0610E+02 7.5000E+00 5.0000E-01
 4.0000E+00 1.0000E+00
 1.1780E+02 1.5300E+01 4.0000E-01 8.0100E+01 3.6000E+00
 3.0000E+00 6.0000E+00
 1.1780E+02 1.2000E+01 3.0000E-01 7.0300E+01 4.2000E+00
 4.0000E+00 6.0000E+00
 1.2040E+02 7.5000E+00 7.0000E-01
 3.0000E+00 6.0000E+00
 1.2040E+02 5.8000E+00 5.0000E-01
 4.0000E+00 6.0000E+00
 1.2470E+02 3.7100E+01 5.0000E-01 7.4100E+01 1.6000E+00
 4.0000E+00 1.0000E+00
 1.2660E+02 2.3600E+01 4.0000E-01 7.3000E+01 4.2000E+00 4.0000E+00
            5.0000E+00
 1.2810E+02 2.0700E+01 4.0000E-01 6.5000E+01 4.6000E+00 3.0000E+00
            3.0000E+00
 1.4100E+02 1.6000E+00 4.0000E-01
 3.0000E+00 6.0000E+00
 1.4100E+02 1.2000E+00 3.0000E-01
 4.0000E+00 6.0000E+00
 1.5080E+02 4.2500E+01 6.0000E-01 7.1700E+01 2.7000E+00
 3.0000E+00 1.0000E+00
 1.6940E+02 2.2600E+01 5.0000E-01 7.5600E+01 5.6000E+00 3.0000E+00
            5.0000E+00
 1.6940E+02 1.7700E+01 4.0000E-01 6.0200E+01 5.0000E+00
 4.0000E+00 2.0000E+00
 1.8050E+02 3.9600E+01 8.0000E-01 1.6100E+02 9.7000E+00
 3.0000E+00 6.0000E+00
 1.8050E+02 3.0400E+01 6.0000E-01 1.2160E+02 5.5000E+00
 4.0000E+00 6.0000E+00
 1.8840E+02 1.6200E+01 5.0000E-01 7.0600E+01 5.3000E+00 4.0000E+00
            4.0000E+00
 2.0180E+02 7.5600E+01 1.0000E+00 7.5500E+01 1.7000E+00 4.0000E+00
            3.0000E+00
 2.0450E+02 1.2000E+01 1.4000E+00
 3.0000E+00 6.0000E+00
 2.0450E+02 9.5000E+00 1.1000E+00
 4.0000E+00 6.0000E+00
 2.1420E+02 6.0600E+01 1.0000E+00 7.5200E+01 1.7000E+00 3.0000E+00
            5.0000E+00
 2.2000E+02 2.9700E+01 7.0000E-01 8.1700E+01 5.0000E+00 4.0000E+00
            5.0000E+00
 2.2960E+02 1.1500E+01 1.5000E+00
 3.0000E+00 6.0000E+00
 2.2960E+02 8.5000E+00 1.2000E+00
 4.0000E+00 6.0000E+00
 2.3250E+02 7.0000E+00 1.0000E+00
 3.0000E+00 6.0000E+00
 2.3250E+02 5.5000E+00 7.0000E-01
 4.0000E+00 6.0000E+00
 2.3910E+02 3.1200E+01 8.0000E-01 8.3600E+01 5.0000E+00 4.0000E+00
            4.0000E+00
 2.5390E+02 1.6050E+02 2.3000E+00 1.8870E+02 4.2000E+00
 3.0000E+00 6.0000E+00
 2.5390E+02 1.2500E+02 1.8000E+00 1.4600E+02 3.5000E+00
 4.0000E+00 6.0000E+00
 2.6100E+02 3.7800E+01 1.0000E+00 8.5800E+01 7.0000E+00
 3.0000E+00 6.0000E+00
 2.6100E+02 2.9700E+01 9.0000E-01 6.9000E+01 4.3000E+00
 4.0000E+00 6.0000E+00
ENDDATA             98
ENDSUBENT          136
ENDENTRY             5
