ENTRY            F0281   19991202   20001115
SUBENT        F0281001   19991202   20001115
BIB                  8         11
TITLE      Transfer reactions leading to states of 11C
AUTHOR     (W.BOHNE,J.BOMMER,H.FUCHS,K.GRABISCH,M.HAGEN,H.HOMEYER,
           U.JANETZKI,H.LETTAU,H.MORGENSTERN,G.ROSCHERT,J.SCHEER)
INSTITUTE  (2GERBER)
REFERENCE  (J,NP/A,157,593,197011)
SAMPLE     10B targets enriched to 96% as selp-supporting foils
           for the charged-particle detection and on tungsten
           backings for the neutron study
METHOD     (TOF)
DETECTOR   (TELES) Solid-stste detector
HISTORY    (19820520C)
ENDBIB              11
NOCOMMON             0          0
ENDSUBENT           14
SUBENT        F0281002   19991202   20001115
BIB                  4          6
REACTION   (5-B-10(D,N)6-C-11,PAR,DA,,,EXP)
ERR-ANALYS (ANG-ERR) Digitizing error
           (DATA-ERR) From graphic and digitizing error
           (ERR-T) Total uncertainty
STATUS     (CURVE) Fig.3
EN-SEC     (E-LVL,6-C-11)
ENDBIB               6
COMMON               3          3
EN         ERR-T      ANG-ERR
MEV        PER-CENT   ADEG
  5.800      15.00      2.000
ENDCOMMON            3
DATA                 4        205
E-LVL      ANG-CM     DATA-CM    DATA-ERR
MEV        ADEG       MB/SR      MB/SR
     0.         5.175      0.9939     0.021
     0.        14.76       1.975      0.0417
     0.        24.09       2.277      0.0481
     0.        33.36       2.341      0.0494
     0.        40.6        1.658      0.035
     0.        47.8        1.078      0.0227
     0.        55.07       0.8085     0.0171
     0.        62.53       0.906      0.0191
     0.        71.81       0.9584     0.0202
     0.        77.35       0.9307     0.0196
     0.        84.74       0.9037     0.0191
     0.        93.96       0.8283     0.0175
     0.        99.44       0.7173     0.0151
     0.       106.9        0.781      0.0165
     0.       114.3        0.8752     0.0185
     0.       121.8        0.926      0.0195
     0.       129.3        1.038      0.0219
     1.995      6.225      0.3861 0.9997E-02
     1.995      8.013      0.3439 0.8905E-02
     1.995     17.         0.375  0.9711E-02
     1.995     25.97       0.3438 0.8903E-02
     1.995     33.14       0.2891 0.7484E-02
     1.995     42.11       0.265  0.6861E-02
     1.995     49.28       0.2228 0.5768E-02
     1.995     58.25       0.1873 0.4849E-02
     1.995     63.64       0.1984 0.5137E-02
     1.995     70.82       0.1927 0.4990E-02
     1.995     79.81       0.2042 0.5286E-02
     1.995     85.18       0.1668 0.4318E-02
     1.995     94.16       0.1716 0.4444E-02
     1.995     97.74       0.1485 0.3845E-02
     1.995    108.5        0.1573 0.4074E-02
     1.995    113.9        0.1443 0.3735E-02
     1.995    122.9        0.1871 0.4844E-02
     1.995    131.9        0.1982 0.5131E-02
     4.305      3.305      1.153      0.0333
     4.305     14.69       1.721      0.0497
     4.305     20.39       2.164      0.0625
     4.305     29.8        1.929      0.0557
     4.305     39.17       1.407      0.0406
     4.305     46.65       0.9686     0.028
     4.305     54.12       0.667      0.0193
     4.305     65.42       0.6295     0.0182
     4.305     71.09       0.6665     0.0192
     4.305     78.63       0.6291     0.0182
     4.305     86.15       0.5771     0.0167
     4.305     93.72       0.647      0.0187
     4.305    101.3        0.6108     0.0176
     4.305    108.8        0.6654     0.0192
     4.305    116.3        0.6464     0.0187
     4.305    122.         0.6462     0.0187
     4.794     12.49       0.4266     0.0613
     4.794     15.24       0.3922     0.0564
     4.794     26.29       0.4348     0.0625
     4.794     30.12       0.3242     0.0466
     4.794     39.62       0.3701     0.0532
     4.794     48.         0.3358     0.0483
     4.794     54.51       0.306      0.044
     4.794     59.34       0.246      0.0353
     4.794     70.18       0.3104     0.0446
     4.794     80.22       0.3192     0.0459
     4.794     88.72       0.3381     0.0486
     4.794     95.89       0.3239     0.0465
     4.794    104.1        0.3345     0.0481
     4.794    108.         0.2912     0.0419
     4.794    115.5        0.2861     0.0411
     4.794    122.         0.2607     0.0375
     4.794    131.1        0.2486     0.0357
     4.794    137.7        0.2645     0.038
     6.339      8.496      0.0689     0.012
     6.339     17.46       0.0766 0.6377E-02
     6.339     24.68       0.0528 0.7524E-02
     6.339     31.83       0.0727 0.3980E-02
     6.339     42.59       0.0787 0.2127E-02
     6.339     49.78       0.0727 0.1964E-02
     6.339     55.2        0.0528 0.4398E-02
     6.339     67.76       0.0572 0.6435E-02
     6.339     73.16       0.0487 0.4060E-02
     6.339     80.32       0.0557 0.3051E-02
     6.339     85.73       0.045  0.1216E-02
     6.339     96.51       0.0416 0.1123E-02
     6.339    103.7        0.0528 0.5945E-02
     6.339    107.2        0.0672 0.1815E-02
     6.339    116.2        0.0672 0.1815E-02
     6.339    121.6        0.0789 0.2130E-02
     6.339    128.8        0.0901 0.2434E-02
     6.48       2.473     10.11       0.2195
     6.48      13.6       13.43       0.2915
     6.48      22.91      13.43       0.2916
     6.48      30.42       9.84       0.2136
     6.48      39.83       6.083      0.1321
     6.48      47.41       2.998      0.0651
     6.48      54.98       1.52       0.033
     6.48      62.46       1.32       0.0287
     6.48      69.88       1.564      0.034
     6.48      77.33       1.61       0.0349
     6.48      84.78       1.61       0.035
     6.48      94.11       1.439      0.0312
     6.48     101.6        1.115      0.0242
     6.48     109.1        0.9413     0.0204
     6.48     118.4        0.9965     0.0216
     6.48     124.         1.025      0.0223
     6.48     129.5        1.286      0.0279
     6.906      3.718      0.6286     0.0121
     6.906      9.13       0.5816     0.0112
     6.906     18.18       0.7056     0.0136
     6.906     25.37       0.4606 0.8895E-02
     6.906     32.61       0.5376     0.0104
     6.906     41.64       0.4784 0.9239E-02
     6.906     48.86       0.4783 0.9236E-02
     6.906     57.88       0.3939 0.7606E-02
     6.906     68.73       0.4422 0.8539E-02
     6.906     74.14       0.4091 0.7900E-02
     6.906     79.55       0.3503 0.6764E-02
     6.906     86.79       0.3933 0.7596E-02
     6.906     95.82       0.3932 0.7592E-02
     6.906    101.2        0.3366 0.6501E-02
     6.906    110.3        0.3498 0.6755E-02
     6.906    117.5        0.3778 0.7296E-02
     6.906    122.9        0.3363 0.6494E-02
     6.906    133.8        0.3111 0.6007E-02
     7.509      5.39       0.1978 0.2814E-02
     7.509      8.989      0.1813 0.2579E-02
     7.509     18.04       0.1977 0.2812E-02
     7.509     27.08       0.2094 0.2979E-02
     7.509     36.14       0.2351 0.3344E-02
     7.509     43.35       0.2218 0.3155E-02
     7.509     52.41       0.249  0.3542E-02
     7.509     59.62       0.2216 0.3153E-02
     7.509     65.02       0.2031 0.2889E-02
     7.509     74.06       0.209  0.2973E-02
     7.509     81.27       0.186  0.2647E-02
     7.509     86.69       0.1807 0.2570E-02
     7.509     97.54       0.197  0.2803E-02
     7.509    102.9        0.1562 0.2222E-02
     7.509    126.4        0.1311 0.1865E-02
     7.509    131.9        0.1967 0.2799E-02
     8.107      6.846      0.2489     0.0617
     8.107      8.673      0.1995 0.3134E-02
     8.107     17.67       0.3106     0.0364
     8.107     24.9        0.3107     0.0364
     8.107     33.95       0.2422 0.3805E-02
     8.107     41.18       0.2423 0.3806E-02
     8.107     50.22       0.2357 0.3703E-02
     8.107     57.45       0.223  0.3504E-02
     8.107     64.67       0.2424 0.3808E-02
     8.107     75.51       0.2424 0.3809E-02
     8.107     80.94       0.2294 0.3604E-02
     8.107     84.55       0.2359 0.3705E-02
     8.107     95.39       0.2425     0.0138
     8.107    111.6        0.2786     0.0159
     8.107    118.8        0.329  0.5168E-02
     8.107    124.3        0.2495 0.3919E-02
     8.107    131.5        0.3114 0.4891E-02
     8.42       0.645     16.89       0.2074
     8.42       6.159     16.4        0.2015
     8.42      15.35      15.47       0.19
     8.42      24.49      10.91       0.134
     8.42      31.8        8.151      0.1001
     8.42      57.24       1.266      0.0155
     8.42      64.57       1.063      0.0131
     8.42      73.79       1.159      0.0142
     8.42      79.29       1.032      0.0127
     8.42      84.82       1.159      0.0142
     8.42      97.7        1.158      0.0142
     8.42     103.2        0.9726     0.012
     8.42     110.6        1.124      0.0138
     8.42     116.1        1.061      0.013
     8.42     125.2        0.8161 0.1000E-01
     8.42     132.6        0.8902     0.0109
     8.652      0.4586    38.12       1.181
     8.652      4.14      38.09       1.18
     8.652     12.74      24.97       0.7735
     8.652     20.49      14.59       0.452
     8.652     30.24       6.994      0.2166
     8.652     37.85       4.984      0.1544
     8.652     45.33       4.21       0.1304
     8.652     54.66       3.557      0.1102
     8.652     73.4        2.267      0.0702
     8.652     81.11       1.402      0.0434
     8.652     84.73       1.528      0.0473
     8.652     94.1        1.22       0.0378
     8.652    103.1        1.622      0.0502
     8.652    110.3        2.037      0.0631
     8.652    119.5        1.984      0.0614
     8.652    123.5        1.297      0.0402
     8.652    130.8        1.497      0.0464
     8.694      1.545     12.44       0.3412
     8.694      8.891     13.18       0.3613
     8.694     14.53       8.357      0.2292
     8.694     23.96       3.661      0.1004
     8.694     31.46       2.193      0.0601
     8.694     40.82       1.241      0.034
     8.694     49.98       1.432      0.0393
     8.694     59.21       1.316      0.0361
     8.694     68.42       1.244      0.0341
     8.694     77.67       1.049      0.0288
     8.694     83.27       0.7892     0.0216
     8.694     85.15       0.6653     0.0182
     8.694     99.89       0.6472     0.0178
     8.694    103.6        0.5776     0.0158
     8.694    114.7        0.5618     0.0154
     8.694    122.         0.5621     0.0154
     8.694    125.8        0.3882     0.0106
     8.694    133.1        0.3996     0.011
ENDDATA            207
ENDSUBENT          222
SUBENT        F0281003   19991202   20001115
BIB                  6          7
REACTION   (5-B-10(HE3,D)6-C-11,PAR,DA,,,EXP)
METHOD     (PHD)
DETECTOR   (SOLST)
ERR-ANALYS (ANG-ERR) Digitizing error
           (DATA-ERR) From graphic and digitizing error
STATUS     (CURVE) Fig.4
EN-SEC     (E-LVL,6-C-11)
ENDBIB               7
COMMON               2          3
EN         ANG-ERR
MEV        ADEG
  11.00      1.000
ENDCOMMON            3
DATA                 4        219
E-LVL      ANG-CM     DATA-CM    DATA-ERR
MEV        ADEG       MB/SR      MB/SR
     0.         8.22       3.319      0.1457
     0.        11.48       4.982      0.2187
     0.        14.09       6.355      0.279
     0.        17.32       6.886      0.3023
     0.        19.25       6.342      0.2784
     0.        22.46       5.605      0.2461
     0.        28.85       3.035      0.1332
     0.        33.91       1.094      0.048
     0.        39.68       0.697      0.0306
     0.        45.53       1.089      0.0478
     0.        49.39       1.044      0.0458
     0.        51.33       1.043      0.0458
     0.        55.84       0.9995     0.0439
     0.        62.27       0.847      0.0372
     0.        67.43       0.7792     0.0342
     0.        72.59       0.8436     0.037
     0.        77.76       0.8769     0.0385
     0.        82.26       0.7747     0.034
     0.        88.07       0.8051     0.0353
     0.        98.37       0.654      0.0287
     0.       106.8        0.7673     0.0337
     0.       116.4        0.6494     0.0285
     1.995     13.75       0.253      0.0548
     1.995     17.4        0.2929     0.0111
     1.995     20.32       0.3928     0.0149
     1.995     23.23       0.3073     0.0116
     1.995     26.16       0.4773     0.0181
     1.995     29.07       0.5262     0.0199
     1.995     35.63       0.5519     0.0209
     1.995     40.71       0.3913     0.0148
     1.995     46.53       0.3213     0.0122
     1.995     53.08       0.291      0.011
     1.995     58.17       0.2389 0.9058E-02
     1.995     63.99       0.2061 0.7811E-02
     1.995     70.54       0.2058 0.7801E-02
     1.995     75.64       0.2159 0.8185E-02
     1.995     82.19       0.1773 0.6720E-02
     1.995     86.56       0.1954 0.7406E-02
     1.995     92.38       0.1604 0.6081E-02
     1.995     96.75       0.1683 0.6381E-02
     1.995    101.8        0.1452 0.5504E-02
     1.995    107.7        0.1764 0.6688E-02
     1.995    117.2        0.333      0.0126
     1.995    126.6        0.287      0.0109
     1.995    136.8        0.3159     0.012
     4.305      8.856      2.549      0.0834
     4.305     12.15       3.404      0.1113
     4.305     14.14       4.186      0.1369
     4.305     18.05       4.352      0.1424
     4.305     20.63       3.835      0.1254
     4.305     23.84       3.108      0.1017
     4.305     28.99       2.221      0.0726
     4.305     35.39       1.137      0.0372
     4.305     40.52       0.7167     0.0234
     4.305     47.07       0.955      0.0312
     4.305     52.89       0.8055     0.0264
     4.305     59.41       0.8717     0.0285
     4.305     63.94       0.7997     0.0262
     4.305     69.15       0.797      0.0261
     4.305     74.98       0.7008     0.0229
     4.305     78.87       0.6432     0.021
     4.305     84.06       0.6149     0.0201
     4.305     90.5        0.4211     0.0138
     4.305     98.37       0.6092     0.0199
     4.305    110.1        0.8089     0.0265
     4.305    119.9        0.9493     0.0311
     4.305    128.4        1.115      0.0365
     4.798      8.903      0.6582     0.1701
     4.798     12.49       0.4149     0.0838
     4.798     15.43       0.4755     0.096
     4.798     18.34       0.4748     0.1227
     4.798     20.55       0.5444     0.02
     4.798     23.46       0.5192     0.0191
     4.798     30.02       0.4942     0.0181
     4.798     36.55       0.3914     0.0144
     4.798     42.39       0.4086     0.015
     4.798     46.05       0.4271     0.0157
     4.798     50.42       0.4261     0.0156
     4.798     56.94       0.3079     0.0113
     4.798     60.57       0.2557 0.9383E-02
     4.798     66.41       0.2669 0.9795E-02
     4.798     72.24       0.2542 0.9327E-02
     4.798     76.6        0.2209 0.8108E-02
     4.798     82.44       0.2415 0.8862E-02
     4.798     86.81       0.2198 0.8066E-02
     4.798     94.1        0.219  0.8036E-02
     4.798     99.16       0.1583 0.5810E-02
     4.798    103.6        0.2742     0.0101
     4.798    113.1        0.3765     0.0138
     4.798    124.         0.2592 0.9513E-02
     4.798    132.1        0.2703 0.9920E-02
     6.339      8.411      0.3685     0.213
     6.339     11.04       0.243      0.0956
     6.339     13.82       0.399      0.1127
     6.339     17.76       0.2137     0.0968
     6.339     21.18       0.2734     0.0774
     6.339     24.51       0.2127     0.0601
     6.339     36.53       0.1087 0.3895E-02
     6.339     41.92       0.1039 0.3724E-02
     6.339     49.37       0.1171 0.4197E-02
     6.339     55.27       0.045      0.0177
     6.339     62.1        0.0736     0.0289
     6.339     74.26       0.0794     0.0225
     6.339    100.5        0.0515 0.9298E-02
     6.339    106.6        0.0777     0.0179
     6.48       6.284     18.44       0.7717
     6.48      10.86      18.45       0.7718
     6.48      14.13      18.45       0.772
     6.48      16.75      15.63       0.6539
     6.48      20.02      16.29       0.6817
     6.48      23.95      11.69       0.4891
     6.48      29.84       7.72       0.323
     6.48      34.42       3.974      0.1663
     6.48      40.97       2.624      0.1098
     6.48      47.51       2.416      0.1011
     6.48      59.28       1.734      0.23
     6.48      82.18       0.9706     0.2239
     6.48      87.41       0.8223     0.0344
     6.48      91.99       0.8573     0.0359
     6.48      97.22       0.6151     0.0257
     6.48     103.1        0.7573     0.0317
     6.48     112.3        1.148      0.048
     6.48     129.9        1.536      0.0643
     6.906      9.233      1.041      0.2846
     6.906     12.52       0.6665     0.117
     6.906     15.85       0.6137     0.0206
     6.906     19.16       0.4618     0.0155
     6.906     22.55       0.5871     0.0753
     6.906     25.9        0.5628     0.0729
     6.906     31.37       1.07       0.0359
     6.906     37.29       0.5157     0.0173
     6.906     43.97       0.4552     0.0153
     6.906     50.7        0.5328     0.0179
     6.906     56.01       0.3846     0.0129
     6.906     62.02       0.3262     0.011
     6.906     69.36       0.2549 0.8564E-02
     6.906     74.73       0.2646 0.8889E-02
     6.906     80.77       0.2637 0.8858E-02
     6.906     85.46       0.263  0.8834E-02
     6.906     90.81       0.2323 0.7802E-02
     6.906    117.         0.3034     0.0102
     6.906    127.         0.2274 0.7640E-02
     7.509      9.592      1.037      0.3498
     7.509     13.53       0.6287     0.2848
     7.509     16.11       0.323      0.1463
     7.509     20.12       0.2965     0.084
     7.509     22.83       0.3495     0.0633
     7.509     26.17       0.3346     0.0606
     7.509     38.81       0.1781 0.6020E-02
     7.509     44.83       0.1567 0.5295E-02
     7.509     51.56       0.1842 0.6226E-02
     7.509     67.65       0.1824 0.6164E-02
     7.509     77.01       0.1473 0.4980E-02
     7.509     82.3        0.097  0.3277E-02
     7.509     86.37       0.1241 0.4193E-02
     7.509     91.72       0.1138 0.3847E-02
     7.509    108.6        0.1706 0.5766E-02
     7.509    119.3        0.1559 0.5271E-02
     7.509    127.9        0.126  0.4260E-02
     7.509    137.4        0.1608 0.5433E-02
     8.107      8.408      0.6219     0.2346
     8.107     11.64       0.2474     0.0781
     8.107     14.57       0.235      0.0472
     8.107     18.12       0.1774     0.0359
     8.107     21.19       0.2217     0.0449
     8.107     25.45       0.1596     0.0237
     8.107     38.55       0.108  0.4226E-02
     8.107     63.1        0.1555 0.6088E-02
     8.107     70.47       0.1534 0.6003E-02
     8.107     76.26       0.1207 0.4723E-02
     8.107     82.94       0.1305 0.5110E-02
     8.107     87.35       0.1237 0.4841E-02
     8.107     91.78       0.1226 0.4800E-02
     8.107     99.8        0.1006 0.3936E-02
     8.107    104.1        0.0758 0.2967E-02
     8.107    110.1        0.0942 0.3687E-02
     8.107    119.1        0.1112 0.4353E-02
     8.42       8.411      4.063      0.2137
     8.42      11.69       3.898      0.205
     8.42      14.31       3.434      0.1806
     8.42      17.6        2.899      0.1525
     8.42      20.89       2.448      0.1288
     8.42      24.83       2.068      0.1088
     8.42      36.68       0.8865     0.0466
     8.42      43.9        0.6598     0.0347
     8.42      49.79       0.6611     0.0348
     8.42      56.34       0.6351     0.0334
     8.42      62.26       0.4724     0.0248
     8.42      67.51       0.3666     0.0193
     8.42      74.72       0.31       0.0163
     8.42      79.33       0.2305     0.0121
     8.42      83.27       0.1866 0.9816E-02
     8.42      89.84       0.1512 0.7953E-02
     8.42      95.72       0.165  0.8678E-02
     8.42     101.         0.1035 0.5444E-02
     8.42     106.2        0.1397 0.7347E-02
     8.652      9.142      4.115      0.1749
     8.652     11.83       3.783      0.1608
     8.652     15.18       3.2        0.136
     8.652     17.85       2.708      0.1151
     8.652     22.56       2.486      0.1057
     8.652     38.64       1.219      0.0518
     8.652     44.67       0.9095     0.0387
     8.652     52.08       0.8335     0.0354
     8.652     64.85       0.57       0.0242
     8.652     70.88       0.4432     0.0188
     8.652     81.67       0.4224     0.018
     8.694      7.946      1.685      0.0698
     8.694     11.3        1.487      0.0615
     8.694     14.65       1.312      0.0543
     8.694     18.01       1.157      0.0479
     8.694     22.07       1.253      0.0519
     8.694     24.68       0.7643     0.0316
     8.694     38.12       0.5237     0.0217
     8.694     44.81       0.3604     0.0149
     8.694     52.2        0.2921     0.0121
     8.694     65.67       0.2457     0.0102
     8.694     71.75       0.255      0.0106
     8.694     82.53       0.2239 0.9267E-02
ENDDATA            221
ENDSUBENT          237
SUBENT        F0281004   19991202   20001115
BIB                  4          5
REACTION   (6-C-12(HE3,A)6-C-11,PAR,DA,,,EXP)
ERR-ANALYS (ANG-ERR) Digitizing error
           (DATA-ERR) From graphic and digitizing error
STATUS     (CURVE) Fig.5
EN-SEC     (E-LVL,6-C-11)
ENDBIB               5
COMMON               2          3
E-LVL      ANG-ERR
MEV        ADEG
  6.34       1.000
ENDCOMMON            3
DATA                 5        495
EN         E-LVL      ANG-CM     DATA       DATA-ERR
MEV        MEV        ADEG       MB/SR      MB/SR
     9.5        0.        13.1112    93.5642
     9.5        0.        18.4727    84.0181
     9.5        0.        25.3678    62.474
     9.5        0.        31.192     30.0933
     9.5        0.        37.6557    14.7758
     9.5        0.        43.6262    12.1036
     9.5        0.        48.605     15.2395
     9.5        0.        54.6539    16.5963
     9.5        0.        61.4131    13.3966
     9.5        0.        66.1137    10.9246
     9.5        0.        71.9336     9.2121
     9.5        0.        78.2716     9.0645
     9.5        0.        83.8262     9.2277
     9.5        0.        88.6867     7.561
     9.5        0.        93.5048     5.3087
     9.5        0.       100.8277     3.3174
     9.5        0.       107.0098     3.296
     9.5        0.       111.1999     4.2114
     9.5        0.       115.5247     4.933
     9.5        0.       120.461      5.3222
     9.5        0.       125.4947     4.5985
     9.5        0.       129.2454     3.7691
     9.5        0.       134.6388     3.8002
     9.5        0.       140.5331     4.1991
     9.5        0.       143.4349     4.9922
     9.5        0.       146.0248     6.0514
     9.5        0.       150.3256     6.4984
     9.5        0.       154.2974     6.6824
     9.5        0.       158.7262     6.4217
     9.5        0.       161.9237     7.0666
     9.5        1.995     13.6846     8.4582
     9.5        1.995     19.6939    10.523
     9.5        1.995     26.5882     8.8153
     9.5        1.995     32.9247     5.7314
     9.5        1.995     38.9907     2.8667
     9.5        1.995     45.0694     1.1687
     9.5        1.995     50.6046     0.2935
     9.5        1.995     56.7407     0.4767
     9.5        1.995     62.2964     0.8654
     9.5        1.995     69.0304     0.9507
     9.5        1.995     73.7657     0.9058
     9.5        1.995     79.6527     0.8038
     9.5        1.995     84.6922     0.5788
     9.5        1.995     90.552      0.7941
     9.5        1.995     96.1405     0.8493
     9.5        1.995    103.6049     0.7538
     9.5        1.995    108.7427     1.1203
     9.5        1.995    113.7394     1.6066
     9.5        1.995    117.8781     2.2136
     9.5        1.995    123.5926     3.1328
     9.5        1.995    127.1672     3.7107
     9.5        1.995    131.7466     4.3182
     9.5        1.995    136.1901     4.4567
     9.5        1.995    141.2186     3.8336
     9.5        1.995    144.8241     2.76
     9.5        1.995    148.3058     1.4493
     9.5        1.995    151.2333     0.5575
     9.5        1.995    155.8125     0.6516
     9.5        1.995    159.9097     1.7488
     9.5        1.995    163.5815     4.3518
     9.5        4.305     13.445      1.3771     0.1624
     9.5        4.305     20.8808     2.1173
     9.5        4.305     26.3087     2.3282
     9.5        4.305     33.7341     2.3024
     9.5        4.305     41.0412     2.1735
     9.5        4.305     46.4623     1.9212
     9.5        4.305     53.4435     2.3851
     9.5        4.305     59.1559     2.6721
     9.5        4.305     65.7824     2.8855
     9.5        4.305     71.5702     2.8784
     9.5        4.305     77.5243     2.7925
     9.5        4.305     83.5417     2.4575
     9.5        4.305     89.1262     2.1224
     9.5        4.305     95.0134     1.8164
     9.5        4.305     99.9594     1.6816
     9.5        4.305    106.9639     1.602
     9.5        4.305    112.6281     1.9332
     9.5        4.305    117.1269     2.2573
     9.5        4.305    122.0434     2.7488
     9.5        4.305    126.8479     3.1655
     9.5        4.305    130.9649     3.3522
     9.5        4.305    135.3665     3.6168
     9.5        4.305    139.2139     3.6729
     9.5        4.305    143.5395     3.5446
     9.5        4.305    147.0143     3.2194
     9.5        4.305    150.1834     2.9646
     9.5        4.305    154.7025     2.6687
     9.5        4.305    159.5754     2.1997
     9.5        4.305    163.3837     2.3728
     9.5        4.794     13.5812     5.5955
     9.5        4.794     21.0973     6.9252
     9.5        4.794     28.8801     6.9325
     9.5        4.794     35.1805     6.2259
     9.5        4.794     41.4295     3.7412
     9.5        4.794     48.562      2.2893
     9.5        4.794     53.1438     0.9161
     9.5        4.794     60.6051     0.7384
     9.5        4.794     66.5169     0.9955
     9.5        4.794     72.4132     1.1881
     9.5        4.794     78.1615     1.4052
     9.5        4.794     83.4698     1.6694
     9.5        4.794     89.9361     1.7401
     9.5        4.794     96.3932     1.6875
     9.5        4.794    101.2195     1.4483
     9.5        4.794    107.9264     0.9966
     9.5        4.794    113.1995     0.8989
     9.5        4.794    118.4928     0.9496
     9.5        4.794    123.0813     1.2629
     9.5        4.794    127.5299     1.7729
     9.5        4.794    131.8155     2.1932
     9.5        4.794    136.4046     2.9298
     9.5        4.794    140.1        3.5433
     9.5        4.794    143.7867     4.0046
     9.5        4.794    148.0503     4.1731
     9.5        4.794    152.1614     4.1566
     9.5        4.794    156.1193     3.9395
     9.5        4.794    158.6006     3.5044
     9.5        4.794    161.523      3.1316
     9.5        4.794    165.0196     2.5226
     9.5        6.34      13.6071     8.746
     9.5        6.34      21.2041     6.0866
     9.5        6.34      28.759      3.4936
     9.5        6.34      35.924      1.4108
     9.5        6.34      41.9872     0.5563     0.0743
     9.5        6.34      51.316      0.0957     0.0145
     9.5        6.48      14.3322     0.5682     0.0658
     9.5        6.48      21.6325     0.634      0.0765
     9.5        6.48      29.1601     0.8412     0.1102
     9.5        6.48      36.6262     0.6086     0.0829
     9.5        6.48      43.6101     0.7205     0.1019
     9.5        6.48      50.9802     0.6699
     9.5        6.91      15.1934     4.3385
     9.5        6.91      24.1069     3.5781
     9.5        6.91      31.4537     3.0098
     9.5        6.91      38.7853     2.351
     9.5        6.91      47.0331     1.615
    10.5        0.        14.2282    27.5192
    10.5        0.        20.274     28.8767
    10.5        0.        27.3988    20.6441
    10.5        0.        32.9105     7.3161
    10.5        0.        39.3826     2.6442
    10.5        0.        44.7301     4.6351
    10.5        0.        51.382      8.7521
    10.5        0.        57.9155     9.4142
    10.5        0.        62.5344     7.1496
    10.5        0.        69.4125     4.2726
    10.5        0.        73.5585     3.2615
    10.5        0.        79.9556     3.6691
    10.5        0.        84.9633     4.4496
    10.5        0.        89.9751     3.9429
    10.5        0.        95.3544     2.8061
    10.5        0.       102.1884     1.5332
    10.5        0.       107.2263     1.0382
    10.5        0.       112.3949     1.2653
    10.5        0.       118.4506     1.3545
    10.5        0.       122.693      1.7354
    10.5        0.       126.977      2.4199
    10.5        0.       131.0952     3.3246
    10.5        0.       132.5197     4.5707
    10.5        0.       137.0717     5.7689
    10.5        0.       142.4273     5.3994
    10.5        0.       148.3776     4.6657
    10.5        0.       152.263      3.994
    10.5        0.       155.9892     2.4737
    10.5        0.       159.8175     3.59
    10.5        0.       166.0642     5.6668
    10.5        1.995     13.8195     5.4596
    10.5        1.995     19.6734     7.5335
    10.5        1.995     26.4021     8.1337
    10.5        1.995     32.727      5.7729
    10.5        1.995     39.2019     3.6812
    10.5        1.995     45.84       1.7024
    10.5        1.995     51.0308     0.9972
    10.5        1.995     56.3221     1.1613
    10.5        1.995     63.4479     2.1229
    10.5        1.995     69.0311     2.2714
    10.5        1.995     74.0559     1.9183
    10.5        1.995     79.9472     1.4492
    10.5        1.995     85.1255     1.0376
    10.5        1.995     90.5831     0.8344
    10.5        1.995     96.3247     0.6985
    10.5        1.995    103.4655     1.0034
    10.5        1.995    108.8896     1.3845
    10.5        1.995    113.8803     2.0244
    10.5        1.995    118.4584     2.2444
    10.5        1.995    124.0448     2.2762
    10.5        1.995    127.9155     2.1876
    10.5        1.995    131.7977     1.7431
    10.5        1.995    135.864      7.2402
    10.5        1.995    136.5504     1.1672
    10.5        1.995    140.7494     0.5719
    10.5        1.995    141.0697     3.3328
    10.5        1.995    143.6479     0.3349
    10.5        1.995    143.7308     8.8982
    10.5        1.995    147.6613     0.3247
    10.5        1.995    151.8916     0.9652
    10.5        1.995    155.9997     2.0436
    10.5        1.995    159.1194     3.4306
    10.5        1.995    162.6769     5.0601
    10.5        4.305     14.6473     3.0115     0.6637
    10.5        4.305     21.7041     3.5328     0.529
    10.5        4.305     27.5481     4.2992
    10.5        4.305     34.6757     5.7688
    10.5        4.305     42.0258     8.8135
    10.5        4.305     46.8576    13.1468
    10.5        4.305     54.2616    18.3084
    10.5        4.305     60.1513    20.5933
    10.5        4.305     66.9373    23.0626
    10.5        4.305     72.8944    23.1043
    10.5        4.305     77.8763    20.6085
    10.5        4.305     84.3745    17.5582
    10.5        4.305     89.9871    14.749
    10.5        4.305     94.9879    12.7361
    10.5        4.305    101.0562    13.6145
    10.5        4.305    107.8503    15.0366
    10.5        4.305    112.6517    18.2931
    10.5        4.305    117.6513    26.4178
    10.5        4.305    122.5693    33.9777
    10.5        4.305    127.3869    40.2032
    10.5        4.305    131.79      44.9914
    10.5        4.305    136.0793    47.4053
    10.5        4.305    139.7674    50.4044
    10.5        4.305    144.5304    50.7116
    10.5        4.305    148.2859    48.0239
    10.5        4.305    151.6269    43.0138
    10.5        4.305    154.3777    38.1643
    10.5        4.305    156.5677    31.8768
    10.5        4.305    161.1729    25.2039
    10.5        4.305    165.0605    19.0215
    10.5        4.794     13.4773     3.6384
    10.5        4.794     19.6219     4.6715
    10.5        4.794     26.6686     5.1347
    10.5        4.794     33.1577     4.439
    10.5        4.794     39.368      3.4034
    10.5        4.794     46.0728     1.7183
    10.5        4.794     52.9591     0.6615
    10.5        4.794     60.5184     0.4154
    10.5        4.794     64.9734     0.9376
    10.5        4.794     71.6592     1.7411
    10.5        4.794     77.6539     2.2858
    10.5        4.794     83.246      2.2178
    10.5        4.794     88.26       1.9862
    10.5        4.794     94.6196     1.496
    10.5        4.794     99.3701     1.0539
    10.5        4.794    106.7767     0.6917
    10.5        4.794    112.1985     0.8053
    10.5        4.794    117.6429     0.7848
    10.5        4.794    121.4788     0.7122
    10.5        4.794    126.4758     0.7288
    10.5        4.794    130.1301     0.8673
    10.5        4.794    134.3602     1.1382
    10.5        4.794    139.1688     1.6112
    10.5        4.794    143.4005     2.0865
    10.5        4.794    146.4638     2.5386
    10.5        4.794    150.1152     3.0889
    10.5        4.794    154.0772     3.304
    10.5        4.794    157.1637     3.3501
    10.5        4.794    160.8446     3.2351
    10.5        4.794    163.9531     2.7581
    10.5        6.34      12.9397     0.5294
    10.5        6.34      20.8778     0.249
    10.5        6.34      27.8539     0.0845
    10.5        6.34      35.6149     0.0294
    10.5        6.34      42.4075     0.0675
    10.5        6.34      48.5575     0.1224
    10.5        6.34      55.9127     0.1094
    10.5        6.34      63.5542     0.0658
    10.5        6.34      68.9736     0.0258
    10.5        6.34      75.3861     0.0222
    10.5        6.48      13.2162     0.4605
    10.5        6.48      21.6977     0.7047
    10.5        6.48      28.8685     1.049
    10.5        6.48      35.8529     1.2331
    10.5        6.48      43.287      1.4228
    10.5        6.48      49.9001     1.4354
    10.5        6.48      56.0742     1.4415
    10.5        6.48      63.4352     1.4143
    10.5        6.48      70.5593     1.2246
    10.5        6.48      75.6563     0.9893
    10.5        6.91      14.7485     0.6154
    10.5        6.91      23.0914     1.0313
    10.5        6.91      30.487      1.5094
    10.5        6.91      38.1842     1.5481
    10.5        6.91      44.9372     1.5102
    10.5        6.91      52.6236     1.1411
    10.5        6.91      58.7368     0.8038
    10.5        6.91      65.7898     0.5252
    10.5        7.51      15.6486     2.3221
    10.5        7.51      23.031      2.5849
    10.5        7.51      31.1562     2.6837
    10.5        7.51      38.2032     2.2916
    10.5        7.51      45.6989     1.9208
    10.5        7.51      53.317      1.2999
    11.5        0.        10.9852    35.6822
    11.5        0.        17.1555    25.3371
    11.5        0.        24.2632    12.6091
    11.5        0.        29.6299     6.7864
    11.5        0.        35.0153     5.8841
    11.5        0.        42.1596     7.4168
    11.5        0.        48.0318     8.5262
    11.5        0.        54.0549     8.0678
    11.5        0.        59.755      6.5658
    11.5        0.        66.8844     5.6623
    11.5        0.        72.116      5.5448
    11.5        0.        76.8779     6.3145
    11.5        0.        82.5833     5.8889
    11.5        0.        87.3271     4.2242
    11.5        0.        93.8099     2.6687
    11.5        0.        99.5081     2.0687
    11.5        0.       104.7397     2.0258
    11.5        0.       109.8063     1.6813
    11.5        0.       114.7103     1.26
    11.5        0.       120.738      1.3399
    11.5        0.       124.4063     2.3082
    11.5        0.       129.1826     3.7863
    11.5        0.       133.7951     5.4466
    11.5        0.       137.765      6.326
    11.5        0.       141.4034     5.1015
    11.5        0.       145.1937     3.4696
    11.5        0.       149.304      2.5382
    11.5        0.       153.4232     2.3339
    11.5        0.       157.2437     3.424
    11.5        0.       161.8607     5.5086
    11.5        1.995     13.5363     2.1933
    11.5        1.995     18.8219     2.5287
    11.5        1.995     25.6996     2.5759
    11.5        1.995     31.6914     3.2307
    11.5        1.995     38.2621     3.8767
    11.5        1.995     45.8846     3.1511
    11.5        1.995     51.7932     2.439
    11.5        1.995     56.6929     1.9731
    11.5        1.995     63.0309     1.5341
    11.5        1.995     68.6517     1.1979
    11.5        1.995     73.9694     1.0683
    11.5        1.995     79.6773     1.3105
    11.5        1.995     85.088      1.7486
    11.5        1.995     90.3896     1.7731
    11.5        1.995     95.871      1.3423
    11.5        1.995    101.7933     0.9301
    11.5        1.995    108.3971     0.8557
    11.5        1.995    113.202      1.4825
    11.5        1.995    117.5978     2.1707
    11.5        1.995    122.749      2.3314
    11.5        1.995    126.7904     1.861
    11.5        1.995    131.0121     1.1042
    11.5        1.995    147.1881     1.3031
    11.5        1.995    151.2824     2.1502
    11.5        1.995    154.5322     3.1341
    11.5        1.995    158.6541     4.1444
    11.5        1.995    162.6431     5.0382
    11.5        4.305     13.702      5.6252
    11.5        4.305     21.6238     4.1327
    11.5        4.305     26.8205     3.2977
    11.5        4.305     33.3406     3.2898
    11.5        4.305     41.1149     3.6702
    11.5        4.305     47.3982     4.15
    11.5        4.305     53.9347     4.045
    11.5        4.305     60.1386     3.3667
    11.5        4.305     66.3162     2.9081
    11.5        4.305     71.332      2.4306
    11.5        4.305     76.4101     1.8601
    11.5        4.305     82.9171     1.8904
    11.5        4.305     87.3206     1.6243
    11.5        4.305     93.7285     1.2494
    11.5        4.305     99.0174     1.0789
    11.5        4.305    103.7205     0.9229
    11.5        4.305    111.0636     1.0105
    11.5        4.305    116.8008     1.3192
    11.5        4.305    120.3787     1.5756
    11.5        4.305    125.6847     2.0188
    11.5        4.305    130.059      2.2288
    11.5        4.305    132.8172     2.4141
    11.5        4.305    136.474      2.5795
    11.5        4.305    141.3682     2.5599
    11.5        4.305    145.9366     2.6486
    11.5        4.305    150.3733     2.6774
    11.5        4.305    154.0563     2.7565
    11.5        4.305    156.9758     2.9309
    11.5        4.305    159.7439     3.1307
    11.5        4.305    163.5751     3.2233
    11.5        4.794      5.7105     0.4147
    11.5        4.794     14.873      9.1303
    11.5        4.794     21.9637    12.3673
    11.5        4.794     27.5232    10.3165
    11.5        4.794     34.4967     5.5929
    11.5        4.794     41.2471     1.6713
    11.5        4.794     47.1234     0.529
    11.5        4.794     54.1552     1.4272
    11.5        4.794     60.5084     1.8905
    11.5        4.794     66.3714     1.7009
    11.5        4.794     72.5967     0.8287
    11.5        4.794     78.3225     0.8041
    11.5        4.794     83.6342     0.9614
    11.5        4.794     89.2369     1.1243
    11.5        4.794     94.6216     0.7543
    11.5        4.794     99.8537     0.484
    11.5        4.794    112.989      0.7736
    11.5        4.794    117.6235     1.4489
    11.5        4.794    122.6647     2.0787
    11.5        4.794    127.3871     2.4522
    11.5        4.794    131.491      2.2753
    11.5        4.794    135.4453     2.0647
    11.5        4.794    139.9855     1.8489
    11.5        4.794    143.0491     1.5624
    11.5        4.794    147.5762     1.2632
    11.5        4.794    151.7029     1.4001
    11.5        4.794    155.3644     1.2818
    11.5        4.794    158.3113     1.3708
    11.5        4.794    161.2399     1.2717
    11.5        4.794    166.0876     1.2671
    11.5        6.34       9.4545     0.4813
    11.5        6.34      17.3309     0.2413
    11.5        6.34      23.5499     0.0941
    11.5        6.34      31.4697     0.0402
    11.5        6.34      36.9742     0.0682
    11.5        6.34      44.527      0.1121
    11.5        6.34      51.5558     0.126
    11.5        6.34      57.4302     0.0979
    11.5        6.34      64.508      0.0517
    11.5        6.34      71.7064     0.0554
    11.5        6.34      76.6841     0.0649 0.8907E-02
    11.5        6.34      81.5554     0.1124     0.0167
    11.5        6.34      87.5923     0.1521     0.0237
    11.5        6.34      93.6741     0.1745     0.0272
    11.5        6.34      99.753      0.1138     0.0169
    11.5        6.34     104.4155     0.0753     0.0111
    11.5        6.34     110.9553     0.0509     0.0224
    11.5        6.34     116.4892     0.0245     0.0132
    11.5        6.34     121.1027     0.0614     0.0226
    11.5        6.34     125.9208     0.0727     0.0238
    11.5        6.34     129.6292     0.0897     0.0203
    11.5        6.34     134.2511     0.1226     0.0283
    11.5        6.34     138.1669     0.1257     0.031
    11.5        6.34     142.5745     0.1193     0.0294
    11.5        6.34     145.2406     0.2131     0.0541
    11.5        6.48      14.9044     0.7214
    11.5        6.48      22.1375     1.0157
    11.5        6.48      29.8811     1.1482
    11.5        6.48      36.9427     1.1024
    11.5        6.48      43.0857     1.1902
    11.5        6.48      49.2156     1.3386
    11.5        6.48      56.2986     1.904
    11.5        6.48      63.7209     2.3476
    11.5        6.48      70.0498     2.2423
    11.5        6.48      75.6803     1.9142
    11.5        6.48      80.8589     1.6936     0.2029
    11.5        6.48      86.8532     1.1608     0.1597
    11.5        6.48      93.9049     1.1491     0.1531
    11.5        6.48      99.0526     1.1202     0.1689
    11.5        6.48     103.4598     1.7647     0.2194
    11.5        6.48     109.1379     2.0569     0.3161
    11.5        6.48     115.7637     1.9447     0.4227
    11.5        6.48     120.9964     2.3017     0.5186
    11.5        6.48     125.9386     2.6966     0.6182
    11.5        6.48     130.5331     2.3615     0.5413
    11.5        6.48     134.7655     2.5626     0.6075
    11.5        6.48     138.8494     2.7951     0.6508
    11.5        6.48     141.8647     3.4637     0.8346
    11.5        6.48     145.7123     5.0027     1.0873
    11.5        6.48     149.9333     5.6264     1.2003
    11.5        6.91      17.9682     1.2563
    11.5        6.91      26.1966     1.88
    11.5        6.91      32.5132     2.4059
    11.5        6.91      39.6043     2.9505
    11.5        6.91      47.4305     2.8553
    11.5        6.91      53.8109     2.3187
    11.5        6.91      59.0802     1.7537
    11.5        6.91      67.3077     1.2124
    11.5        6.91      73.6911     0.9986
    11.5        6.91      79.0136     0.9801
    11.5        6.91      84.9791     1.0427
    11.5        6.91      91.7009     0.9715
    11.5        6.91      97.0205     0.94
    11.5        6.91     103.1157     0.8758
    11.5        6.91     108.7931     1.0538
    11.5        6.91     114.2983     1.1755
    11.5        6.91     119.5019     1.3878
    11.5        6.91     125.1773     1.6542
    11.5        6.91     130.0618     1.8982
    11.5        6.91     135.0758     1.9077
    11.5        6.91     139.3036     1.8901
    11.5        6.91     143.2182     1.8726
    11.5        6.91     146.8174     1.8378
    11.5        6.91     150.2745     1.9364
    11.5        6.91     154.6638     1.9645
    11.5        7.51      15.5624     0.2117
    11.5        7.51      22.6713     0.4441
    11.5        7.51      29.7537     0.621
    11.5        7.51      36.9946     0.9849
    11.5        7.51      44.8227     1.2665
    11.5        7.51      51.8806     1.2141
    11.5        7.51      59.0847     1.0955
    11.5        7.51      65.8226     0.7794
    11.5        7.51      72.5557     0.5146
    11.5        7.51      79.1453     0.3765
ENDDATA            497
ENDSUBENT          511
SUBENT        F0281005   19991202   20001115
BIB                  6          7
REACTION   (6-C-12(HE3,INL)6-C-12,PAR,DA,,,EXP)
METHOD     (PHD)
DETECTOR   (SOLST)
ERR-ANALYS (ANG-ERR) Digitizing error
           (DATA-ERR) From graphic and digitizing error
STATUS     (CURVE) Fig.6
EN-SEC     (E-LVL,6-C-12)
ENDBIB               7
COMMON               1          3
ANG-ERR
ADEG
  1.000
ENDCOMMON            3
DATA                 5        174
E-LVL      EN         ANG-CM     DATA       DATA-ERR
MEV        MEV        ADEG       MB/SR      MB/SR
     0.         9.5       11.7163     0.8572     0.1248
     0.         9.5       18.2906     0.8072
     0.         9.5       23.7429     0.8978
     0.         9.5       31.634      0.6292
     0.         9.5       35.5939     0.4005
     0.         9.5       43.5056     0.2639
     0.         9.5       49.1588     0.402
     0.         9.5       55.6887     0.6869
     0.         9.5       60.9335     0.9027
     0.         9.5       68.2431     0.9219
     0.         9.5       72.5957     0.7135
     0.         9.5       77.4795     0.4414
     0.         9.5       81.8213     0.2225
     0.         9.5       87.3274     0.1325
     0.         9.5       93.2652     0.1353
     0.         9.5       98.5777     0.1448
     0.         9.5      104.8235     0.1465
     0.         9.5      109.5234     0.0997
     0.         9.5      115.8054     0.0903
     0.         9.5      119.8889     0.158
     0.         9.5      124.7139     0.294
     0.         9.5      128.4078     0.4187
     0.         9.5      132.306      0.5097
     0.         9.5      137.166      0.5378
     0.         9.5      141.4477     0.5159
     0.         9.5      144.8229     0.483
     0.         9.5      149.2006     0.3464
     0.         9.5      152.6907     0.229
     0.         9.5      156.0929     0.1245
     0.         9.5      162.3371     0.1265
     0.        10.5       12.2259     0.6559     0.1048
     0.        10.5       19.5364     0.6862
     0.        10.5       25.1735     0.7006
     0.        10.5       31.4675     0.5
     0.        10.5       36.5592     0.3135
     0.        10.5       44.6748     0.2371
     0.        10.5       50.2544     0.3739
     0.        10.5       56.292      0.5869
     0.        10.5       61.7602     0.6784
     0.        10.5       68.7754     0.6606
     0.        10.5       73.3833     0.5062
     0.        10.5       78.766      0.3527
     0.        10.5       82.4739     0.2421
     0.        10.5       88.4978     0.1328
     0.        10.5       94.984      0.0702
     0.        10.5       98.874      0.0385
     0.        10.5      105.1609     0.092
     0.        10.5      109.9564     0.1714
     0.        10.5      116.574      0.3368
     0.        10.5      121.0981     0.4872
     0.        10.5      126.2545     0.5935
     0.        10.5      129.9177     0.5718
     0.        10.5      132.8238     0.5302
     0.        10.5      137.7095     0.499
     0.        10.5      141.6812     0.4673
     0.        10.5      145.7998     0.4568
     0.        10.5      150.0543     0.5056
     0.        10.5      153.3893     0.5813
     0.        10.5      156.9347     0.4307
     0.        10.5      162.9912     0.5858
     0.        11.5       11.9003     0.6696     0.0972
     0.        11.5       19.3433     0.7629
     0.        11.5       25.4486     0.7322
     0.        11.5       31.7639     0.5257
     0.        11.5       36.9363     0.2567
     0.        11.5       44.9122     0.1999
     0.        11.5       50.1278     0.3646
     0.        11.5       56.4633     0.5096
     0.        11.5       62.4095     0.5056
     0.        11.5       68.5478     0.4108
     0.        11.5       72.9953     0.3583
     0.        11.5       77.9256     0.2749
     0.        11.5       84.5543     0.1891
     0.        11.5       88.2926     0.1264
     0.        11.5       94.397      0.1218
     0.        11.5       99.3959     0.3071
     0.        11.5      105.1872     0.6647
     0.        11.5      110.383      1.3396
     0.        11.5      115.9969     1.5256
     0.        11.5      121.1924     1.4294
     0.        11.5      126.2742     1.1019
     0.        11.5      129.0602     0.8902
     0.        11.5      133.6271     0.9171
     0.        11.5      138.1581     1.1321
     0.        11.5      142.5452     1.3389
     0.        11.5      146.8195     1.2966
     0.        11.5      149.7769     0.9525
     0.        11.5      153.7055     0.5261
     0.        11.5      156.6049     0.2402
     0.        11.5      161.6054     0.2787
     4.439      9.5       21.8576     0.8702     0.207
     4.439      9.5       28.6528     1.4553     0.4709
     4.439      9.5       37.3774     1.4139     0.15
     4.439      9.5       41.9343     1.471      0.1446
     4.439      9.5       48.5864     1.4104
     4.439      9.5       55.2199     1.4614
     4.439      9.5       60.8931     1.4627
     4.439      9.5       67.001      1.349
     4.439      9.5       73.0987     1.2989     0.4063
     4.439      9.5       78.7988     1.1622     0.3496
     4.439      9.5       84.0838     1.0398
     4.439      9.5       90.2001     0.9264
     4.439      9.5       96.5921     0.829
     4.439      9.5      101.8999     0.6746
     4.439      9.5      108.0276     0.5732
     4.439      9.5      113.3095     0.5195
     4.439      9.5      118.8485     0.5111
     4.439      9.5      122.9809     0.5527
     4.439      9.5      127.6596     0.616
     4.439      9.5      132.33       0.7108
     4.439      9.5      136.165      0.8378
     4.439      9.5      140.8478     0.9179
     4.439      9.5      146.1142     0.8875
     4.439      9.5      151.6407     0.9195
     4.439     10.5       15.8888     0.0722     0.03
     4.439     10.5       23.3887     0.1171     0.0159
     4.439     10.5       30.7424     0.1655     0.0497
     4.439     10.5       35.8783     0.2191     0.0228
     4.439     10.5       43.0515     0.1483     0.0133
     4.439     10.5       50.7937     0.1317     0.0125
     4.439     10.5       56.0483     0.1236
     4.439     10.5       62.5493     0.118
     4.439     10.5       67.6603     0.1011
     4.439     10.5       73.7447     0.0941
     4.439     10.5       79.4157     0.0903
     4.439     10.5       85.0882     0.0888
     4.439     10.5       90.216      0.102
     4.439     10.5       96.3065     0.1057
     4.439     10.5      101.0123     0.1077
     4.439     10.5      110.1449     0.1074
     4.439     10.5      114.1605     0.1127
     4.439     10.5      119.144      0.1168
     4.439     10.5      123.2884     0.1036
     4.439     10.5      127.847      0.0903
     4.439     10.5      133.0952     0.0758
     4.439     10.5      137.1044     0.0711
     4.439     10.5      141.2547     0.07
     4.439     10.5      145.5454     0.0712
     4.439     10.5      149.2825     0.0725
     4.439     10.5      153.1652     0.0837
     4.439     10.5      155.9436     0.1011
     4.439     10.5      159.1366     0.1213
     4.439     10.5      164.1265     0.1405
     4.439     10.5      166.355      0.1812
     4.439     11.5       15.7341     0.1627     0.0307
     4.439     11.5       23.2168     0.1889     0.018
     4.439     11.5       29.3137     0.19       0.0611
     4.439     11.5       35.5491     0.1683     0.0178
     4.439     11.5       42.7546     0.1746     0.0167
     4.439     11.5       48.1584     0.1266     0.0127
     4.439     11.5       54.6712     0.1562
     4.439     11.5       60.7682     0.183
     4.439     11.5       67.6965     0.2035
     4.439     11.5       73.2393     0.2489
     4.439     11.5       79.3362     0.2592
     4.439     11.5       84.186      0.2517
     4.439     11.5       89.0358     0.2229
     4.439     11.5       95.2712     0.1967
     4.439     11.5      101.5065     0.149
     4.439     11.5      106.079      0.1179
     4.439     11.5      113.2843     0.0889
     4.439     11.5      118.2726     0.0771
     4.439     11.5      122.8454     0.0906
     4.439     11.5      127.141      0.1016
     4.439     11.5      131.5751     0.1134
     4.439     11.5      136.425      0.1277
     4.439     11.5      140.1664     0.1388
     4.439     11.5      144.8777     0.1516
     4.439     11.5      149.3118     0.1677
     4.439     11.5      152.4989     0.1831
     4.439     11.5      156.3788     0.1898
     4.439     11.5      160.3972     0.1975
     4.439     11.5      163.4458     0.2243
     4.439     11.5      167.6027     0.2284
ENDDATA            176
ENDSUBENT          192
SUBENT        F0281006   19991202   20001115
BIB                  5          5
REACTION   (5-B-10(HE3,EL)5-B-10,,DA,,,EXP)
METHOD     (PHD)
DETECTOR   (SOLST)
ERR-ANALYS (ANG-ERR) Digitizing error
STATUS     (CURVE) Fig.7
ENDBIB               5
COMMON               2          3
EN         ANG-ERR
MEV        ADEG
  11.0       1.000
ENDCOMMON            3
DATA                 2         15
ANG-CM     DATA
ADEG       MB/SR
    21.5188     0.7614
    24.861      0.8867
    37.2106     0.3723
    43.8669     0.1474
    50.0579     0.2768
    56.3647     0.4447
    61.6939     0.5204
    67.8512     0.466
    74.1309     0.3445
    79.5463     0.2546
    84.9787     0.2725
    90.4228     0.274
    95.9038     0.3585
   101.3117     0.2758
   106.6225     0.356
ENDDATA             17
ENDSUBENT           31
ENDENTRY             6
