ENTRY            21751     840416
SUBENT        21751001     840416              20050926       0000
BIB                 15         41
INSTITUTE  (2JPNKTO) EXPERIMENTAL SITE AND BOTH AUTHORS.
REFERENCE  (J,NST,18,(9),739,8109)
AUTHOR     (M.UTSURO,N.MORISHIMA)
TITLE      -TOTAL NEUTRON CROSS SECTION IN HEAVY ICE
            AT 77 AND 15 K FOR NEUTRON ENERGIES
            BETWEEN 0.3 AND 100 MILLI-EV
FACILITY   (LINAC) 46 MEV ELECTRON LINAC OF KYOTO UNIVERSITY
INC-SOURCE (PHOTO) USING A TANTALUM TARGET.
            FAST NEUTRONS PRODUCED IN 3 MICRO-SEC BURSTS
            WITH REPETITION FREQUENCY 50 HERTZ, AND
            MODERATED BY A SLAB OF SOLID MESITYLENE AT A
            TEMPERATURE OF 15 K. MEAN EMISSION TIME OF COLD
            NEUTRONS = 160+-20 MICRO-SEC.
INC-SPECT  .MAXWELLIAN, APPROXIMATE NEUTRON TEMPERATURE = 40K
SAMPLE     .20 MM THICK HEAVY ICE ,IOTOPIC PURITY
            GREATER THAN 99.8 PER CENT, KEPT
            AT 77K BY LIQUID NITROGEN COOLING, OR AT
            15K BY LIQUID NITROGEN AND HELIUM COOLING.
           .SAMPLE IN ALUMINIUM CONTAINER.
METHOD     (TOF  ) TIME OF FLIGHT NEUTRON SPECTRUM MEASURED
            WITH THE HEAVY ICE SAMPLE IN POSITION, AND
            WITH AN EMPTY CONTAINER IN PLACE OF
            THE SAMPLE
           .EXPERIMENT PERFORMED FOR TWO SAMPLE TEMPERATURES
           .CALCULATED CROSS SECTION NORMALISED, AT HIGH
            NEUTRON ENERGIES, TO THE HEAVY WATER FREE ATOM
            TOTAL CROSS SECTION.
DETECTOR   (BF3  )  10 CM THICK
MONITOR    (1-H-D2O(N,TOT),,SIG) FREE ATOM VALUE
STATUS     .DATA TAKEN FROM REFERENCE.
HISTORY    (820125C) A.P.T.
           (820217E)
           (820302A) MAIN REFERENCE CORRECTED A.P.T.
           (820921E)
           (840106U) A.P.T. JAPAN CODE CHANGED TO JPN
           (840106E)
CORRECTION .EMPTY CONTAINER AND SAMPLE SWAPPED EVERY
            10 MINUTES TO CORRECT FOR LONG TERM CHANGES IN
            THE NEUTRON SOURCE.
ERR-ANALYS .DETAILED ORIGIN OF ERRORS
            NOT STATED IN REFERENCE.
ENDBIB              41
COMMON               1          3
MONIT
B
 1.0500E+01
ENDCOMMON            3
ENDSUBENT           48
SUBENT        21751002     820217              20050926       0000
BIB                  3          4
REACTION   (1-H-D2O(N,TOT),,SIG) HEAVY ICE AT 77K
STATUS     .DATA TAKEN FROM REFERENCE.
HISTORY    (820125C)A.P.T.
           (820217E)
ENDBIB               4
COMMON               1          3
EN-RSL
PER-CENT
 6.0000E+00
ENDCOMMON            3
DATA                 3         60
EN         DATA       DATA-ERR
MILLI-EV   B          B
 2.5500E-01 6.3500E+00 7.7000E-01
 2.8900E-01 8.1100E+00 6.3000E-01
 3.2500E-01 6.5400E+00 6.6000E-01
 3.5700E-01 5.9000E+00 6.3000E-01
 3.9400E-01 6.1300E+00 5.1000E-01
 4.3800E-01 5.8400E+00 4.5000E-01
 4.8900E-01 5.2100E+00 3.8000E-01
 5.5100E-01 4.8900E+00 3.3000E-01
 6.0300E-01 5.8600E+00 4.4000E-01
 6.4400E-01 4.8600E+00 4.0000E-01
 6.8800E-01 5.6400E+00 3.7000E-01
 7.3700E-01 5.3000E+00 3.3000E-01
 7.9200E-01 5.2000E+00 2.9000E-01
 8.5200E-01 5.5400E+00 2.6000E-01
 9.2000E-01 5.6900E+00 2.4000E-01
 9.9700E-01 5.0000E+00 2.1000E-01
 1.0800E+00 5.3200E+00 1.9000E-01
 1.1800E+00 5.1900E+00 1.7000E-01
 1.2900E+00 5.2700E+00 1.6000E-01
 1.4200E+00 6.1600E+00 1.4000E-01
 1.5700E+00 7.1700E+00 1.3000E-01
 1.7500E+00 6.8400E+00 1.2000E-01
 1.9500E+00 6.5100E+00 1.0000E-01
 2.1900E+00 6.2100E+00 9.0000E-02
 2.4100E+00 6.4300E+00 1.2000E-01
 2.5700E+00 6.5200E+00 1.1000E-01
 2.7400E+00 6.5300E+00 1.1000E-01
 2.9400E+00 6.6300E+00 1.0000E-01
 3.1600E+00 6.8600E+00 1.0000E-01
 3.4000E+00 7.2600E+00 9.0000E-02
 3.6700E+00 7.5900E+00 9.0000E-02
 3.9700E+00 8.1900E+00 9.0000E-02
 4.3200E+00 9.2800E+00 9.0000E-02
 4.7100E+00 1.0200E+01 1.0000E-01
 5.1600E+00 1.1800E+01 1.0000E-01
 5.6700E+00 1.3400E+01 1.0000E-01
 6.0200E+00 1.4400E+01 1.0000E-01
 6.3900E+00 1.5700E+01 1.0000E-01
 6.9600E+00 1.4500E+01 1.0000E-01
 7.7700E+00 1.3700E+01 1.0000E-01
 8.7400E+00 1.3100E+01 1.0000E-01
 9.6400E+00 1.2600E+01 1.0000E-01
 1.0400E+01 1.2600E+01 1.0000E-01
 1.1300E+01 1.1900E+01 1.0000E-01
 1.2300E+01 1.2600E+01 1.0000E-01
 1.3400E+01 1.3100E+01 1.0000E-01
 1.4700E+01 1.2400E+01 1.0000E-01
 1.6200E+01 1.1600E+01 1.0000E-01
 1.7900E+01 1.1400E+01 1.0000E-01
 1.9900E+01 1.1600E+01 1.0000E-01
 2.2300E+01 1.2800E+01 1.0000E-01
 2.5100E+01 1.3800E+01 1.0000E-01
 2.8500E+01 1.3100E+01 1.0000E-01
 3.2600E+01 1.2800E+01 1.0000E-01
 3.7700E+01 1.2700E+01 1.0000E-01
 4.4100E+01 1.2100E+01 1.0000E-01
 5.2200E+01 1.1800E+01 1.0000E-01
 6.2900E+01 1.2200E+01 2.0000E-01
 7.7100E+01 1.2400E+01 2.0000E-01
 9.6800E+01 1.2000E+01 2.0000E-01
ENDDATA             62
ENDSUBENT           75
SUBENT        21751003     820217              20050926       0000
BIB                  3          4
REACTION   (1-H-D2O(N,TOT),,SIG) HEAVY ICE AT 15 K
STATUS     .DATA TAKEN FROM REFERENCE.
HISTORY    (820125C) A.P.T.
           (820217E)
ENDBIB               4
COMMON               1          3
EN-RSL
PER-CENT
 6.0000E+00
ENDCOMMON            3
DATA                 3         60
EN         DATA       DATA-ERR
MILLI-EV   B          B
 2.5500E-01 4.7700E+00 5.9000E-01
 2.8900E-01 4.5600E+00 4.8000E-01
 3.2500E-01 5.2000E+00 5.1000E-01
 3.5700E-01 4.8900E+00 4.4000E-01
 3.9400E-01 4.7300E+00 3.9000E-01
 4.3800E-01 4.3500E+00 3.4000E-01
 4.8900E-01 4.2800E+00 3.0000E-01
 5.5100E-01 4.5700E+00 2.5000E-01
 6.0300E-01 5.0400E+00 3.2000E-01
 6.4400E-01 4.7600E+00 2.9000E-01
 6.8800E-01 4.6900E+00 2.7000E-01
 7.3700E-01 4.4900E+00 2.5000E-01
 7.9200E-01 4.6200E+00 2.3000E-01
 8.5200E-01 4.4800E+00 2.1000E-01
 9.2000E-01 4.7200E+00 1.9000E-01
 9.9700E-01 4.6400E+00 1.7000E-01
 1.0800E+00 4.7400E+00 1.6000E-01
 1.1800E+00 4.5600E+00 1.4000E-01
 1.2900E+00 4.7700E+00 1.3000E-01
 1.4200E+00 5.5400E+00 1.2000E-01
 1.5700E+00 6.6900E+00 1.1000E-01
 1.7500E+00 5.9000E+00 1.0000E-01
 1.9500E+00 6.4200E+00 9.0000E-02
 2.1900E+00 5.9100E+00 8.0000E-02
 2.4100E+00 6.1900E+00 1.0000E-01
 2.5700E+00 6.6900E+00 1.0000E-01
 2.7400E+00 6.9800E+00 9.0000E-02
 2.9400E+00 7.1700E+00 9.0000E-02
 3.1600E+00 7.5800E+00 9.0000E-02
 3.4000E+00 7.5000E+00 8.0000E-02
 3.6700E+00 7.4500E+00 8.0000E-02
 3.9700E+00 7.7200E+00 8.0000E-02
 4.3200E+00 8.3700E+00 8.0000E-02
 4.7100E+00 9.2300E+00 9.0000E-02
 5.1600E+00 1.0200E+01 1.0000E-01
 5.6700E+00 1.1200E+01 1.0000E-01
 6.0200E+00 1.2000E+01 1.0000E-01
 6.3900E+00 1.3600E+01 1.0000E-01
 6.9600E+00 1.3400E+01 1.0000E-01
 7.7700E+00 1.2500E+01 1.0000E-01
 8.7400E+00 1.2100E+01 1.0000E-01
 9.6400E+00 1.2000E+01 1.0000E-01
 1.0400E+01 1.2400E+01 1.0000E-01
 1.1300E+01 1.1700E+01 1.0000E-01
 1.2300E+01 1.2400E+01 1.0000E-01
 1.3400E+01 1.3000E+01 1.0000E-01
 1.4700E+01 1.2300E+01 1.0000E-01
 1.6200E+01 1.1400E+01 1.0000E-01
 1.7900E+01 1.1200E+01 1.0000E-01
 1.9900E+01 1.1700E+01 1.0000E-01
 2.2300E+01 1.2200E+01 1.0000E-01
 2.5100E+01 1.3300E+01 1.0000E-01
 2.8500E+01 1.2900E+01 1.0000E-01
 3.2600E+01 1.2700E+01 1.0000E-01
 3.7700E+01 1.2700E+01 1.0000E-01
 4.4100E+01 1.2600E+01 1.0000E-01
 5.2200E+01 1.2100E+01 1.0000E-01
 6.2900E+01 1.2500E+01 1.0000E-01
 7.7100E+01 1.2400E+01 1.0000E-01
 9.6800E+01 1.2300E+01 1.0000E-01
ENDDATA             62
ENDSUBENT           75
ENDENTRY             3
