ENTRY            12154   19821012              20050926       0000
SUBENT        12154001   19821012              20050926       0000
BIB                  7          9
INSTITUTE  (1USAORL)
REFERENCE  (J,BAP,3,177(F11),5804)
           (W,HARVEY,5803) TABULATED DATA
AUTHOR     (J.A.HARVEY,G.G.SLAUGHTER,R.C.BLOCK)
TITLE      SPIN STATES FOR RESONANCES IN W183, AG107 AND AG109.
FACILITY   (CHOPF) FAST CHOPPER
STATUS     (SCSRS)
HISTORY    (760803T) TRANSLATED FROM SCISRS
           (821012A) CONVERTED TO REACTION FORMALISM
ENDBIB               9
NOCOMMON             0          0
ENDSUBENT           12
SUBENT        12154002   19821012              20050926       0000
BIB                  3          3
REACTION   (47-AG-0(N,TOT),,SIG)
SAMPLE     THIN SAMPLE.
COMMENT    RUN 149C.
ENDBIB               3
NOCOMMON             0          0
DATA                 2        243
EN         DATA
EV         B
  19.3713   113.376
  19.4745    47.3346
  19.5785    38.1115
  19.6833    45.8394
  19.7890    31.1148
  19.8955    31.1183
  20.0029    97.7412
  20.1112    60.0182
  20.2203    40.5960
  20.3304    15.4970
  20.4413    16.4568
  20.5532    46.0547
  20.6660    27.2657
  20.7797    39.7846
  20.8943    33.5062
  21.0099    49.9168
  21.1265    88.7919
  21.2440    34.4462
  21.3625    12.4284
  21.4820    60.2272
  21.6025     1.3717
  21.7241    49.0176
  21.8466    63.9137
  21.9702     5.8989
  22.0949    19.6347
  22.2206    44.5542
  22.3474     7.6619
  22.4753    72.2295
  22.6043    53.6477
  22.7344     2.2879
  22.8656    12.7556
  22.9979    14.5182
  23.1315    65.4338
  23.2661     2.5937
  23.4020    33.3529
  23.5391    70.2680
  23.6773    81.0223
  23.8168    15.2978
  23.9575    96.4230
  24.0995     5.0999
  24.2427   132.114
  24.3872    50.1571
  24.5331    90.4113
  24.6802    38.9503
  24.8286    76.7496
  24.9784   118.574
  25.1296    26.3049
  25.2821    41.4365
  25.4360     7.7432
  25.5914     9.8330
  25.7481    60.9787
  25.9063    15.0231
  26.0660    17.7302
  26.2272     8.4998
  26.3898    18.5868
  26.5540    19.4923
  26.7197    67.3030
  26.8869    52.4909
  27.0558    10.1401
  27.2262    24.6184
  27.3983    23.1537
  27.5719    28.5503
  27.7473    62.7973
  27.9243    10.9818
  28.1030    18.4804
  28.2834    24.4822
  28.4656     3.0662
  28.6496    15.0637
  28.8353    74.7730
  29.0228    38.9205
  29.2122    33.5416
  29.4035     0.0845
  29.5966    65.1542
  29.7916    86.6285
  29.9886    56.3155
  30.1875   130.763
  30.3884   217.313
  30.5914   491.246
  30.7963   567.864
  31.0034   345.6506
  31.2125    84.0340
  31.4238    31.6570
  31.6372    31.6748
  31.8527   106.637
  32.0705    71.1331
  32.2906    32.6965
  32.5129    48.8862
  32.7375    11.5653
  32.9644    25.7542
  33.1938    40.6910
  33.4255    66.5443
  33.6596    21.8094
  33.8963    50.0841
  34.1354    74.3264
  34.3771    23.1286
  34.6213    50.2037
  34.8681    42.2726
  35.1177    25.6271
  35.3698    30.0143
  35.6248    84.7558
  35.8824    19.6677
  36.1429    65.1714
  36.4063    89.8675
  36.6725    68.8993
  36.9416   105.910
  37.2138    34.9354
  37.4889    70.7712
  37.7671     2.2830
  38.0485     2.2010
  38.3329    40.0572
  38.6206   122.649
  38.9115    49.2729
  39.2058    32.1567
  39.5033    27.8707
  39.8043    64.5626
  40.1087    38.6527
  40.4167   232.963
  40.7282   203.723
  41.0433   123.853
  41.3621   112.947
  41.6846   219.244
  42.0109   202.679
  42.3410    72.0211
  42.6751   123.645
  43.0131    55.9771
  43.3551    37.2089
  43.7013   108.392
  44.0516    36.4898
  44.4061    58.6349
  44.7650    60.8314
  45.1282    44.0609
  45.4958    84.5716
  45.8680    22.0615
  46.2447    13.3807
  46.6261    78.8301
  47.0122    64.0588
  47.4032    62.3951
  47.7990    61.0672
  48.1999    58.2803
  48.6058    53.6859
  49.0168    57.2631
  49.4331    45.2159
  49.8547    47.6435
  50.2817    52.2638
  50.7142    60.2471
  51.1524   165.586
  51.5962   467.121
  52.0458   520.418
  52.5014   279.709
  52.9629   107.368
  53.4306    37.6230
  53.9045    28.8793
  54.3847    25.4316
  54.8714    53.3386
  55.3646   107.799
  55.8645   188.972
  56.3712   312.964
  56.8848   116.527
  57.4055    68.1395
  57.9334    50.3958
  58.4685    51.1942
  59.0112    91.5103
  59.5614    31.7189
  60.1193   113.939
  60.6852    25.2699
  61.2590    54.4102
  61.8411    84.4444
  62.4314    41.2812
  63.0303    71.1414
  63.6378    51.5340
  64.2541    86.6636
  64.8795    46.7972
  65.5140    35.1721
  66.1579    39.2471
  66.8113    63.0646
  67.4744    20.8755
  68.1475    22.7975
  68.8306    58.0648
  69.5241    92.8810
  70.2282    91.7027
  70.9430   172.429
  71.6687   337.417
  72.4057   213.262
  73.1541    92.6608
  73.9141    69.0583
  74.6860    41.4977
  75.4701    57.0922
  76.2666    27.2685
  77.0758    29.8361
  77.8980    15.4314
  78.7333    75.4639
  79.5822    41.7228
  80.4449    38.0643
  81.3217    63.4312
  82.2129    74.9445
  83.1188    42.3853
  84.0397    72.3761
  84.9761    28.8519
  85.9282    37.3633
  86.8964    92.2627
  87.8811    89.9524
  88.8826    79.4123
  89.9013    92.4894
  90.9376    49.8042
  91.9919    60.8614
  93.0647    38.8897
  94.1564    98.6310
  95.2673    74.8030
  96.3981    58.0087
  97.5491    40.7706
  98.7209    91.4423
  99.9139    11.9634
 101.128     24.2641
 102.365    104.447
 103.625     39.7864
 104.908     33.9280
 106.216     62.5350
 107.547     85.0179
 108.905     68.8269
 110.287     14.2113
 111.697     27.9172
 113.133     76.6746
 114.598     87.5940
 116.091     76.1042
 117.614     47.1742
 119.166     76.3449
 120.750     59.8794
 122.365      0.4938
 124.013     30.8769
 125.695     55.5595
 127.411     85.4160
 129.162     31.6331
 130.950     60.3015
 132.775    117.956
 134.638    229.297
 136.541    219.364
 138.485    115.327
 140.470     83.0866
 142.499     53.1381
 144.571     80.0595
 146.690     71.0262
 148.855     98.9275
 151.068     56.9624
ENDDATA            245
ENDSUBENT          253
SUBENT        12154003   19821012              20050926       0000
BIB                  3          3
REACTION   (47-AG-0(N,TOT),,SIG)
SAMPLE     THIN SAMPLE
COMMENT    RUN 146B.
ENDBIB               3
NOCOMMON             0          0
DATA                 2        256
EN         DATA
EV         B
  73.7964     5.5507
  74.1948     6.6439
  74.5963     7.9297
  75.0012     3.9403
  75.4094     2.7117
  75.8209     3.9294
  76.2358     3.8985
  76.6541     3.1601
  77.0758     4.9066
  77.5011     3.9540
  77.9299     5.0962
  78.3622     4.1206
  78.7982     2.7665
  79.2378     4.1389
  79.6810     3.2779
  80.1281     2.3823
  80.5788     6.9490
  81.0335     3.4173
  81.4919     5.1246
  81.9543     0.0579
  82.4206     3.3250
  82.8909     5.3981
  83.3652     3.8342
  83.8437     5.1501
  84.3262     4.1768
  84.8129     6.8152
  85.3039     2.3940
  85.7991     5.2182
  86.2987     6.1890
  86.8026    18.8061
  87.3110    29.2940
  87.8238    33.8466
  88.3412    31.4135
  88.8631    16.1300
  89.3897     8.2235
  89.9210     4.5211
  90.4571     4.6354
  90.9979     4.8953
  91.5436     5.2762
  92.0943     3.3152
  92.6499     5.7614
  93.2106     4.0476
  93.7763     6.7352
  94.3473     2.0072
  94.9234     1.4619
  95.5049     1.9724
  96.0917     1.3131
  96.6839     3.5717
  97.2817     1.5783
  97.8850     1.8609
  98.4939     3.7578
  99.1085     4.3145
  99.7289     2.2965
 100.355      2.5838
 100.987      4.2373
 101.625      1.5214
 102.269      6.5154
 102.920      5.1129
 103.576      6.9186
 104.239      4.1722
 104.908      7.0354
 105.584      0.0991
 106.266      7.0205
 106.955      7.8572
 107.651      3.0037
 108.353      4.3013
 109.063      6.3942
 109.779      7.5035
 110.503      4.8470
 111.233      3.7138
 111.971      5.2533
 112.716      4.6008
 113.469      3.1795
 114.229      4.3465
 114.997      1.9735
 115.773      8.6863
 116.556      4.3235
 117.348      4.1008
 118.148      3.7974
 118.955      5.1422
 119.772      1.4830
 120.596      1.8661
 121.429      1.3342
 122.271      3.6114
 123.122      0.4339
 123.981      0.0126
 124.850      1.9433
 125.727      1.2904
 126.614      0.4572
 127.511      5.5152
 128.417      4.7183
 129.332      2.6638
 130.258      6.6356
 131.193      7.8543
 132.139     18.0603
 133.095     38.8623
 134.061     58.0975
 135.037     60.4550
 136.025     45.5682
 137.023     27.0262
 138.033     13.7911
 139.053     11.0013
 140.085     16.8999
 141.129     10.4418
 142.184     11.4388
 143.251     13.5017
 144.330     14.4220
 145.421     14.0032
 146.525     16.4316
 147.641      9.7597
 148.771      6.1173
 149.913      5.4065
 151.068      2.9116
 152.237      4.7463
 153.419      5.3188
 154.616      4.6811
 155.826      4.5230
 157.051      0.0278
 158.290      1.5060
 159.543      3.6173
 160.812      5.4472
 162.096      0.8023
 163.395      4.2761
 164.711      5.8858
 166.041      3.0789
 167.389      7.0604
 168.752      6.6976
 170.133     11.0412
 171.530     19.3165
 172.945     27.2225
 174.377     33.0798
 175.827     30.8094
 177.295     16.9874
 178.782      9.7493
 180.288      6.4893
 181.812      4.3628
 183.356      2.9256
 184.920      5.4523
 186.504      5.1833
 188.108      0.0879
 189.734      4.5119
 191.380      5.5603
 193.048      3.3128
 194.737      3.8656
 196.449      1.2013
 198.184      6.5756
 199.942      8.9358
 201.723     11.4595
 203.528     13.7612
 205.357     17.6125
 207.212     18.2610
 209.091     17.4077
 210.996     19.2833
 212.928     13.9282
 214.886     11.0181
 216.871      5.3906
 218.883      6.7107
 220.924      4.9320
 222.994      1.3626
 225.093      5.7134
 227.221      0.9425
 229.380      1.3338
 231.570      6.2191
 233.791      3.5904
 236.044      0.4888
 238.331      1.8943
 240.650      3.8044
 243.004      5.6144
 245.392      6.0874
 247.815      7.5144
 250.275      9.0360
 252.772     12.2011
 255.306     16.5339
 257.878     10.7188
 260.489      4.7858
 263.141      3.1904
 265.833      6.4265
 268.566      6.6045
 271.342      5.9394
 274.161      4.9646
 277.024      2.6786
 279.933      2.8542
 282.887      2.3871
 285.889      5.8099
 288.938      3.6158
 292.037      6.7083
 295.185      8.1997
 298.385      9.0491
 301.637      4.9124
 304.943      8.0130
 308.303     10.8615
 311.719     20.1220
 315.192     29.4427
 318.724     33.7947
 322.315     28.5530
 325.967     19.9964
 329.682     10.4449
 333.461      5.9944
 337.305      2.7914
 341.215      2.6115
 345.194      4.8028
 349.244      3.6593
 353.364      5.0619
 357.559      4.3905
 361.828      8.1930
 366.174     11.4677
 370.599      5.6302
 375.105      5.9586
 379.693      4.6737
 384.366      6.8609
 389.126      8.9551
 393.975     13.3408
 398.915     12.5544
 403.949     14.2021
 409.078     15.9961
 414.306     11.7928
 419.635      9.1652
 425.067      6.4798
 430.605      5.6983
 436.253      6.3478
 442.012      6.9024
 447.885      8.3143
 453.877      6.4630
 459.990     11.9103
 466.227     14.8195
 472.592     17.0265
 479.088     17.3144
 485.719     11.8921
 492.488     11.6582
 499.400     11.1248
 506.459     13.5601
 513.668     13.6852
 521.032     13.9834
 528.556      9.3488
 536.244      7.2412
 544.101      8.9633
 552.132     10.2310
 560.342     18.9437
 568.737     21.1739
 577.321     22.6353
 586.102     17.0545
 595.084     14.0803
 604.274     13.7961
 613.679     11.2136
 623.306     11.9846
 633.160     10.0860
 643.250      6.7630
 653.583      3.7848
 664.167      9.3939
 675.011      6.9940
 686.122      8.2644
 697.510      9.8733
 709.183      7.0688
 721.152      4.8322
 733.427      1.3466
 746.018      9.5003
ENDDATA            258
ENDSUBENT          266
SUBENT        12154004   19821012              20050926       0000
BIB                  3          3
REACTION   (74-W-0(N,TOT),,SIG)
SAMPLE     THICK SAMPLE
COMMENT    RUN 128C
ENDBIB               3
NOCOMMON             0          0
DATA                 2        248
EN         DATA
EV         B
  18.1114   580.761
  18.2076   479.718
  18.3046   479.119
  18.4023   573.602
  18.5009   779.032
  18.6002   571.304
  18.7004   533.908
  18.8013   384.335
  18.9031   717.917
  19.0057   473.094
  19.1091   486.421
  19.2134  1040.63
  19.3185   541.121
  19.4245   386.523
  19.5314   482.883
  19.6391   757.200
  19.7478   590.067
  19.8573   445.143
  19.9678   602.126
  20.0792   668.740
  20.1916   462.431
  20.3048   859.013
  20.4191   574.366
  20.5343   587.212
  20.6504   469.121
  20.7676   539.011
  20.8858   553.909
  21.0049   798.279
  21.1251   479.171
  21.2464   479.438
  21.3687   426.157
  21.4920  1038.96
  21.6164   413.266
  21.7419   384.564
  21.8685   267.226
  21.9962   267.293
  22.1250   227.298
  22.2550   171.834
  22.3861   155.277
  22.5183   186.767
  22.6518   189.317
  22.7864   138.592
  22.9223   127.107
  23.0593   147.190
  23.1976   119.641
  23.3371   119.645
  23.4779   128.410
  23.6200   114.646
  23.7634   110.127
  23.9080   104.192
  24.0540    85.8785
  24.2014    87.8857
  24.3501    92.4384
  24.5002    86.4275
  24.6516    63.6088
  24.8045    92.7728
  24.9588    80.6158
  25.1146    75.9588
  25.2718    70.2593
  25.4305    64.9779
  25.5907    82.2595
  25.7524    70.9855
  25.9156    69.8391
  26.0804    55.1485
  26.2468    80.9575
  26.4148    67.8491
  26.5844    98.3623
  26.7556   118.513
  26.9285   211.186
  27.1031   432.344
  27.2794   399.615
  27.4574   305.919
  27.6371   185.996
  27.8187   103.325
  28.0020    82.8677
  28.1871    63.9347
  28.3741    57.7617
  28.5629    43.6244
  28.7537    46.0407
  28.9463    48.6626
  29.1409    54.9745
  29.3375    42.6928
  29.5361    52.5194
  29.7366    36.7043
  29.9393    50.8173
  30.1440    32.9627
  30.3508    32.4956
  30.5598    40.8994
  30.7709    36.6113
  30.9842    38.0847
  31.1998    34.7946
  31.4175    29.9571
  31.6376    26.8677
  31.8600    35.4151
  32.0848    36.9054
  32.3120    32.9407
  32.5415    30.0227
  32.7735    35.9692
  33.0081    22.8317
  33.2451    28.9075
  33.4847    25.9264
  33.7269    23.5432
  33.9718    24.7523
  34.2193    31.5041
  34.4695    28.9075
  34.7225    27.5095
  34.9783    33.0535
  35.2369    18.9412
  35.4984    38.7277
  35.7628    28.9299
  36.0302    15.9072
  36.3006    21.6027
  36.5740    16.6062
  36.8506    32.6227
  37.1303    30.2098
  37.4132    17.3370
  37.6993    22.7196
  37.9888    32.1866
  38.2815    15.4441
  38.5777    24.4746
  38.8774    12.8832
  39.1805    13.4944
  39.4872    21.1160
  39.7975    25.8812
  40.1115     6.4368
  40.4292    34.2617
  40.7507    20.1009
  41.0761    42.1643
  41.4053    34.5857
  41.7386    18.7842
  42.0758    13.5156
  42.4172    24.4166
  42.7628    20.0782
  43.1126    22.4046
  43.4667    22.4003
  43.8252    21.4815
  44.1881    19.4078
  44.5556    32.3367
  44.9277    40.4162
  45.3044    62.1928
  45.6859    99.6912
  46.0723   181.223
  46.4635   332.197
  46.8598   335.546
  47.2612   197.210
  47.6677   178.865
  48.0795   202.334
  48.4967   161.048
  48.9193    71.2442
  49.3475    40.1030
  49.7813    34.7640
  50.2209    21.0967
  50.6663    30.9504
  51.1177    21.1083
  51.5751    25.2277
  52.0387    19.7518
  52.5086    19.0948
  52.9849    23.5387
  53.4676    17.4341
  53.9570    10.3626
  54.4532    17.0044
  54.9562    16.3862
  55.4663    24.8974
  55.9834     8.1842
  56.5079     9.8214
  57.0397    15.3536
  57.5791    19.7703
  58.1261     9.2909
  58.6810    13.6922
  59.2439    18.0873
  59.8149     7.1569
  60.3943    13.1741
  60.9820    14.1419
  61.5784    22.9278
  62.1836     9.5193
  62.7978    14.5813
  63.4211    21.5760
  64.0537    14.0069
  64.6958    18.2679
  65.3477    17.4469
  66.0094    16.7117
  66.6813    12.5937
  67.3634    17.2236
  68.0561    17.1305
  68.7595    14.8897
  69.4739    20.0233
  70.1995     3.3157
  70.9365     8.0925
  71.6852    13.5221
  72.4457     2.6373
  73.2185    11.6474
  74.0037    13.8011
  74.8015    10.2569
  75.6124    10.8942
  76.4365    14.8172
  77.2742     7.5559
  78.1257    16.1444
  78.9913    11.3220
  79.8714     4.8668
  80.7663     4.8638
  81.6784    12.4760
  82.6019     5.2762
  83.5432     6.5280
  84.5007     7.2970
  85.4748     2.6986
  86.4658     8.9117
  87.4741    13.9251
  88.5002     7.9780
  89.5444     4.0287
  90.6073     7.3293
  91.6891    14.8164
  92.7905    10.2817
  93.9118    11.0159
  95.0536     7.5897
  96.2163    11.3489
  97.4005     6.7877
  98.6067     8.0890
  99.8354    28.6340
 101.087     61.4607
 102.362     73.2307
 103.662     43.7528
 104.987     21.5813
 106.337     21.7458
 107.714      1.4296
 109.117      5.4757
 110.548      7.8781
 112.008     22.6876
 113.496     64.8168
 115.014    147.801
 116.563    112.797
 118.144     47.6917
 119.757     33.2763
 121.403     10.5497
 123.083      4.4895
 124.799     16.0292
 126.550      2.3904
 128.339      3.2475
 130.166      7.5715
 132.032      1.2914
 133.939      7.0716
 135.887      3.9732
 137.878      8.7193
 139.913     11.3415
 141.993     12.9495
 144.120      8.6309
 146.296     20.9738
 148.521      3.3392
 150.797     16.0265
ENDDATA            250
ENDSUBENT          258
SUBENT        12154005   19821012              20050926       0000
BIB                  3          3
REACTION   (74-W-0(N,TOT),,SIG)
SAMPLE     THIN SAMPLE
COMMENT    RUN 125C
ENDBIB               3
NOCOMMON             0          0
DATA                 2        248
EN         DATA
EV         B
  18.1114  1772.52
  18.2076  2043.82
  18.3046  2800.84
  18.4023  3477.53
  18.5009  5070.52
  18.6002  4564.10
  18.7004  4675.03
  18.8013  8969.83
  18.9031  5664.38
  19.0057  7263.42
  19.1091  5025.13
  19.2134  5375.79
  19.3185  5950.52
  19.4245  3968.41
  19.5314  3456.50
  19.6391  2434.29
  19.7478  2031.62
  19.8573  1706.65
  19.9678  1525.03
  20.0792  1206.40
  20.1916   941.576
  20.3048   951.189
  20.4191   898.194
  20.5343   895.366
  20.6504   631.943
  20.7676   803.365
  20.8858  1038.02
  21.0049  1489.79
  21.1251  2640.20
  21.2464  3366.11
  21.3687  2479.62
  21.4920  1062.55
  21.6164   718.815
  21.7419   527.172
  21.8685   463.831
  21.9962   460.290
  22.1250   326.990
  22.2550   330.325
  22.3861   269.284
  22.5183   300.286
  22.6518   312.588
  22.7864   374.385
  22.9223   237.600
  23.0593   280.806
  23.1976   314.383
  23.3371   217.095
  23.4779   227.502
  23.6200   127.959
  23.7634   331.213
  23.9080   207.232
  24.0540   226.580
  24.2014   246.386
  24.3501   275.321
  24.5002   175.511
  24.6516   184.193
  24.8045   253.550
  24.9588   226.176
  25.1146   279.578
  25.2718   178.240
  25.4305   125.612
  25.5907   242.595
  25.7524   113.109
  25.9156   110.844
  26.0804   138.001
  26.2468   208.314
  26.4148   202.878
  26.5844   235.806
  26.7556   284.971
  26.9285   506.648
  27.1031   944.710
  27.2794  1141.47
  27.4574   715.411
  27.6371   325.432
  27.8187   226.225
  28.0020   133.883
  28.1871   117.706
  28.3741   106.802
  28.5629   113.923
  28.7537    64.2388
  28.9463   104.166
  29.1409    37.7291
  29.3375   158.369
  29.5361   173.829
  29.7366    79.2321
  29.9393   179.715
  30.1440   191.538
  30.3508   236.620
  30.5598   102.779
  30.7709   132.861
  30.9842   131.758
  31.1998   142.823
  31.4175   174.805
  31.6376    15.3940
  31.8600   123.850
  32.0848   136.698
  32.3120   102.729
  32.5415    35.4359
  32.7735   160.601
  33.0081    38.9674
  33.2451    56.2564
  33.4847   116.389
  33.7269   109.723
  33.9718    69.3132
  34.2193    69.2420
  34.4695    80.2603
  34.7225    41.6108
  34.9783    79.3977
  35.2369    97.5566
  35.4984    61.6759
  35.7628    14.7213
  36.0302    84.0919
  36.3006    51.5231
  36.5740    65.8636
  36.8506   104.194
  37.1303    87.6729
  37.4132    96.6000
  37.6993    93.2316
  37.9888    75.5776
  38.2815     8.0818
  38.5777    95.4658
  38.8774    82.3919
  39.1805    46.7351
  39.4872   135.378
  39.7975    52.5109
  40.1115    39.5312
  40.4292   148.479
  40.7507   123.167
  41.0761    96.5235
  41.4053    72.4534
  41.7386    22.2618
  42.0758    23.5332
  42.4172    33.1009
  42.7628    11.8912
  43.1126    80.0224
  43.4667    51.0503
  43.8252   138.656
  44.1881     8.4756
  44.5556   168.235
  44.9277    84.2183
  45.3044   128.058
  45.6859   203.730
  46.0723   508.898
  46.4635   914.765
  46.8598   830.529
  47.2612   350.340
  47.6677   204.657
  48.0795   310.796
  48.4967   260.754
  48.9193    63.2827
  49.3475    66.8515
  49.7813    53.0119
  50.2209    41.2673
  50.6663    30.6342
  51.1177    12.8520
  51.5751    69.5231
  52.0387    76.8054
  52.5086    41.0903
  52.9849     3.6201
  53.4676    45.9533
  53.9570    59.7890
  54.4532     0.0989
  54.9562    27.5752
  55.4663    61.8158
  55.9834    51.8569
  56.5079    29.6531
  57.0397    27.3772
  57.5791    78.4811
  58.1261    32.0854
  58.6810    33.0341
  59.2439    78.6962
  59.8149    23.8882
  60.3943     3.1661
  60.9820    19.8962
  61.5784    32.5347
  62.1836    26.9733
  62.7978    31.1905
  63.4211    51.6779
  64.0537   101.257
  64.6958    46.3607
  65.3477    58.5660
  66.0094    26.2823
  66.6813     8.7071
  67.3634    23.4741
  68.0561    45.3351
  68.7595    32.1901
  69.4739    38.4494
  70.1995    46.0814
  70.9365     0.8572
  71.6852    13.7575
  72.4457    28.9927
  73.2185    79.5631
  74.0037    43.8440
  74.8015    13.7056
  75.6124    20.8807
  76.4365    44.7553
  77.2742     8.3725
  78.1257    20.7180
  78.9913    17.1003
  79.8714    14.2749
  80.7663    21.6157
  81.6764    27.1741
  82.6019    28.6655
  83.5432    23.2451
  84.5007     6.8119
  85.4748    52.7330
  86.4658    55.5809
  87.4741    13.9186
  88.5002    37.5019
  89.5444    73.3696
  90.6073    14.1473
  91.6891    15.9863
  92.7905    17.2063
  93.9118    36.8856
  95.0536    30.6936
  96.2163    61.1031
  97.4005    67.8156
  98.6067     9.2734
  99.8354    33.7859
 101.087    105.600
 102.362    126.025
 103.662     71.1002
 104.987     50.2500
 106.337     10.5768
 107.714     25.6320
 109.117     23.9219
 110.548     23.4842
 112.008      3.5477
 113.496    164.239
 115.014    450.913
 116.563    289.784
 118.144     72.5762
 119.757    102.843
 121.403     34.0918
 123.083     19.1390
 124.799     15.0470
 126.550      7.3502
 128.339     38.1281
 130.166     58.8978
 132.032     26.9456
 133.939     44.6730
 135.887     24.3854
 137.878     39.0225
 139.913      9.3228
 141.993     43.6614
 144.120     37.5910
 146.296     15.3178
 148.521      9.3691
 150.797     12.0447
ENDDATA            250
ENDSUBENT          258
SUBENT        12154006   19821012              20050926       0000
BIB                  2          3
REACTION  1(74-W-0(N,0),,EN)
          2(74-W-0(N,0),,J)
STATUS     (PRELM)
ENDBIB               3
NOCOMMON             0          0
DATA                 2          7
DATA      1DATA      2
EV         NO-DIM
  7.6       0.
 27.3       1.
 46.5       1.
 48.1
102.4       1.
147.
157.
ENDDATA              9
ENDSUBENT           17
ENDENTRY             6
