ENTRY            12196     821012
SUBENT        12196001     821012
BIB                  7         10
INSTITUTE  (1USAGA)
REFERENCE  (J,NIM,31,125,64)
           (R,GA-6832,65) AU DATA FROM 0.01 TO 8 EV.
AUTHOR     (E.HADDAD,R.W.WALTON,S.J.FRIESENHAHN,W.M.LOPEZ)
TITLE      A HIGH EFFICIENCY DETECTOR FOR NEUTRON CAPTURE CROSS
           SECTION MEASUREMENTS.
FACILITY   (LINAC) LINAC.
STATUS     (SCSRS)
HISTORY    (760803T) TRANSLATED FROM SCISRS
           (821012A) CONVERTED TO REACTION FORMALISM
ENDBIB              10
NOCOMMON             0          0
ENDSUBENT           13
SUBENT        12196002     821012
BIB                  4          4
REACTION   (79-AU-197(N,G)79-AU-198,,SIG)
STATUS     (PRELM) PRELIMINARY
DETECTOR   (SCIN)     LIQUID SCINTILLATION COUNTER
SAMPLE                 THIN TARGET DATA.
ENDBIB               4
NOCOMMON             0          0
DATA                 2        139
EN         DATA
MEV        B
 8.600  -06 1.05   +01
 9.000  -06 7.9    +00
 9.500  -06 5.9    +00
 1.000  -05 5.4    +00
 1.040  -05 4.75   +00
 1.080  -05 3.65   +00
 1.180  -05 3.29   +00
 1.280  -05 2.08   +00
 1.390  -05 2.26   +00
 1.580  -05 1.59   +00
 1.780  -05 1.18   +00
 1.980  -05 9.4    -01
 2.230  -05 7.3    -01
 3.500  -05 6.1    -01
 3.960  -05 8.6    -01
 4.400  -05 1.10   +00
 4.550  -05 1.34   +00
 4.600  -05 5.45   +00
 4.650  -05 1.002  +01
 4.690  -05 2.13   +00
 4.750  -05 1.13   +00
 4.850  -05 1.03   +00
 5.050  -05 1.68   +00
 5.160  -05 1.93   +00
 5.350  -05 2.74   +00
 5.550  -05 5.35   +00
 5.640  -05 8.20   +00
 5.750  -05 2.900  +01
 5.850  -05 1.480  +02
 5.900  -05 4.400  +01
 5.990  -05 2.030  +03
 6.100  -05 5.900  +02
 6.200  -05 2.600  +01
 6.200  -05 7.800  +01
 6.200  -05 2.600  +01
 6.200  -05 7.800  +01
 6.300  -05 1.17   +01
 6.350  -05 7.4    +00
 6.400  -05 4.15   +00
 6.450  -05 3.25   +00
 6.750  -05 1.73   +00
 6.950  -05 1.27   +00
 7.200  -05 1.13   +00
 7.350  -05 1.58   +00
 7.450  -05 1.83   +00
 7.550  -05 2.18   +00
 7.650  -05 3.90   +00
 7.850  -05 1.350  +02
 7.950  -05 1.490  +02
 7.960  -05 8.90   +00
 8.050  -05 2.53   +00
 8.300  -05 5.95   -01
 8.550  -05 4.10   -01
 8.900  -05 6.28   -01
 9.350  -05 6.35   -01
 9.700  -05 3.95   -01
 1.000  -04 7.90   -01
 1.020  -04 2.03   +00
 1.030  -04 1.000  +02
 1.060  -04 1.040  +01
 1.090  -04 1.63   +00
 1.110  -04 4.05   -01
 1.180  -04 4.85   -01
 1.190  -04 8.8    +00
 1.230  -04 5.1    -01
 1.255  -04 3.54   -01
 1.320  -04 7.5    -01
 1.380  -04 1.03   +00
 1.410  -04 3.150  +01
 1.430  -04 2.69   +00
 1.460  -04 6.98   +00
 1.480  -04 8.100  +01
 1.520  -04 2.85   +00
 1.550  -04 1.13   +00
 1.580  -04 3.68   +00
 1.585  -04 1.100  +02
 1.620  -04 3.050  +01
 1.670  -04 1.48   +00
 1.770  -04 6.15   -01
 1.840  -04 1.68   +00
 1.845  -04 6.460  +01
 1.910  -04 2.24   +00
 1.940  -04 5.15   -01
 1.980  -04 6.70   -01
 2.040  -04 3.65   -01
 2.060  -04 1.550  +00
 2.120  -04 6.15   -01
 2.160  -04 6.60   -01
 2.230  -04 4.19   -01
 2.260  -04 5.80   -01
 2.300  -04 1.08   +00
 2.330  -04 7.260  +01
 2.390  -04 7.60   +00
 2.460  -04 1.78   +00
 2.510  -04 1.78   +00
 2.550  -04 5.750  +01
 2.650  -04 2.83   +00
 2.670  -04 6.70   +00
 2.780  -04 1.23   +00
 2.810  -04 4.50   +00
 2.860  -04 5.550  +01
 2.990  -04 2.36   +00
 3.080  -04 8.5    -01
 3.150  -04 6.2    -01
 3.200  -04 4.075  +01
 3.320  -04 4.6    +00
 3.420  -04 6.65   -01
 3.450  -04 1.630  +01
 3.550  -04 2.65   +00
 3.650  -04 2.700  +01
 3.750  -04 1.970  +01
 3.900  -04 1.83   +00
 4.200  -04 8.00   +00
 4.940  -04 7.90   +00
 5.800  -04 1.290  +01
 7.000  -04 7.60   +00
 8.500  -04 6.90   +00
 1.000  -03 7.40   +00
 1.170  -03 4.80   +00
 1.350  -03 6.35   +00
 1.630  -03 4.15   +00
 1.930  -03 4.25   +00
 2.390  -03 2.39   +00
 2.980  -03 2.55   +00
 3.850  -03 2.59   +00
 4.600  -03 2.42   +00
 5.000  -03 1.89   +00
 5.700  -03 2.13   +00
 6.400  -03 1.93   +00
 7.100  -03 1.74   +00
 8.250  -03 1.66   +00
 9.250  -03 1.20   +00
 1.060  -02 1.19   +00
 1.250  -02 1.15   +00
 1.480  -02 8.7    -01
 1.760  -02 8.25   -01
 2.180  -02 6.5    -01
 2.730  -02 5.95   -01
 3.500  -02 4.4    -01
ENDDATA            141
ENDSUBENT          150
SUBENT        12196003     821012
BIB                  3          4
REACTION   (79-AU-197(N,G)79-AU-198,,SIG)
DETECTOR   (STANK)    SCINTILLATING TANK DETECTOR
MONITOR    BASED ON GOLD 4.906-EV AND W-182 4.15-EV RESONANCE
           PARAMETERS.
ENDBIB               4
NOCOMMON             0          0
DATA                 2         34
EN         DATA
MEV        B
 1.0    -08 1.56   +02
 1.5    -08 1.25   +02
 2.0    -08 1.08   +02
 2.5    -08 9.8    +01
 3.0    -08 8.9    +01
 4.0    -08 7.8    +01
 5.0    -08 6.8    +01
 6.0    -08 6.3    +01
 7.0    -08 5.8    +01
 8.0    -08 5.6    +01
 9.0    -08 5.15   +01
 1.00   -07 5.1    +01
 1.25   -07 4.5    +01
 1.50   -07 4.25   +01
 1.75   -07 3.95   +01
 2.00   -07 3.75   +01
 2.50   -07 3.35   +01
 3.00   -07 3.15   +01
 4.00   -07 2.81   +01
 5.00   -07 2.65   +01
 6.00   -07 2.57   +01
 7.00   -07 2.41   +01
 8.00   -07 2.4    +01
 9.00   -07 2.43   +01
 1.2    -06 2.38   +01
 2.35   -06 3.7    +01
 2.75   -06 4.8    +01
 3.19   -06 7.2    +01
 3.55   -06 1.32   +02
 4.2    -06 5.95   +02
 5.65   -06 3.30   +02
 6.4    -06 5.25   +01
 7.25   -06 2.4    +01
 8.     -06 1.2    +01
ENDDATA             36
ENDSUBENT           45
ENDENTRY             3
