ENTRY            C1164   20050404
SUBENT        C1164001   20050404
BIB                  8          9
INSTITUTE  (1USAANL,1USAOHO)
REFERENCE  (J,NIM/A,505,1,2003)
AUTHOR     (B.J.Micklich,D.L.Smith,T.N.Massey,C.L.Fink,D.Ingram)
TITLE      Measurement of thick-target high-energy gamma-ray
            yields from the 19F(p,alpha)16O reaction
FACILITY   (VDGT,1USAOHO)
INC-SPECT  Proton beam
DETECTOR   (SCIN) NaI, 7.62x7.62 cm
HISTORY    (20050210C) DR
ENDBIB               9
NOCOMMON             0          0
ENDSUBENT           12
SUBENT        C1164002   20050404
BIB                  5         12
REACTION   (9-F-19(P,A)8-O-16,PAR,TTY/MLT/DA,G,REL)
            Gamma yields in units of gamma/microC/Sr
SAMPLE     CaF2, MgF2 and gas targets
           fwef
FLAG       (1.) CaF2, 1.27 cm diameter, 0.5 cm thick
           (2.) MgF2, 1.27 cm diameter, 0.5 cm thick
           (3.) SF6 gas, 5 microm W entrance window
           (4.) SF6 gas, 7 microm Ni entrance window
           (5.) SF6 gas, 15 microm Al entrance window
           (6.) SF6 gas, 20 microm Al entrance window
ERR-ANALYS No information
STATUS     (CURVE) Data taken from Fig. 7 the journal article
ENDBIB              12
COMMON               4          3
ANG        E          E          E
ADEG       MEV        MEV        MEV
0.0        6.129      6.917      7.117
ENDCOMMON            3
DATA                 3         57
EN         DATA       FLAG
MEV        ARB-UNITS  NO-DIM
  1.427E+00  1.424E-01  4.
  1.509E+00  6.811E-02  1.
  1.524E+00  1.424E-01  2.
  1.640E+00  1.547E-01  6.
  1.655E+00  2.662E-01  4.
  1.713E+00  3.281E-01  3.
  1.742E+00  2.414E-01  2.
  1.766E+00  1.424E-01  1.
  1.820E+00  2.291E-01  5.
  1.941E+00  5.139E-01  3.
  1.946E+00  3.157E-01  6.
  1.999E+00  2.414E-01  1.
  2.009E+00  4.396E-01  2.
  2.018E+00  5.634E-01  4.
  2.096E+00  7.368E-01  5.
  2.159E+00  1.058E+00  3.
  2.246E+00  1.009E+00  6.
  2.261E+00  6.625E-01  2.
  2.271E+00  7.616E-01  1.
  2.285E+00  1.294E+00  4.
  2.381E+00  1.678E+00  5.
  2.391E+00  1.839E+00  3.
  2.503E+00  1.256E+00  2.
  2.507E+00  1.876E+00  1.
  2.522E+00  1.764E+00  6.
  2.580E+00  2.111E+00  4.
  2.652E+00  2.693E+00  5.
  2.740E+00  2.743E+00  1.
  2.744E+00  3.263E+00  3.
  2.808E+00  2.557E+00  6.
  2.832E+00  2.693E+00  4.
  2.875E+00  3.696E+00  3.
  2.919E+00  3.473E+00  5.
  2.947E+00  3.758E+00  3.
  3.002E+00  2.866E+00  2.
  3.006E+00  3.213E+00  1.
  3.065E+00  2.941E+00  6.
  3.108E+00  3.176E+00  4.
  3.155E+00  4.513E+00  3.
  3.195E+00  4.030E+00  5.
  3.346E+00  3.609E+00  6.
  3.355E+00  3.424E+00  6.
  3.384E+00  3.808E+00  4.
  3.407E+00  5.170E+00  3.
  3.446E+00  4.749E+00  5.
  3.486E+00  3.907E+00  2.
  3.495E+00  4.464E+00  1.
  3.607E+00  3.894E+00  6.
  3.636E+00  4.142E+00  4.
  3.684E+00  5.566E+00  3.
  3.713E+00  5.157E+00  5.
  3.853E+00  5.839E+00  3.
  3.889E+00  4.204E+00  6.
  3.917E+00  4.662E+00  4.
  3.979E+00  5.826E+00  5.
  3.990E+00  4.501E+00  1.
  4.005E+00  4.650E+00  2.
ENDDATA             59
ENDSUBENT           80
ENDENTRY             2
