ENTRY            C0304   20220828   20230315   20230314       C220
SUBENT        C0304001   20220828   20230315   20230314       C220
BIB                 10         24
TITLE      26Mg(p,n)26Al and 23Na(a,n)26Al reactions
AUTHOR     (R.T.Skelton, R.W.Kavanagh, D.G.Sargood)
INSTITUTE  (1USACAL,3AULAML)
REFERENCE  (J,PR/C,35,45,1987)
           #doi:10.1103/PhysRevC.35.45
           (J,AJ,271,404,1983) 26Mg data (superseded) in figs.
           #doi:10.1086/161206
           (J,AJ,308,485,1986) Erratum on 26Mg sample thickness
           #doi:10.1086/164518
FACILITY   (VDGT)
SAMPLE     - MgO (99.7% enriched to 26Mg) reduced with powdered
             Zr and evaporated onto a foil backing.
             8.2 to 47.2 ug/cm2 thick.
           - Na2WO4 prepared on a foil backing.
             0.87 to 8.9 ug/cm2 thick.
METHOD     (BCINT)
ERR-ANALYS Beam current was measured to better than +/-1% by a
            conventional charge integrator.
STATUS     (TABLE) Data received from authors on magnetic tape.
           (APRVD) R.W.Kavanagh, 19 April 1988.
HISTORY    (19871118C)
           (19990504A) Reference added. Dates updated, converted
                       to lower case.
           (20220828A) On. Important alterations in 002-009.
ENDBIB              24
NOCOMMON             0          0
ENDSUBENT           27
SUBENT        C0304002   20220828   20230315   20230314       C220
BIB                  6          8
REACTION   (12-MG-26(P,N)13-AL-26,,SIG)
PART-DET   (N)
METHOD     Neutron counting in a 4pi geometry
DETECTOR   (PROPC) Graphite-cube neutron-detection system
            consisted of 12 3He proportional counters
ERR-ANALYS (ERR-1) Primarily from overall normalization (5%)
           (ERR-2) Background subtraction (0.1 mb)
HISTORY    (20220828A) On. ERR-1 and ERR-2 added.
ENDBIB               8
COMMON               2          3
ERR-1      ERR-2
PER-CENT   MB
 5.         0.1
ENDCOMMON            3
DATA                 2        328
EN         DATA
MEV        MB
    4.97341       0.00
    4.98754       0.03
    4.99005       0.04
    4.99255       0.05
    4.99505       0.09
    4.99756       0.21
    5.00006       0.33
    5.00257       0.66
    5.00508       0.89
    5.00759       0.95
    5.01009       0.76
    5.01260       0.61
    5.01511       0.45
    5.01762       0.37
    5.02013       0.30
    5.02264       0.24
    5.02516       0.22
    5.02767       0.19
    5.03018       0.19
    5.03269       0.21
    5.03521       0.21
    5.03772       0.24
    5.04024       0.26
    5.04276       0.34
    5.04527       0.49
    5.04779       0.82
    5.05031       2.16
    5.05283      12.81
    5.05535      37.13
    5.05660      27.24
    5.05787      18.40
    5.05912      10.17
    5.06039       6.50
    5.06291       2.98
    5.06543       1.61
    5.06795       0.99
    5.07047       0.66
    5.07300       0.52
    5.07552       0.47
    5.07805       0.59
    5.08057       0.57
    5.08310       0.50
    5.08563       0.57
    5.08815       0.54
    5.09068       0.58
    5.09321       0.62
    5.09574       0.71
    5.09827       1.01
    5.10080       5.22
    5.10333      15.44
    5.10586       7.11
    5.10839       1.74
    5.11093       0.90
    5.11346       1.00
    5.11599       0.93
    5.11853       2.13
    5.12107       4.06
    5.12360       2.58
    5.12614       1.12
    5.12868       0.60
    5.13121       0.38
    5.13375       0.27
    5.13629       0.24
    5.13883       0.24
    5.14137       1.42
    5.14391       2.13
    5.14645       0.63
    5.14900       0.24
    5.15154       0.23
    5.15408       0.27
    5.15663       0.29
    5.15917       0.34
    5.16172       0.45
    5.16426       0.79
    5.16681       1.51
    5.16936       3.61
    5.17191       5.65
    5.17445       7.50
    5.17700      14.00
    5.17955       5.55
    5.18210       3.13
    5.18466       2.10
    5.18721       1.77
    5.18976       1.58
    5.19231       1.55
    5.19487       1.60
    5.19742       1.91
    5.19997       8.53
    5.20253      43.89
    5.20508      36.12
    5.20764      26.54
    5.20892      27.24
    5.21020      27.55
    5.21148      24.22
    5.21276      21.80
    5.21404      17.15
    5.21531      13.12
    5.21660      12.11
    5.21788      10.80
    5.22044      10.09
    5.22299      12.41
    5.22555      16.35
    5.22812      23.31
    5.23068      27.34
    5.23324      26.54
    5.23581      18.57
    5.23837      10.70
    5.24093       9.19
    5.24350      11.91
    5.24607      15.34
    5.24863      16.65
    5.25120      15.94
    5.25377      14.43
    5.25634      12.51
    5.25890      11.30
    5.26148      10.39
    5.26405       9.89
    5.26662       9.79
    5.26919      11.70
    5.27176      14.03
    5.27433      12.01
    5.27691      12.31
    5.27948      12.51
    5.28206      13.62
    5.28463      14.93
    5.28721      16.65
    5.28978      18.77
    5.29236      22.30
    5.29494      21.49
    5.29752      21.39
    5.30010      24.82
    5.30268      28.05
    5.30526      30.98
    5.30784      33.80
    5.31042      36.53
    5.31300      40.36
    5.31558      42.88
    5.31817      48.33
    5.32075      50.55
    5.32334      57.52
    5.32592      61.55
    5.32851      65.49
    5.33109      66.80
    5.33368      67.00
    5.33627      62.96
    5.33886      65.99
    5.34144      61.55
    5.34404      56.81
    5.34663      51.06
    5.34922      47.53
    5.35181      45.81
    5.35440      48.33
    5.35699      64.38
    5.35959      72.45
    5.36218      53.18
    5.36478      40.66
    5.36737      37.03
    5.36997      36.93
    5.37256      41.17
    5.37516      54.19
    5.37776      59.43
    5.38036      53.28
    5.38296      48.13
    5.38555      46.21
    5.38815      46.42
    5.39076      42.78
    5.39336      40.26
    5.39596      39.25
    5.39856      40.26
    5.40117      41.98
    5.40377      51.66
    5.40637      67.91
    5.40898      54.29
    5.41158      40.56
    5.41419      31.78
    5.41680      28.56
    5.41941      26.64
    5.42201      26.13
    5.42462      27.55
    5.42723      30.07
    5.42984      31.18
    5.43245      27.14
    5.43506      23.81
    5.43768      23.71
    5.44029      26.44
    5.44290      27.24
    5.44552      26.94
    5.44813      28.56
    5.45075      31.48
    5.45336      37.94
    5.45598      51.46
    5.45860      81.53
    5.46121     103.63
    5.46383      97.37
    5.46645      93.13
    5.46907     113.11
    5.47169      85.47
    5.47431      65.49
    5.47693      62.66
    5.47955      51.97
    5.48218      45.61
    5.48480      40.16
    5.48742      38.75
    5.49005      38.04
    5.49267      37.64
    5.49530      38.34
    5.49792      39.35
    5.50055      42.78
    5.50318      46.82
    5.50581      55.30
    5.50844      67.40
    5.51107      91.92
    5.51370     120.28
    5.51633     129.46
    5.51896     127.44
    5.52159     126.33
    5.52422     127.95
    5.52686     134.00
    5.52949     145.70
    5.53212     160.74
    5.53476     182.74
    5.53740     223.30
    5.54003     256.09
    5.54267     282.73
    5.54530     294.34
    5.54794     289.69
    5.55058     261.24
    5.55322     221.58
    5.55586     194.95
    5.55850     170.93
    5.56114     154.18
    5.56379     142.58
    5.56643     137.13
    5.56907     135.21
    5.57171     137.73
    5.57436     133.80
    5.57700     134.71
    5.57965     136.02
    5.58230     124.41
    5.58494      91.82
    5.58759      73.96
    5.59024      76.08
    5.59289      80.92
    5.59554      86.58
    5.59819      92.93
    5.60084     100.50
    5.60349     110.29
    5.60614     116.44
    5.60879     119.77
    5.61145     127.44
    5.61410     133.50
    5.61675     139.55
    5.61941     160.13
    5.62207     171.13
    5.62472     182.23
    5.62738     191.92
    5.63003     196.26
    5.63269     192.83
    5.63535     189.30
    5.63801     185.36
    5.64067     177.19
    5.64333     163.06
    5.64599     150.65
    5.64865     142.48
    5.65132     140.96
    5.65398     138.14
    5.65664     134.71
    5.65931     135.51
    5.66197     134.40
    5.66464     132.69
    5.66730     130.77
    5.66997     133.90
    5.67264     135.61
    5.67531     133.50
    5.67798     126.73
    5.68064     120.68
    5.68331     126.43
    5.68598     123.41
    5.68865     106.96
    5.69133     101.11
    5.69400      98.68
    5.69667      96.67
    5.69935     103.63
    5.70202     106.76
    5.70469     103.12
    5.70737     101.51
    5.71005      99.09
    5.71272      98.28
    5.71540      96.36
    5.71808     106.25
    5.72076     103.53
    5.72344      92.93
    5.72612      88.80
    5.72880      85.97
    5.73148      86.88
    5.73416      86.07
    5.73684      86.88
    5.73952      86.47
    5.74221      81.93
    5.74489      75.68
    5.74758      73.05
    5.75026      72.35
    5.75295      75.27
    5.75563      82.34
    5.75832      93.23
    5.76101     105.55
    5.76370     113.92
    5.76639     118.26
    5.76908     119.97
    5.77177     115.74
    5.77446     109.68
    5.77715     109.48
    5.77984     108.67
    5.78254     109.68
    5.78523     113.21
    5.78792     121.89
    5.79062     138.64
    5.79331     149.34
    5.79601     149.84
    5.79871     150.55
    5.80140     146.01
    5.80410     143.69
    5.80680     145.30
    5.80950     149.34
    5.81220     160.74
    5.81490     173.66
    5.81760     214.62
    5.82030     205.74
ENDDATA            330
ENDSUBENT          347
SUBENT        C0304003   20220828   20230315   20230314       C220
BIB                  6          8
REACTION   (12-MG-26(P,N)13-AL-26,PAR,SIG)
DECAY-DATA (13-AL-26-M,6.35SEC,AR,,1.0)
METHOD     (ACTIV)
DETECTOR   (NAICR) 7.5 cm diam x 7.5 cm height NaI(Tl)
ERR-ANALYS (ERR-1) Primarily from overall normalization (6%)
           (ERR-2) Background subtraction (30 ub)
HISTORY    (20220828A) On. E-LVL, ERR-1 and ERR-2 added. REACTION
            corrected.
ENDBIB               8
COMMON               3          3
E-LVL      ERR-1      ERR-2
MEV        PER-CENT   MICRO-B
 0.218      6.         30.
ENDCOMMON            3
DATA                 2        239
EN         DATA
MEV        MB
    5.20508       0.00
    5.20764       0.02
    5.20892       0.07
    5.21020       0.12
    5.21148       0.33
    5.21276       0.26
    5.21404       0.23
    5.21531       0.19
    5.21660       0.38
    5.21788       0.56
    5.22044       0.66
    5.22299       0.85
    5.22555       0.91
    5.22812       1.17
    5.23068       1.30
    5.23324       1.41
    5.23581       1.82
    5.23837       2.20
    5.24093       2.59
    5.24350       2.74
    5.24607       3.40
    5.24863       3.96
    5.25120       4.14
    5.25377       4.52
    5.25634       5.11
    5.25890       5.60
    5.26148       5.97
    5.26405       6.34
    5.26662       6.70
    5.26919       7.74
    5.27176       8.78
    5.27433       9.82
    5.27691      10.86
    5.27948      11.90
    5.28206      13.62
    5.28463      15.34
    5.28721      17.02
    5.28978      18.78
    5.29236      20.50
    5.29494      22.20
    5.29752      23.90
    5.30010      25.60
    5.30268      27.30
    5.30526      28.99
    5.30784      32.37
    5.31042      35.74
    5.31300      39.11
    5.31558      42.48
    5.31817      45.83
    5.32075      49.83
    5.32334      53.80
    5.32592      57.72
    5.32851      59.57
    5.33109      61.64
    5.33368      61.99
    5.33627      58.09
    5.33886      55.66
    5.34144      53.41
    5.34404      49.64
    5.34663      44.19
    5.34922      41.72
    5.35181      38.32
    5.35440      36.92
    5.35699      34.95
    5.35959      32.88
    5.36218      33.73
    5.36478      27.19
    5.36737      24.99
    5.36997      22.88
    5.37256      19.31
    5.37516      14.62
    5.37776      13.04
    5.38036      17.02
    5.38296      29.10
    5.38555      32.37
    5.38815      33.83
    5.39076      32.48
    5.39336      31.45
    5.39596      30.63
    5.39856      30.09
    5.40117      28.85
    5.40377      28.38
    5.40637      26.82
    5.40898      26.39
    5.41158      26.30
    5.41419      25.03
    5.41680      23.60
    5.41941      23.69
    5.42201      22.93
    5.42462      21.49
    5.42723      21.37
    5.42984      22.84
    5.43245      21.12
    5.43506      21.95
    5.43768      21.18
    5.44029      21.48
    5.44290      21.82
    5.44552      20.55
    5.44813      18.75
    5.45075      18.31
    5.45336      17.66
    5.45598      17.31
    5.45860      17.23
    5.46121      23.12
    5.46383      23.84
    5.46645      21.95
    5.46907      21.13
    5.47169      20.01
    5.47431      21.55
    5.47693      20.83
    5.47955      20.05
    5.48218      18.99
    5.48480      18.88
    5.48742      18.58
    5.49005      18.52
    5.49267      18.68
    5.49530      18.92
    5.49792      20.37
    5.50055      20.62
    5.50318      20.52
    5.50581      17.86
    5.50844      16.28
    5.51107      15.31
    5.51370      16.15
    5.51633      18.59
    5.51896      20.63
    5.52159      24.00
    5.52422      27.22
    5.52686      31.54
    5.52949      35.59
    5.53212      39.11
    5.53476      42.96
    5.53740      46.89
    5.54003      48.66
    5.54267      49.25
    5.54530      49.64
    5.54794      52.37
    5.55058      58.91
    5.55322      58.23
    5.55586      60.26
    5.55850      60.86
    5.56114      63.87
    5.56379      70.49
    5.56643      75.26
    5.56907      72.79
    5.57171      81.96
    5.57436      83.54
    5.57700      80.62
    5.57965      78.81
    5.58230      70.31
    5.58494      67.86
    5.58759      67.20
    5.59024      71.08
    5.59289      76.36
    5.59554      86.89
    5.59819      93.26
    5.60084      89.22
    5.60349      95.20
    5.60614     102.16
    5.60879     104.85
    5.61145     111.22
    5.61410     113.67
    5.61675     110.92
    5.61941     113.32
    5.62207     112.50
    5.62472     102.85
    5.62738     100.80
    5.63003     100.27
    5.63269      96.22
    5.63535     106.33
    5.63801     116.29
    5.64067     118.41
    5.64333     115.21
    5.64599     110.33
    5.64865     110.27
    5.65132     113.13
    5.65398     117.03
    5.65664     117.26
    5.65931     114.23
    5.66197     113.26
    5.66464     116.03
    5.66730     115.05
    5.66997     117.86
    5.67264     117.49
    5.67531     119.10
    5.67798     114.57
    5.68064     104.27
    5.68331      95.59
    5.68598      92.30
    5.68865      85.31
    5.69133      85.20
    5.69400      80.91
    5.69667      77.35
    5.69935      76.96
    5.70202      73.12
    5.70469      71.76
    5.70737      70.72
    5.71005      68.44
    5.71272      67.76
    5.71540      67.85
    5.71808      70.18
    5.72076      83.76
    5.72344      73.82
    5.72612      59.10
    5.72880      57.06
    5.73148      59.13
    5.73416      58.52
    5.73684      57.54
    5.73952      54.51
    5.74221      51.30
    5.74489      47.55
    5.74758      46.80
    5.75026      46.06
    5.75295      45.29
    5.75563      46.20
    5.75832      43.14
    5.76101      38.85
    5.76370      36.16
    5.76639      36.08
    5.76908      42.72
    5.77177      51.03
    5.77446      56.30
    5.77715      59.18
    5.77984      62.07
    5.78254      66.68
    5.78523      72.80
    5.78792      78.84
    5.79062      86.22
    5.79331      96.94
    5.79601     105.81
    5.79871     109.09
    5.80140     104.28
    5.80410      92.56
    5.80680      79.89
    5.80950      72.27
    5.81220      66.54
    5.81490      65.50
    5.81760      64.89
    5.82030      65.03
ENDDATA            241
ENDSUBENT          258
SUBENT        C0304004   20220828   20230315   20230314       C220
BIB                  5          8
REACTION   (12-MG-26(P,N)13-AL-26,PAR,SIG)
PART-DET   (G) 417 keV gamma-ray
DETECTOR   (GELI) 60 cm3 Ge(Li) detector
ERR-ANALYS (ERR-1) Primarily from overall normalization (8%)
           (ERR-2) Background subtraction (0.3 mb)
           (ERR-S) Statistical uncertainty
HISTORY    (20220828A) On. ERR-1 and ERR-2 added. DATA-ERR ->
            ERR-S.
ENDBIB               8
COMMON               3          3
E-LVL      ERR-1      ERR-2
MEV        PER-CENT   MB
 0.417      8.         0.3
ENDCOMMON            3
DATA                 3        178
EN         DATA       ERR-S
MEV        MB         MB
    5.41680       0.00
    5.41941       2.01
    5.42201       6.09
    5.42462       7.44
    5.42723       9.06
    5.42984       8.80
    5.43245       1.62
    5.43506       1.79
    5.43768       4.10
    5.44029       6.38
    5.44290       6.35
    5.44552       5.11
    5.44813       9.87
    5.45075      10.75
    5.45336      20.13
    5.45598      34.55
    5.45860      59.73
    5.46121      71.01
    5.46383      66.79
    5.46645      57.30
    5.46907      51.56
    5.47169      42.73
    5.47431      33.42
    5.47693      34.56
    5.47955      24.48
    5.48218      20.13
    5.48480      15.84
    5.48742      13.45
    5.49005      11.09
    5.49267      12.25
    5.49530      13.41
    5.49792      13.51
    5.50055      13.60
    5.50318      18.11
    5.50581      22.91
    5.50844      46.43
    5.51107      67.80
    5.51370      83.82
    5.51633      99.89
    5.51896      98.17
    5.52159      96.37
    5.52422      94.57
    5.52686     103.28
    5.52949     112.05
    5.53212     121.60
    5.53476     138.46
    5.53740     170.01
    5.54003     207.15
    5.54267     235.45
    5.54530     245.00
    5.54794     234.02
    5.55058     202.01
    5.55322     162.57
    5.55586     134.58
    5.55850     110.14
    5.56114      90.81
    5.56379      72.58
    5.56643      62.71
    5.56907      61.73
    5.57171      58.09
    5.57436      51.34
    5.57700      56.21
    5.57965      55.42
    5.58230      49.51
    5.58494      20.93
    5.58759       8.28
    5.59024       5.65
    5.59289       4.32
    5.59554       2.06
    5.59819       1.06
    5.60084       5.47
    5.60349       4.17
    5.60614       6.87
    5.60879      10.12
    5.61145      11.84
    5.61410      18.83
    5.61675      21.91
    5.61941      28.48
    5.62207      37.19
    5.62472      47.01
    5.62738      65.43
    5.63003      75.32
    5.63269      78.24
    5.63535      73.08
    5.63801      56.44
    5.64067      45.19
    5.64333      36.36
    5.64599      26.85
    5.64865      18.03
    5.65132      14.07
    5.65398      12.42
    5.65664       8.87
    5.65931       8.95
    5.66197       6.69
    5.66464       5.82
    5.66730       5.42
    5.66997       4.64
    5.67264       3.93
    5.67531       6.45
    5.67798       6.45
    5.68064       3.69
    5.68331       7.05
    5.68598      18.71
    5.68865      16.32
    5.69133      10.07
    5.69400       7.16
    5.69667       7.77
    5.69935      11.62
    5.70202       9.98
    5.70469       7.25
    5.70737       8.03
    5.71005       5.99
    5.71272       3.48
    5.71540       4.81
    5.71808       4.80
    5.72076       9.18
    5.72344       9.17
    5.72612       6.82
    5.72880       8.53
    5.73148       9.85
    5.73416      11.27
    5.73684      12.36
    5.73952      11.69
    5.74221      12.11
    5.74489      11.95
    5.74758      13.49
    5.75026       9.33
    5.75295      12.60
    5.75563      19.29
    5.75832      21.48
    5.76101      42.57
    5.76370      52.49
    5.76639      51.70
    5.76908      47.86
    5.77177      37.30
    5.77446      26.89
    5.77715      19.18
    5.77984      17.44
    5.78254      15.76
    5.78523      10.76
    5.78792      10.45
    5.79062       8.19
    5.79331       4.92
    5.79601       6.23
    5.79871       8.01
    5.80140       9.36
    5.80410      13.65
    5.80680      24.58
    5.80950      31.00
    5.81220      36.57
    5.81490      42.72
    5.81760      46.28
    5.82030      48.84
     5.8230      43.65       1.45
     5.8257      34.29       1.40
     5.8284      30.25       1.36
     5.8311      22.28       1.33
     5.8338      19.82       1.30
     5.8365      20.94       1.31
     5.8392      25.33       1.33
     5.8419      26.65       1.35
     5.8446      35.90       1.41
     5.8473      40.43       1.46
     5.8501      41.44       1.46
     5.8528      41.58       1.45
     5.8555      41.91       1.43
     5.8582      55.72       1.53
     5.8609      66.29       1.58
     5.8636      42.40       1.43
     5.8663      25.70       1.33
     5.8690      16.04       1.26
     5.8717      10.00       1.23
     5.8745       5.41       1.22
     5.8772       6.15       1.22
     5.8799       5.23       1.22
     5.8826       8.67       1.25
     5.8853       7.94       1.23
     5.8880      10.60       1.26
ENDDATA            180
ENDSUBENT          197
SUBENT        C0304005   20220828   20230315   20230314       C220
BIB                  4          7
REACTION   (12-MG-26(P,N)13-AL-26,PAR,SIG,,,DERIV)
ANALYSIS    (p,n0)=(p,ntot)-(p,n1)-(p,n2)
STATUS     (DEP,C0304002) (p,ntot) cross section
           (DEP,C0304003) (p,n1) cross section
           (DEP,C0304004) (p,n2) cross section
HISTORY    (20220828A) On. REACTION corrected. E-LVl added.
            ERR-ANALYS deleted.
ENDBIB               7
COMMON               1          3
E-LVL
MEV
 0.
ENDCOMMON            3
DATA                 2        238
EN         DATA
MEV        MB
    5.20764      26.52
    5.20892      27.17
    5.21020      27.43
    5.21148      23.89
    5.21276      21.54
    5.21404      16.92
    5.21531      12.93
    5.21660      11.73
    5.21788      10.24
    5.22044       9.43
    5.22299      11.56
    5.22555      15.44
    5.22812      22.14
    5.23068      26.04
    5.23324      25.13
    5.23581      16.75
    5.23837       8.50
    5.24093       6.60
    5.24350       9.17
    5.24607      11.94
    5.24863      12.69
    5.25120      11.80
    5.25377       9.91
    5.25634       7.40
    5.25890       5.70
    5.26148       4.42
    5.26405       3.55
    5.26662       3.09
    5.26919       3.96
    5.27176       5.25
    5.27433       2.19
    5.27691       1.45
    5.27948       0.61
    5.28206       0.00
    5.28463      -0.41
    5.28721      -0.37
    5.28978      -0.01
    5.29236       1.80
    5.29494      -0.71
    5.29752      -2.51
    5.30010      -0.78
    5.30268       0.75
    5.30526       1.99
    5.30784       1.43
    5.31042       0.79
    5.31300       1.25
    5.31558       0.40
    5.31817       2.50
    5.32075       0.72
    5.32334       3.72
    5.32592       3.83
    5.32851       5.92
    5.33109       5.16
    5.33368       5.01
    5.33627       4.87
    5.33886      10.33
    5.34144       8.14
    5.34404       7.17
    5.34663       6.87
    5.34922       5.81
    5.35181       7.49
    5.35440      11.41
    5.35699      29.43
    5.35959      39.57
    5.36218      19.45
    5.36478      13.47
    5.36737      12.04
    5.36997      14.05
    5.37256      21.86
    5.37516      39.57
    5.37776      46.39
    5.38036      36.26
    5.38296      19.03
    5.38555      13.84
    5.38815      12.59
    5.39076      10.30
    5.39336       8.81
    5.39596       8.62
    5.39856      10.17
    5.40117      13.13
    5.40377      23.28
    5.40637      41.09
    5.40898      27.90
    5.41158      14.26
    5.41419       6.75
    5.41680       4.96
    5.41941       0.94
    5.42201      -2.89
    5.42462      -1.38
    5.42723      -0.36
    5.42984      -0.46
    5.43245       4.40
    5.43506       0.07
    5.43768      -1.57
    5.44029      -1.42
    5.44290      -0.93
    5.44552       1.28
    5.44813      -0.06
    5.45075       2.42
    5.45336       0.15
    5.45598      -0.40
    5.45860       4.57
    5.46121       9.50
    5.46383       6.74
    5.46645      13.88
    5.46907      40.42
    5.47169      22.73
    5.47431      10.52
    5.47693       7.27
    5.47955       7.44
    5.48218       6.49
    5.48480       5.44
    5.48742       6.72
    5.49005       8.43
    5.49267       6.71
    5.49530       6.01
    5.49792       5.47
    5.50055       8.56
    5.50318       8.19
    5.50581      14.53
    5.50844       4.69
    5.51107       8.81
    5.51370      20.31
    5.51633      10.98
    5.51896       8.64
    5.52159       5.96
    5.52422       6.16
    5.52686      -0.82
    5.52949      -1.94
    5.53212       0.03
    5.53476       1.32
    5.53740       6.40
    5.54003       0.28
    5.54267      -1.97
    5.54530      -0.30
    5.54794       3.30
    5.55058       0.32
    5.55322       0.78
    5.55586       0.11
    5.55850      -0.07
    5.56114      -0.50
    5.56379      -0.49
    5.56643      -0.84
    5.56907       0.69
    5.57171      -2.32
    5.57436      -1.08
    5.57700      -2.12
    5.57965       1.79
    5.58230       4.59
    5.58494       3.03
    5.58759      -1.52
    5.59024      -0.65
    5.59289       0.24
    5.59554      -2.37
    5.59819      -1.39
    5.60084       5.81
    5.60349      10.92
    5.60614       7.41
    5.60879       4.80
    5.61145       4.38
    5.61410       1.00
    5.61675       6.72
    5.61941      18.33
    5.62207      21.44
    5.62472      32.37
    5.62738      25.69
    5.63003      20.67
    5.63269      18.37
    5.63535       9.89
    5.63801      12.63
    5.64067      13.59
    5.64333      11.49
    5.64599      13.47
    5.64865      14.18
    5.65132      13.76
    5.65398       8.69
    5.65664       8.58
    5.65931      12.33
    5.66197      14.45
    5.66464      10.84
    5.66730      10.30
    5.66997      11.40
    5.67264      14.19
    5.67531       7.95
    5.67798       5.71
    5.68064      12.72
    5.68331      23.79
    5.68598      12.40
    5.68865       5.33
    5.69133       5.84
    5.69400      10.61
    5.69667      11.55
    5.69935      15.05
    5.70202      23.66
    5.70469      24.11
    5.70737      22.76
    5.71005      24.66
    5.71272      27.04
    5.71540      23.70
    5.71808      31.27
    5.72076      10.59
    5.72344       9.94
    5.72612      22.88
    5.72880      20.38
    5.73148      17.90
    5.73416      16.28
    5.73684      16.98
    5.73952      20.27
    5.74221      18.52
    5.74489      16.18
    5.74758      12.76
    5.75026      16.96
    5.75295      17.38
    5.75563      16.85
    5.75832      28.61
    5.76101      24.13
    5.76370      25.27
    5.76639      30.48
    5.76908      29.39
    5.77177      27.41
    5.77446      26.49
    5.77715      31.12
    5.77984      29.16
    5.78254      27.24
    5.78523      29.65
    5.78792      32.60
    5.79062      44.23
    5.79331      47.48
    5.79601      37.80
    5.79871      33.45
    5.80140      32.37
    5.80410      37.48
    5.80680      40.83
    5.80950      46.07
    5.81220      57.63
    5.81490      65.44
    5.81760     103.45
    5.82030      91.87
ENDDATA            240
ENDSUBENT          256
SUBENT        C0304006   20220828   20230315   20230314       C220
BIB                  6          9
REACTION   (11-NA-23(A,N)13-AL-26,,SIG)
PART-DET   (N)
METHOD     Neutron counting in a 4pi geometry
DETECTOR   (PROPC) Graphite-cube neutron-detection system
            consisted of 12 3He proportional counters
ERR-ANALYS (ERR-1) Primarily from overall normalization (5%)
           (ERR-2) Background subtraction (0.3 mb)
HISTORY    (20220828A) On. ERR-1 and ERR-2 added. Data at
            3.7538 MeV and above exchanged with C0304.009.
ENDBIB               9
COMMON               2          3
ERR-1      ERR-2
PER-CENT   MB
 5.         0.3
ENDCOMMON            3
DATA                 2       1971
EN         DATA
MEV        MB
     3.4829       0.00
     3.4834       0.21
     3.4839       0.21
     3.4845       0.22
     3.4850       0.30
     3.4855       0.38
     3.4860       0.71
     3.4866       1.29
     3.4871       1.87
     3.4876       2.32
     3.4882       2.77
     3.4887       2.87
     3.4892       2.69
     3.4897       2.49
     3.4903       1.99
     3.4908       1.50
     3.4913       1.20
     3.4918       1.06
     3.4924       0.92
     3.4929       0.82
     3.4934       0.71
     3.4939       0.62
     3.4945       0.54
     3.4950       0.47
     3.4955       0.45
     3.4961       0.43
     3.4966       0.42
     3.4971       0.40
     3.4976       0.39
     3.4982       0.41
     3.4987       0.44
     3.4992       0.44
     3.4998       0.43
     3.5003       0.42
     3.5008       0.44
     3.5013       0.45
     3.5019       0.46
     3.5024       0.47
     3.5029       0.49
     3.5034       0.55
     3.5040       0.61
     3.5045       0.73
     3.5050       0.88
     3.5056       1.04
     3.5061       1.15
     3.5066       1.27
     3.5071       1.28
     3.5077       1.23
     3.5082       1.16
     3.5087       1.03
     3.5093       0.91
     3.5098       0.84
     3.5103       0.79
     3.5108       0.74
     3.5114       0.69
     3.5119       0.64
     3.5124       0.59
     3.5130       0.55
     3.5135       0.52
     3.5140       0.54
     3.5145       0.55
     3.5151       0.55
     3.5156       0.54
     3.5161       0.54
     3.5167       0.56
     3.5172       0.59
     3.5177       0.60
     3.5182       0.61
     3.5188       0.61
     3.5193       0.59
     3.5198       0.58
     3.5204       0.60
     3.5209       0.63
     3.5214       0.65
     3.5219       0.64
     3.5225       0.64
     3.5230       0.68
     3.5235       0.72
     3.5241       0.78
     3.5246       0.90
     3.5251       1.02
     3.5257       1.49
     3.5262       2.04
     3.5267       2.82
     3.5272       4.09
     3.5278       5.37
     3.5283       6.17
     3.5288       6.85
     3.5294       7.06
     3.5299       6.39
     3.5304       5.72
     3.5310       4.73
     3.5315       3.67
     3.5320       2.80
     3.5325       2.27
     3.5331       1.73
     3.5336       1.46
     3.5341       1.22
     3.5347       1.03
     3.5352       0.92
     3.5357       0.80
     3.5363       0.77
     3.5368       0.75
     3.5373       0.73
     3.5378       0.71
     3.5384       0.69
     3.5389       0.66
     3.5394       0.62
     3.5400       0.60
     3.5405       0.59
     3.5410       0.58
     3.5416       0.55
     3.5421       0.51
     3.5426       0.49
     3.5432       0.49
     3.5437       0.48
     3.5442       0.48
     3.5447       0.48
     3.5453       0.48
     3.5458       0.48
     3.5463       0.49
     3.5469       0.49
     3.5474       0.49
     3.5479       0.49
     3.5485       0.49
     3.5490       0.50
     3.5495       0.50
     3.5501       0.50
     3.5506       0.51
     3.5511       0.51
     3.5517       0.51
     3.5522       0.51
     3.5527       0.51
     3.5532       0.52
     3.5538       0.52
     3.5543       0.52
     3.5548       0.53
     3.5554       0.53
     3.5559       0.53
     3.5564       0.53
     3.5570       0.53
     3.5575       0.53
     3.5580       0.53
     3.5586       0.54
     3.5591       0.54
     3.5596       0.54
     3.5602       0.54
     3.5607       0.54
     3.5612       0.55
     3.5618       0.57
     3.5623       0.59
     3.5628       0.61
     3.5634       0.62
     3.5639       0.64
     3.5644       0.66
     3.5650       0.67
     3.5655       0.69
     3.5660       0.71
     3.5666       0.73
     3.5671       0.74
     3.5676       0.76
     3.5681       0.76
     3.5687       0.77
     3.5692       0.77
     3.5697       0.77
     3.5703       0.77
     3.5708       0.77
     3.5713       0.77
     3.5719       0.77
     3.5724       0.77
     3.5729       1.30
     3.5735       1.50
     3.5740       1.70
     3.5745       2.07
     3.5751       2.51
     3.5756       2.97
     3.5761       3.44
     3.5767       3.91
     3.5772       4.16
     3.5777       4.32
     3.5783       4.36
     3.5788       3.96
     3.5793       3.56
     3.5799       3.10
     3.5804       2.61
     3.5809       2.18
     3.5815       1.94
     3.5820       1.69
     3.5825       1.54
     3.5831       1.43
     3.5836       1.32
     3.5842       1.24
     3.5847       1.15
     3.5852       1.16
     3.5858       1.19
     3.5863       1.21
     3.5868       1.21
     3.5874       1.20
     3.5879       1.16
     3.5884       1.11
     3.5890       1.09
     3.5895       1.13
     3.5900       1.17
     3.5906       1.14
     3.5911       1.10
     3.5916       1.08
     3.5922       1.13
     3.5927       1.18
     3.5932       1.19
     3.5938       1.18
     3.5943       1.20
     3.5948       1.25
     3.5954       1.31
     3.5959       1.35
     3.5964       1.38
     3.5970       1.41
     3.5975       1.47
     3.5980       1.52
     3.5986       1.90
     3.5991       2.34
     3.5997       3.24
     3.6002       5.00
     3.6007       6.75
     3.6013       8.19
     3.6018       9.59
     3.6023      10.27
     3.6029       9.87
     3.6034       9.46
     3.6039       8.56
     3.6045       7.61
     3.6050       6.65
     3.6055       5.69
     3.6061       4.72
     3.6066       4.44
     3.6071       4.24
     3.6077       4.09
     3.6082       4.03
     3.6088       3.97
     3.6093       4.07
     3.6098       4.17
     3.6104       4.14
     3.6109       3.97
     3.6114       3.79
     3.6120       3.67
     3.6125       3.54
     3.6130       3.33
     3.6136       2.99
     3.6141       2.66
     3.6147       2.44
     3.6152       2.24
     3.6157       2.03
     3.6163       1.81
     3.6168       1.60
     3.6173       1.57
     3.6179       1.53
     3.6184       1.48
     3.6189       1.40
     3.6195       1.33
     3.6200       1.25
     3.6206       1.18
     3.6211       1.15
     3.6216       1.16
     3.6222       1.16
     3.6227       1.10
     3.6232       1.04
     3.6238       1.02
     3.6243       1.04
     3.6248       1.06
     3.6254       1.01
     3.6259       0.96
     3.6265       0.99
     3.6270       1.08
     3.6275       1.17
     3.6281       1.24
     3.6286       1.31
     3.6291       1.50
     3.6297       1.79
     3.6302       2.06
     3.6308       2.18
     3.6313       2.31
     3.6318       2.30
     3.6324       2.21
     3.6329       2.13
     3.6334       2.16
     3.6340       2.18
     3.6345       2.19
     3.6351       2.18
     3.6356       2.17
     3.6361       2.22
     3.6367       2.27
     3.6372       2.39
     3.6377       2.55
     3.6383       2.74
     3.6388       3.08
     3.6394       3.42
     3.6399       3.70
     3.6404       3.94
     3.6410       4.25
     3.6415       4.97
     3.6421       5.69
     3.6426       7.00
     3.6431       8.62
     3.6437      10.50
     3.6442      13.38
     3.6447      16.27
     3.6453      18.85
     3.6458      21.30
     3.6464      23.50
     3.6469      24.68
     3.6474      25.86
     3.6480      25.71
     3.6485      24.97
     3.6491      23.96
     3.6496      21.83
     3.6501      19.69
     3.6507      17.24
     3.6512      14.68
     3.6517      12.53
     3.6523      11.59
     3.6528      10.65
     3.6534       9.31
     3.6539       7.83
     3.6544       6.54
     3.6550       5.84
     3.6555       5.13
     3.6561       4.60
     3.6566       4.12
     3.6571       3.69
     3.6577       3.46
     3.6582       3.22
     3.6588       3.03
     3.6593       2.85
     3.6598       2.65
     3.6604       2.42
     3.6609       2.20
     3.6615       2.08
     3.6620       1.99
     3.6625       1.89
     3.6631       1.78
     3.6636       1.67
     3.6642       1.57
     3.6647       1.46
     3.6652       1.38
     3.6658       1.32
     3.6663       1.27
     3.6669       1.25
     3.6674       1.23
     3.6679       1.21
     3.6685       1.17
     3.6690       1.14
     3.6696       1.12
     3.6701       1.11
     3.6706       1.09
     3.6712       1.04
     3.6717       1.00
     3.6723       0.99
     3.6728       0.98
     3.6733       0.98
     3.6739       0.99
     3.6744       1.01
     3.6750       1.02
     3.6755       1.03
     3.6760       1.03
     3.6766       1.02
     3.6771       1.00
     3.6777       0.97
     3.6782       0.94
     3.6787       0.92
     3.6793       0.92
     3.6798       0.91
     3.6804       0.91
     3.6809       0.91
     3.6814       0.90
     3.6820       0.88
     3.6825       0.85
     3.6831       0.82
     3.6836       0.80
     3.6842       0.79
     3.6847       0.81
     3.6852       0.83
     3.6858       0.86
     3.6863       0.88
     3.6869       0.90
     3.6874       0.91
     3.6879       0.93
     3.6885       0.95
     3.6890       0.98
     3.6896       0.97
     3.6901       0.95
     3.6907       0.92
     3.6912       0.89
     3.6917       0.87
     3.6923       0.85
     3.6928       0.84
     3.6934       0.83
     3.6939       0.86
     3.6944       0.88
     3.6950       0.89
     3.6955       0.88
     3.6961       0.88
     3.6966       0.87
     3.6972       0.85
     3.6977       0.91
     3.6982       1.03
     3.6988       1.15
     3.6993       1.21
     3.6999       1.27
     3.7004       1.44
     3.7010       1.69
     3.7015       1.95
     3.7020       2.24
     3.7026       2.53
     3.7031       2.76
     3.7037       2.95
     3.7042       3.12
     3.7048       3.10
     3.7053       3.07
     3.7058       3.03
     3.7064       2.98
     3.7069       2.91
     3.7075       2.73
     3.7080       2.56
     3.7086       2.20
     3.7091       1.76
     3.7096       1.38
     3.7102       1.38
     3.7107       1.37
     3.7113       1.61
     3.7118       1.97
     3.7124       2.38
     3.7129       3.08
     3.7134       3.78
     3.7140       4.18
     3.7145       4.43
     3.7151       4.56
     3.7156       4.11
     3.7162       3.65
     3.7167       3.19
     3.7173       2.74
     3.7178       2.31
     3.7183       1.97
     3.7189       1.62
     3.7194       1.39
     3.7200       1.21
     3.7205       1.07
     3.7211       1.06
     3.7216       1.05
     3.7221       1.01
     3.7227       0.96
     3.7232       0.91
     3.7238       0.91
     3.7243       0.90
     3.7249       0.91
     3.7254       0.93
     3.7260       0.95
     3.7265       1.00
     3.7270       1.05
     3.7276       1.06
     3.7281       1.06
     3.7287       1.07
     3.7292       1.07
     3.7298       1.07
     3.7303       1.09
     3.7309       1.11
     3.7314       1.13
     3.7319       1.15
     3.7325       1.18
     3.7330       1.19
     3.7336       1.20
     3.7341       1.21
     3.7347       1.22
     3.7352       1.23
     3.7358       1.26
     3.7363       1.30
     3.7369       1.34
     3.7374       1.39
     3.7379       1.43
     3.7385       1.53
     3.7390       1.65
     3.7396       1.76
     3.7401       1.87
     3.7407       1.98
     3.7412       2.17
     3.7418       2.38
     3.7423       2.63
     3.7429       2.95
     3.7434       3.27
     3.7439       3.32
     3.7445       3.33
     3.7450       3.41
     3.7456       3.60
     3.7461       3.79
     3.7467       4.11
     3.7472       4.45
     3.7478       4.84
     3.7483       5.32
     3.7489       5.80
     3.7494       5.98
     3.7500       6.13
     3.7505       6.14
     3.7510       5.92
     3.7516       5.71
     3.7521       5.04
     3.7527       4.33
     3.7532       3.85
     3.7538       3.68
     3.7543       3.50
     3.7549       3.43
     3.7554       3.36
     3.7560       3.28
     3.7565       3.17
     3.7571       3.07
     3.7576       2.99
     3.7581       2.90
     3.7587       2.84
     3.7592       2.79
     3.7598       2.75
     3.7603       2.79
     3.7609       2.83
     3.7614       2.87
     3.7620       2.91
     3.7625       2.94
     3.7631       3.01
     3.7636       3.07
     3.7642       3.17
     3.7647       3.32
     3.7653       3.47
     3.7658       3.74
     3.7664       4.02
     3.7669       4.43
     3.7674       4.96
     3.7680       5.48
     3.7685       5.81
     3.7691       6.14
     3.7696       6.63
     3.7702       7.24
     3.7707       7.83
     3.7713       8.17
     3.7718       8.51
     3.7724       8.64
     3.7729       8.59
     3.7735       8.51
     3.7740       8.16
     3.7746       7.82
     3.7751       7.38
     3.7757       6.89
     3.7762       6.42
     3.7768       6.17
     3.7773       5.92
     3.7779       5.68
     3.7784       5.46
     3.7790       5.28
     3.7795       5.46
     3.7801       5.64
     3.7806       6.10
     3.7811       6.74
     3.7817       7.64
     3.7822       9.97
     3.7828      12.31
     3.7833      14.59
     3.7839      16.85
     3.7844      19.09
     3.7850      21.25
     3.7855      23.41
     3.7861      24.14
     3.7866      24.10
     3.7872      23.77
     3.7877      21.77
     3.7883      19.76
     3.7888      17.60
     3.7894      15.36
     3.7899      13.20
     3.7905      11.30
     3.7910       9.40
     3.7916       8.18
     3.7921       7.24
     3.7927       6.37
     3.7932       5.78
     3.7938       5.20
     3.7943       4.65
     3.7949       4.10
     3.7954       3.63
     3.7960       3.38
     3.7965       3.13
     3.7971       3.00
     3.7976       2.91
     3.7982       2.81
     3.7987       2.66
     3.7993       2.52
     3.7998       2.46
     3.8004       2.43
     3.8009       2.38
     3.8015       2.30
     3.8020       2.21
     3.8026       2.19
     3.8031       2.20
     3.8037       2.17
     3.8042       2.10
     3.8048       2.02
     3.8053       2.04
     3.8059       2.07
     3.8064       2.10
     3.8070       2.12
     3.8075       2.14
     3.8081       2.08
     3.8086       2.01
     3.8092       1.96
     3.8097       1.98
     3.8103       1.99
     3.8108       2.01
     3.8114       2.03
     3.8119       2.07
     3.8125       2.18
     3.8130       2.29
     3.8136       2.33
     3.8141       2.37
     3.8147       2.42
     3.8152       2.50
     3.8158       2.58
     3.8163       2.82
     3.8169       3.10
     3.8174       3.37
     3.8180       3.64
     3.8185       3.91
     3.8191       4.15
     3.8196       4.39
     3.8202       4.64
     3.8207       4.90
     3.8213       5.16
     3.8218       5.77
     3.8224       6.41
     3.8229       7.49
     3.8235       9.23
     3.8240      10.97
     3.8246      13.27
     3.8251      15.59
     3.8257      17.31
     3.8263      18.29
     3.8268      19.27
     3.8274      19.59
     3.8279      19.89
     3.8285      19.78
     3.8290      19.19
     3.8296      18.59
     3.8301      17.21
     3.8307      15.78
     3.8312      14.44
     3.8318      13.21
     3.8323      11.98
     3.8329      10.65
     3.8334       9.33
     3.8340       8.29
     3.8345       7.53
     3.8351       6.78
     3.8356       6.38
     3.8362       5.98
     3.8367       5.59
     3.8373       5.21
     3.8378       4.82
     3.8384       4.50
     3.8390       4.18
     3.8395       3.97
     3.8401       3.86
     3.8406       3.74
     3.8412       3.66
     3.8417       3.58
     3.8423       3.49
     3.8428       3.40
     3.8434       3.31
     3.8439       3.25
     3.8445       3.19
     3.8450       3.17
     3.8456       3.18
     3.8461       3.18
     3.8467       3.10
     3.8472       3.03
     3.8478       2.95
     3.8484       2.87
     3.8489       2.79
     3.8495       2.71
     3.8500       2.63
     3.8506       2.61
     3.8511       2.63
     3.8517       2.65
     3.8522       2.53
     3.8528       2.42
     3.8533       2.33
     3.8539       2.26
     3.8544       2.19
     3.8550       2.15
     3.8555       2.10
     3.8561       2.08
     3.8567       2.06
     3.8572       2.05
     3.8578       2.07
     3.8583       2.08
     3.8589       2.17
     3.8594       2.29
     3.8600       2.55
     3.8605       3.60
     3.8611       4.65
     3.8616       6.70
     3.8622       9.18
     3.8628      11.53
     3.8633      13.34
     3.8639      15.16
     3.8644      15.65
     3.8650      15.58
     3.8655      15.08
     3.8661      12.88
     3.8666      10.67
     3.8672       8.70
     3.8677       6.82
     3.8683       5.14
     3.8688       4.26
     3.8694       3.37
     3.8700       2.89
     3.8705       2.54
     3.8711       2.25
     3.8716       2.13
     3.8722       2.01
     3.8727       1.95
     3.8733       1.91
     3.8738       1.89
     3.8744       1.94
     3.8750       1.98
     3.8755       1.95
     3.8761       1.89
     3.8766       1.85
     3.8772       1.87
     3.8777       1.88
     3.8783       1.92
     3.8788       1.96
     3.8794       2.01
     3.8800       2.05
     3.8805       2.09
     3.8811       2.15
     3.8816       2.20
     3.8822       2.25
     3.8827       2.28
     3.8833       2.30
     3.8838       2.41
     3.8844       2.53
     3.8850       2.68
     3.8855       2.86
     3.8861       3.04
     3.8866       3.31
     3.8872       3.60
     3.8877       3.95
     3.8883       4.42
     3.8888       4.89
     3.8894       5.28
     3.8900       5.65
     3.8905       5.98
     3.8911       6.25
     3.8916       6.52
     3.8922       6.49
     3.8927       6.43
     3.8933       6.32
     3.8939       6.14
     3.8944       5.95
     3.8950       5.71
     3.8955       5.47
     3.8961       5.27
     3.8966       5.13
     3.8972       4.99
     3.8978       4.95
     3.8983       4.93
     3.8989       5.02
     3.8994       5.25
     3.9000       5.47
     3.9005       5.29
     3.9011       5.08
     3.9016       4.78
     3.9022       4.36
     3.9028       3.94
     3.9033       3.53
     3.9039       3.13
     3.9044       2.81
     3.9050       2.59
     3.9055       2.38
     3.9061       2.24
     3.9067       2.09
     3.9072       2.03
     3.9078       2.04
     3.9083       2.06
     3.9089       1.98
     3.9095       1.91
     3.9100       1.86
     3.9106       1.83
     3.9111       1.80
     3.9117       1.78
     3.9122       1.76
     3.9128       1.75
     3.9134       1.74
     3.9139       1.74
     3.9145       1.70
     3.9150       1.67
     3.9156       1.65
     3.9161       1.66
     3.9167       1.67
     3.9173       1.72
     3.9178       1.76
     3.9184       1.75
     3.9189       1.68
     3.9195       1.62
     3.9201       1.58
     3.9206       1.54
     3.9212       1.52
     3.9217       1.50
     3.9223       1.49
     3.9228       1.50
     3.9234       1.51
     3.9240       1.51
     3.9245       1.48
     3.9251       1.46
     3.9256       1.46
     3.9262       1.45
     3.9268       1.46
     3.9273       1.48
     3.9279       1.50
     3.9284       1.58
     3.9290       1.65
     3.9296       1.71
     3.9301       1.78
     3.9307       1.86
     3.9312       2.09
     3.9318       2.32
     3.9323       2.53
     3.9329       2.71
     3.9335       2.93
     3.9340       3.32
     3.9346       3.71
     3.9351       4.38
     3.9357       5.17
     3.9363       5.91
     3.9368       6.42
     3.9374       6.94
     3.9379       7.55
     3.9385       8.21
     3.9391       8.77
     3.9396       8.96
     3.9402       9.15
     3.9407       9.12
     3.9413       8.99
     3.9419       8.86
     3.9424       8.69
     3.9430       8.52
     3.9435       8.48
     3.9441       8.48
     3.9447       8.54
     3.9452       8.74
     3.9458       8.94
     3.9463       8.88
     3.9469       8.74
     3.9475       8.56
     3.9480       8.27
     3.9486       7.99
     3.9491       7.54
     3.9497       7.06
     3.9503       6.48
     3.9508       5.70
     3.9514       4.92
     3.9519       4.50
     3.9525       4.17
     3.9531       3.88
     3.9536       3.71
     3.9542       3.54
     3.9548       3.37
     3.9553       3.21
     3.9559       3.09
     3.9564       3.08
     3.9570       3.06
     3.9576       3.05
     3.9581       3.04
     3.9587       3.03
     3.9592       3.02
     3.9598       3.01
     3.9604       3.05
     3.9609       3.11
     3.9615       3.16
     3.9620       3.20
     3.9626       3.24
     3.9632       3.33
     3.9637       3.43
     3.9643       3.54
     3.9649       3.66
     3.9654       3.78
     3.9660       4.05
     3.9665       4.34
     3.9671       4.69
     3.9677       5.14
     3.9682       5.58
     3.9688       6.04
     3.9693       6.51
     3.9699       7.06
     3.9705       7.72
     3.9710       8.39
     3.9716       8.40
     3.9722       8.37
     3.9727       8.14
     3.9733       7.67
     3.9738       7.19
     3.9744       6.77
     3.9750       6.34
     3.9755       6.03
     3.9761       5.87
     3.9767       5.71
     3.9772       5.52
     3.9778       5.34
     3.9783       5.01
     3.9789       4.50
     3.9795       3.99
     3.9800       3.61
     3.9806       3.22
     3.9812       2.85
     3.9817       2.51
     3.9823       2.17
     3.9828       2.03
     3.9834       1.89
     3.9840       1.77
     3.9845       1.67
     3.9851       1.57
     3.9857       1.52
     3.9862       1.48
     3.9868       1.43
     3.9873       1.39
     3.9879       1.34
     3.9885       1.34
     3.9890       1.34
     3.9896       1.35
     3.9902       1.36
     3.9907       1.37
     3.9913       1.42
     3.9919       1.48
     3.9924       1.53
     3.9930       1.57
     3.9935       1.62
     3.9941       1.67
     3.9947       1.72
     3.9952       1.78
     3.9958       1.85
     3.9964       1.92
     3.9969       1.95
     3.9975       1.98
     3.9981       1.96
     3.9986       1.91
     3.9992       1.87
     3.9997       1.92
     4.0003       1.98
     4.0009       1.97
     4.0014       1.94
     4.0020       1.92
     4.0026       2.02
     4.0031       2.12
     4.0037       2.21
     4.0043       2.27
     4.0048       2.37
     4.0054       2.63
     4.0060       2.88
     4.0065       3.17
     4.0071       3.48
     4.0076       3.80
     4.0082       4.16
     4.0088       4.51
     4.0093       4.85
     4.0099       5.18
     4.0105       5.44
     4.0110       5.44
     4.0116       5.45
     4.0122       5.12
     4.0127       4.66
     4.0133       4.20
     4.0139       3.80
     4.0144       3.39
     4.0150       3.11
     4.0156       2.88
     4.0161       2.66
     4.0167       2.47
     4.0173       2.29
     4.0178       2.23
     4.0184       2.21
     4.0189       2.19
     4.0195       2.15
     4.0201       2.12
     4.0206       2.09
     4.0212       2.06
     4.0218       2.04
     4.0223       2.06
     4.0229       2.08
     4.0235       2.13
     4.0240       2.20
     4.0246       2.29
     4.0252       2.44
     4.0257       2.60
     4.0263       2.86
     4.0269       3.14
     4.0274       3.51
     4.0280       4.07
     4.0286       4.63
     4.0291       5.91
     4.0297       7.38
     4.0303       9.19
     4.0308      11.82
     4.0314      14.46
     4.0320      16.70
     4.0325      18.87
     4.0331      20.13
     4.0337      19.68
     4.0342      19.24
     4.0348      17.92
     4.0354      16.45
     4.0359      15.53
     4.0365      15.64
     4.0371      15.74
     4.0376      18.95
     4.0382      22.71
     4.0388      26.15
     4.0393      29.11
     4.0399      32.08
     4.0405      31.35
     4.0410      30.22
     4.0416      28.14
     4.0422      24.63
     4.0427      21.12
     4.0433      17.98
     4.0439      14.87
     4.0444      12.38
     4.0450      10.81
     4.0456       9.25
     4.0461       8.34
     4.0467       7.51
     4.0473       7.56
     4.0478       8.67
     4.0484       9.78
     4.0490      13.33
     4.0495      17.01
     4.0501      20.26
     4.0507      23.00
     4.0512      25.73
     4.0518      25.60
     4.0524      25.32
     4.0529      23.95
     4.0535      21.25
     4.0541      18.55
     4.0546      15.73
     4.0552      12.91
     4.0558      10.57
     4.0563       8.73
     4.0569       6.89
     4.0575       5.75
     4.0581       4.61
     4.0586       3.87
     4.0592       3.51
     4.0598       3.15
     4.0603       3.04
     4.0609       2.93
     4.0615       2.84
     4.0620       2.75
     4.0626       2.67
     4.0632       2.66
     4.0637       2.66
     4.0643       2.65
     4.0649       2.63
     4.0654       2.61
     4.0660       2.70
     4.0666       2.79
     4.0671       2.83
     4.0677       2.84
     4.0683       2.86
     4.0689       3.00
     4.0694       3.14
     4.0700       3.26
     4.0706       3.36
     4.0711       3.47
     4.0717       3.67
     4.0723       3.87
     4.0728       3.99
     4.0734       4.05
     4.0740       4.12
     4.0745       4.22
     4.0751       4.32
     4.0757       4.48
     4.0763       4.67
     4.0768       4.86
     4.0774       4.99
     4.0780       5.12
     4.0785       5.22
     4.0791       5.31
     4.0797       5.42
     4.0802       5.61
     4.0808       5.79
     4.0814       5.90
     4.0819       5.97
     4.0825       6.03
     4.0831       6.06
     4.0837       6.08
     4.0842       6.08
     4.0848       6.07
     4.0854       6.06
     4.0859       6.00
     4.0865       5.95
     4.0871       5.85
     4.0876       5.73
     4.0882       5.62
     4.0888       5.51
     4.0894       5.40
     4.0899       5.56
     4.0905       5.82
     4.0911       6.20
     4.0916       6.93
     4.0922       7.65
     4.0928       7.81
     4.0934       7.78
     4.0939       7.65
     4.0945       7.22
     4.0951       6.79
     4.0956       6.19
     4.0962       5.53
     4.0968       4.94
     4.0973       4.52
     4.0979       4.10
     4.0985       3.78
     4.0991       3.50
     4.0996       3.28
     4.1002       3.20
     4.1008       3.12
     4.1013       3.09
     4.1019       3.07
     4.1025       3.03
     4.1031       2.91
     4.1036       2.80
     4.1042       2.77
     4.1048       2.75
     4.1053       2.75
     4.1059       2.75
     4.1065       2.76
     4.1071       2.75
     4.1076       2.74
     4.1082       2.74
     4.1088       2.75
     4.1093       2.76
     4.1099       3.27
     4.1105       3.87
     4.1111       4.84
     4.1116       6.51
     4.1122       8.17
     4.1128      10.69
     4.1133      13.35
     4.1139      16.69
     4.1145      21.27
     4.1151      25.85
     4.1156      27.39
     4.1162      28.58
     4.1168      28.66
     4.1174      27.05
     4.1179      25.45
     4.1185      23.63
     4.1191      21.78
     4.1196      20.17
     4.1202      18.91
     4.1208      17.64
     4.1214      16.80
     4.1219      15.97
     4.1225      15.17
     4.1231      14.39
     4.1236      13.62
     4.1242      12.97
     4.1248      12.33
     4.1254      11.80
     4.1259      11.40
     4.1265      11.00
     4.1271      10.92
     4.1277      10.86
     4.1282      10.93
     4.1288      11.14
     4.1294      11.36
     4.1300      11.71
     4.1305      12.05
     4.1311      12.48
     4.1317      13.00
     4.1322      13.52
     4.1328      14.14
     4.1334      14.76
     4.1340      15.62
     4.1345      16.72
     4.1351      17.82
     4.1357      18.97
     4.1363      20.13
     4.1368      21.32
     4.1374      22.54
     4.1380      23.79
     4.1386      25.44
     4.1391      27.09
     4.1397      28.99
     4.1403      31.10
     4.1408      33.17
     4.1414      34.36
     4.1420      35.55
     4.1426      36.85
     4.1431      38.22
     4.1437      39.58
     4.1443      40.72
     4.1449      41.86
     4.1454      42.49
     4.1460      42.78
     4.1466      43.02
     4.1472      42.81
     4.1477      42.61
     4.1483      41.89
     4.1489      40.84
     4.1495      39.79
     4.1500      38.72
     4.1506      37.65
     4.1512      35.81
     4.1518      33.57
     4.1523      31.57
     4.1529      30.99
     4.1535      30.40
     4.1541      30.17
     4.1546      30.13
     4.1552      30.13
     4.1558      30.38
     4.1564      30.63
     4.1569      30.26
     4.1575      29.55
     4.1581      28.74
     4.1587      27.37
     4.1592      26.01
     4.1598      24.71
     4.1604      23.45
     4.1610      22.35
     4.1615      21.91
     4.1621      21.47
     4.1627      21.62
     4.1633      22.02
     4.1638      22.48
     4.1644      23.19
     4.1650      23.89
     4.1656      24.04
     4.1661      23.94
     4.1667      23.66
     4.1673      22.65
     4.1679      21.64
     4.1684      20.59
     4.1690      19.53
     4.1696      18.46
     4.1702      17.35
     4.1707      16.24
     4.1713      15.44
     4.1719      14.75
     4.1725      14.14
     4.1730      13.76
     4.1736      13.39
     4.1742      13.19
     4.1748      13.02
     4.1754      12.85
     4.1759      12.64
     4.1765      12.43
     4.1771      12.46
     4.1777      12.57
     4.1782      12.70
     4.1788      12.91
     4.1794      13.12
     4.1800      13.25
     4.1805      13.35
     4.1811      13.51
     4.1817      13.82
     4.1823      14.13
     4.1828      14.48
     4.1834      14.85
     4.1840      15.22
     4.1846      15.60
     4.1852      15.97
     4.1857      16.31
     4.1863      16.64
     4.1869      17.00
     4.1875      17.41
     4.1880      17.82
     4.1886      18.08
     4.1892      18.33
     4.1898      18.55
     4.1903      18.75
     4.1909      18.95
     4.1915      19.04
     4.1921      19.12
     4.1927      19.22
     4.1932      19.34
     4.1938      19.46
     4.1944      19.58
     4.1950      19.70
     4.1955      19.80
     4.1961      19.87
     4.1967      19.94
     4.1973      20.43
     4.1979      20.95
     4.1984      21.54
     4.1990      22.18
     4.1996      22.83
     4.2002      23.95
     4.2007      25.10
     4.2013      26.93
     4.2019      29.58
     4.2025      32.23
     4.2031      36.17
     4.2036      40.16
     4.2042      45.09
     4.2048      51.15
     4.2054      57.20
     4.2060      63.07
     4.2065      68.92
     4.2071      72.78
     4.2077      74.61
     4.2083      76.45
     4.2088      73.11
     4.2094      69.78
     4.2100      65.44
     4.2106      60.11
     4.2112      54.78
     4.2117      48.25
     4.2123      41.71
     4.2129      37.12
     4.2135      34.13
     4.2141      31.26
     4.2146      30.55
     4.2152      29.85
     4.2158      29.46
     4.2164      29.34
     4.2169      29.21
     4.2175      28.95
     4.2181      28.69
     4.2187      27.64
     4.2193      25.94
     4.2198      24.27
     4.2204      23.34
     4.2210      22.40
     4.2216      21.49
     4.2222      20.59
     4.2227      19.71
     4.2233      18.98
     4.2239      18.24
     4.2245      17.66
     4.2251      17.16
     4.2256      16.66
     4.2262      16.08
     4.2268      15.50
     4.2274      15.18
     4.2280      15.04
     4.2285      14.86
     4.2291      14.43
     4.2297      14.00
     4.2303      13.65
     4.2309      13.33
     4.2314      12.98
     4.2320      12.43
     4.2326      11.88
     4.2332      11.53
     4.2338      11.28
     4.2343      11.01
     4.2349      10.64
     4.2355      10.26
     4.2361      10.02
     4.2367       9.82
     4.2372       9.61
     4.2378       9.33
     4.2384       9.04
     4.2390       8.78
     4.2396       8.54
     4.2401       8.25
     4.2407       7.81
     4.2413       7.37
     4.2419       7.04
     4.2425       6.77
     4.2430       6.51
     4.2436       6.30
     4.2442       6.09
     4.2448       5.95
     4.2454       5.83
     4.2460       5.71
     4.2465       5.60
     4.2471       5.49
     4.2477       5.58
     4.2483       5.73
     4.2489       5.97
     4.2494       6.47
     4.2500       6.98
     4.2506       7.32
     4.2512       7.60
     4.2518       7.82
     4.2523       7.89
     4.2529       7.95
     4.2535       7.83
     4.2541       7.65
     4.2547       7.53
     4.2553       7.53
     4.2558       7.52
     4.2564       7.79
     4.2570       8.12
     4.2576       8.67
     4.2582       9.73
     4.2587      10.80
     4.2593      11.91
     4.2599      13.03
     4.2605      13.78
     4.2611      13.84
     4.2617      13.89
     4.2622      13.15
     4.2628      12.27
     4.2634      11.36
     4.2640      10.40
     4.2646       9.43
     4.2652       8.52
     4.2657       7.61
     4.2663       6.91
     4.2669       6.56
     4.2675       6.21
     4.2681       5.99
     4.2686       5.78
     4.2692       5.63
     4.2698       5.59
     4.2704       5.54
     4.2710       5.52
     4.2716       5.50
     4.2721       5.55
     4.2727       5.70
     4.2733       5.86
     4.2739       5.90
     4.2745       5.93
     4.2751       5.94
     4.2756       5.93
     4.2762       5.91
     4.2768       5.99
     4.2774       6.08
     4.2780       6.26
     4.2786       6.56
     4.2791       6.86
     4.2797       7.14
     4.2803       7.41
     4.2809       8.11
     4.2815       9.33
     4.2821      10.55
     4.2826      12.35
     4.2832      14.15
     4.2838      15.59
     4.2844      16.67
     4.2850      17.75
     4.2856      17.61
     4.2861      17.47
     4.2867      17.30
     4.2873      17.08
     4.2879      16.87
     4.2885      16.76
     4.2891      16.66
     4.2896      16.98
     4.2902      17.65
     4.2908      18.37
     4.2914      19.96
     4.2920      21.56
     4.2926      22.71
     4.2932      23.50
     4.2937      24.30
     4.2943      25.27
     4.2949      26.25
     4.2955      26.71
     4.2961      26.74
     4.2967      26.73
     4.2972      26.30
     4.2978      25.88
     4.2984      25.43
     4.2990      24.96
     4.2996      24.56
     4.3002      24.68
     4.3008      24.80
     4.3013      24.99
     4.3019      25.22
     4.3025      25.42
     4.3031      25.34
     4.3037      25.26
     4.3043      25.04
     4.3048      24.75
     4.3054      24.43
     4.3060      23.92
     4.3066      23.41
     4.3072      22.58
     4.3078      21.57
     4.3084      20.44
     4.3089      18.55
     4.3095      16.66
     4.3101      15.77
     4.3107      15.42
     4.3113      15.07
     4.3119      14.71
     4.3125      14.36
     4.3130      14.12
     4.3136      13.94
     4.3142      13.73
     4.3148      13.40
     4.3154      13.07
     4.3160      13.01
     4.3166      13.06
     4.3171      13.10
     4.3177      13.10
     4.3183      13.10
     4.3189      13.13
     4.3195      13.17
     4.3201      13.22
     4.3207      13.30
     4.3212      13.39
     4.3218      13.65
     4.3224      13.97
     4.3230      14.21
     4.3236      14.18
     4.3242      14.16
     4.3248      14.04
     4.3254      13.87
     4.3259      13.74
     4.3265      13.68
     4.3271      13.62
     4.3277      13.67
     4.3283      13.74
     4.3289      13.81
     4.3295      13.87
     4.3300      13.93
     4.3306      14.02
     4.3312      14.12
     4.3318      14.20
     4.3324      14.25
     4.3330      14.30
     4.3336      14.52
     4.3342      14.76
     4.3347      14.96
     4.3353      15.01
     4.3359      15.07
     4.3365      15.52
     4.3371      16.03
     4.3377      16.50
     4.3383      16.90
     4.3389      17.30
     4.3394      18.44
     4.3400      19.71
     4.3406      21.03
     4.3412      22.44
     4.3418      23.85
     4.3424      25.62
     4.3430      27.45
     4.3436      29.44
     4.3441      31.72
     4.3447      34.00
     4.3453      36.58
     4.3459      39.18
     4.3465      40.19
     4.3471      38.80
     4.3477      37.41
     4.3483      35.41
     4.3488      33.35
     4.3494      31.27
     4.3500      29.18
     4.3506      27.09
     4.3512      25.83
     4.3518      24.67
     4.3524      23.88
     4.3530      23.55
     4.3535      23.23
     4.3541      22.92
     4.3547      22.62
     4.3553      22.43
     4.3559      22.37
     4.3565      22.31
     4.3571      22.43
     4.3577      22.55
     4.3583      22.88
     4.3588      23.43
     4.3594      23.99
     4.3600      24.40
     4.3606      24.81
     4.3612      25.31
     4.3618      25.91
     4.3624      26.50
     4.3630      28.08
     4.3636      29.65
     4.3641      30.92
     4.3647      31.90
     4.3653      32.88
     4.3659      34.56
     4.3665      36.24
     4.3671      37.73
     4.3677      39.07
     4.3683      40.39
     4.3689      41.36
     4.3694      42.34
     4.3700      42.64
     4.3706      42.38
     4.3712      42.07
     4.3718      40.93
     4.3724      39.79
     4.3730      38.45
     4.3736      36.94
     4.3742      35.42
     4.3748      33.87
     4.3753      32.31
     4.3759      30.96
     4.3765      29.74
     4.3771      28.53
     4.3777      27.44
     4.3783      26.35
     4.3789      25.30
     4.3795      24.26
     4.3801      23.23
     4.3807      22.22
     4.3812      21.21
     4.3818      20.29
     4.3824      19.44
     4.3830      18.60
     4.3836      17.82
     4.3842      17.04
     4.3848      16.24
     4.3854      15.44
     4.3860      14.66
     4.3866      13.96
     4.3872      13.26
     4.3877      12.59
     4.3883      11.94
     4.3889      11.27
     4.3895      10.53
     4.3901       9.80
     4.3907       9.45
     4.3913       9.25
     4.3919       9.05
     4.3925       8.84
     4.3931       8.63
     4.3937       8.51
     4.3942       8.44
     4.3948       8.24
     4.3954       7.58
     4.3960       6.92
     4.3966       6.64
     4.3972       6.52
     4.3978       6.36
     4.3984       6.06
     4.3990       5.77
     4.3996       5.55
     4.4002       5.35
     4.4007       5.22
     4.4013       5.28
     4.4019       5.35
     4.4025       5.46
     4.4031       5.58
     4.4037       5.81
     4.4043       6.33
     4.4049       6.86
     4.4055       7.33
     4.4061       7.78
     4.4067       8.13
     4.4073       8.21
     4.4078       8.29
     4.4084       8.02
     4.4090       7.67
     4.4096       7.33
     4.4102       7.03
     4.4108       6.73
     4.4114       6.59
     4.4120       6.49
     4.4126       6.44
     4.4132       6.53
     4.4138       6.62
     4.4144       6.69
     4.4150       6.77
     4.4156       6.88
     4.4161       7.06
     4.4167       7.24
     4.4173       8.42
     4.4179       9.78
     4.4185      11.24
     4.4191      12.88
     4.4197      14.52
     4.4203      16.46
     4.4209      18.46
     4.4215      19.72
     4.4221      19.90
     4.4227      20.07
     4.4233      18.51
     4.4239      16.75
     4.4244      15.35
     4.4250      14.50
     4.4256      13.65
     4.4262      12.34
     4.4268      10.97
     4.4274       9.96
     4.4280       9.47
     4.4286       8.99
     4.4292       8.60
     4.4298       8.21
     4.4304       8.07
     4.4310       8.21
     4.4316       8.36
     4.4322       9.22
     4.4328      10.13
     4.4333      12.45
     4.4339      16.53
     4.4345      20.60
     4.4351      23.88
     4.4357      27.11
     4.4363      28.82
     4.4369      28.66
     4.4375      28.51
     4.4381      27.00
     4.4387      25.49
     4.4393      23.24
     4.4399      20.25
     4.4405      17.26
     4.4411      15.22
     4.4417      13.18
     4.4423      11.90
     4.4429      11.37
     4.4434      10.85
     4.4440      10.87
     4.4446      10.88
     4.4452      11.08
     4.4458      11.41
     4.4464      11.76
     4.4470      12.19
     4.4476      12.62
     4.4482      13.08
     4.4488      13.56
     4.4494      14.05
     4.4500      14.48
     4.4506      14.91
     4.4512      15.18
     4.4518      15.32
     4.4524      15.41
     4.4530      15.16
     4.4536      14.91
     4.4542      14.85
     4.4547      14.90
     4.4553      14.98
     4.4559      15.24
     4.4565      15.51
     4.4571      15.96
     4.4577      16.54
     4.4583      17.23
     4.4589      19.07
     4.4595      20.91
     4.4601      23.73
     4.4607      27.20
     4.4613      30.52
     4.4619      32.92
     4.4625      35.32
     4.4631      36.51
     4.4637      37.04
     4.4643      37.03
     4.4649      33.98
     4.4655      30.93
     4.4661      28.11
     4.4667      25.41
     4.4673      22.76
     4.4679      20.43
     4.4684      18.10
     4.4690      16.80
     4.4696      15.95
     4.4702      15.22
     4.4708      15.00
     4.4714      14.79
     4.4720      14.78
     4.4726      14.88
     4.4732      14.96
     4.4738      15.04
     4.4744      15.11
     4.4750      15.51
     4.4756      16.04
     4.4762      16.60
     4.4768      17.26
     4.4774      17.92
     4.4780      18.58
     4.4786      19.26
     4.4792      19.96
     4.4798      20.75
     4.4804      21.55
     4.4810      21.75
     4.4816      21.76
     4.4822      21.72
     4.4828      21.54
     4.4834      21.36
     4.4840      21.08
     4.4846      20.77
     4.4852      20.54
     4.4858      20.50
     4.4863      20.45
     4.4869      20.33
     4.4875      20.19
     4.4881      20.16
     4.4887      20.38
     4.4893      20.60
     4.4899      20.92
     4.4905      21.27
     4.4911      21.61
     4.4917      21.92
     4.4923      22.24
     4.4929      23.01
     4.4935      23.87
     4.4941      24.62
     4.4947      25.17
     4.4953      25.72
     4.4959      26.32
     4.4965      26.93
     4.4971      27.40
     4.4977      27.63
     4.4983      27.85
     4.4989      28.64
     4.4995      29.54
     4.5001      30.17
     4.5007      30.30
     4.5013      30.44
     4.5019      30.24
     4.5025      30.00
     4.5031      29.57
     4.5037      28.85
     4.5043      28.12
     4.5049      27.98
     4.5055      27.90
     4.5061      27.90
     4.5067      28.02
     4.5073      28.15
     4.5079      28.40
     4.5085      28.66
     4.5091      29.26
     4.5097      30.27
     4.5103      31.28
     4.5109      31.58
     4.5115      31.84
     4.5121      31.40
     4.5127      30.09
     4.5133      28.79
     4.5139      27.33
     4.5145      25.86
     4.5151      24.37
     4.5157      22.88
     4.5163      21.39
     4.5169      20.43
     4.5175      19.47
     4.5181      18.82
     4.5187      18.50
     4.5193      18.18
     4.5199      17.87
     4.5205      17.55
     4.5211      17.29
     4.5217      17.07
     4.5223      16.86
     4.5229      16.68
     4.5235      16.50
     4.5241      16.45
     4.5247      16.49
     4.5253      16.55
     4.5259      16.89
     4.5265      17.24
     4.5271      17.68
     4.5277      18.18
     4.5283      18.75
     4.5289      20.46
     4.5295      22.17
     4.5301      23.78
     4.5307      25.30
     4.5313      26.76
     4.5319      27.05
     4.5325      27.35
     4.5331      27.66
     4.5337      27.99
     4.5343      28.34
     4.5349      28.89
     4.5355      29.45
     4.5361      30.37
     4.5367      31.53
     4.5373      32.71
     4.5379      34.10
     4.5385      35.48
     4.5391      36.03
     4.5397      36.02
     4.5403      35.99
     4.5409      35.77
     4.5415      35.55
     4.5421      34.82
     4.5427      33.80
     4.5433      32.70
     4.5439      31.15
     4.5445      29.61
     4.5451      28.54
     4.5457      27.73
     4.5463      26.91
     4.5469      25.95
     4.5475      24.99
     4.5481      24.25
     4.5487      23.59
     4.5493      22.99
     4.5499      22.62
     4.5505      22.25
     4.5511      21.79
     4.5517      21.31
     4.5523      20.93
     4.5529      20.97
     4.5535      21.02
     4.5541      21.08
     4.5547      21.15
     4.5553      21.20
     4.5559      21.18
     4.5565      21.16
     4.5571      20.81
     4.5577      20.37
     4.5583      20.03
     4.5589      20.05
     4.5595      20.07
     4.5601      19.82
     4.5607      19.47
     4.5613      19.17
     4.5619      18.98
     4.5625      18.79
     4.5631      18.65
     4.5637      18.53
     4.5643      18.48
     4.5649      18.57
     4.5655      18.67
     4.5661      19.12
     4.5667      19.67
     4.5673      20.55
     4.5679      22.22
     4.5686      23.88
     4.5692      24.77
     4.5698      25.46
     4.5704      25.95
     4.5710      25.97
     4.5716      25.98
     4.5722      25.14
     4.5728      24.16
     4.5734      22.98
     4.5740      21.42
     4.5746      19.87
     4.5752      18.55
     4.5758      17.27
     4.5764      16.05
     4.5770      14.96
     4.5776      13.87
     4.5782      12.94
     4.5788      12.03
     4.5794      11.31
     4.5800      10.86
     4.5806      10.41
     4.5812      10.80
     4.5818      11.28
     4.5824      12.39
     4.5830      14.42
     4.5836      16.45
     4.5842      21.77
     4.5848      27.46
     4.5854      33.58
     4.5860      40.33
     4.5867      47.08
     4.5873      48.37
     4.5879      49.37
     4.5885      47.97
     4.5891      43.61
     4.5897      39.25
     4.5903      33.91
     4.5909      28.51
     4.5915      24.83
     4.5921      23.25
     4.5927      21.67
     4.5933      20.58
     4.5939      19.52
     4.5945      18.82
     4.5951      18.56
     4.5957      18.31
     4.5963      18.29
     4.5969      18.28
ENDDATA           1973
ENDSUBENT         1991
SUBENT        C0304007   20220828   20230315   20230314       C220
BIB                  6          8
REACTION   (11-NA-23(A,N)13-AL-26,PAR,SIG)
DECAY-DATA (13-AL-26-M,6.35SEC,AR,,1.0)
METHOD     (ACTIV)
DETECTOR   (SCIN) Conventional plastic scintillator
ERR-ANALYS (ERR-1) Primarily from overall normalization (15%)
           (ERR-2) Background subtraction (5 mb)
HISTORY    (20220828A) On. E-LVL, ERR-1 and ERR-2 added. REACTION
            corrected.
ENDBIB               8
COMMON               3          3
E-LVL      ERR-1      ERR-2
MEV        PER-CENT   MICRO-B
 0.218      15.        5.
ENDCOMMON            3
DATA                 2       1466
EN         DATA
MEV        MB
     3.7538       0.00
     3.7543       0.01
     3.7549       0.01
     3.7554       0.01
     3.7560       0.01
     3.7565       0.01
     3.7571       0.01
     3.7576       0.01
     3.7581       0.01
     3.7587       0.01
     3.7592       0.01
     3.7598       0.01
     3.7603       0.01
     3.7609       0.01
     3.7614       0.01
     3.7620       0.01
     3.7625       0.01
     3.7631       0.01
     3.7636       0.01
     3.7642       0.01
     3.7647       0.01
     3.7653       0.01
     3.7658       0.01
     3.7664       0.01
     3.7669       0.01
     3.7674       0.01
     3.7680       0.01
     3.7685       0.01
     3.7691       0.01
     3.7696       0.01
     3.7702       0.01
     3.7707       0.01
     3.7713       0.01
     3.7718       0.01
     3.7724       0.01
     3.7729       0.01
     3.7735       0.01
     3.7740       0.01
     3.7746       0.01
     3.7751       0.01
     3.7757       0.01
     3.7762       0.01
     3.7768       0.01
     3.7773       0.01
     3.7779       0.01
     3.7784       0.01
     3.7790       0.01
     3.7795       0.01
     3.7801       0.01
     3.7806       0.01
     3.7811       0.01
     3.7817       0.01
     3.7822       0.01
     3.7828       0.01
     3.7833       0.01
     3.7839       0.01
     3.7844       0.01
     3.7850       0.01
     3.7855       0.01
     3.7861       0.01
     3.7866       0.01
     3.7872       0.01
     3.7877       0.01
     3.7883       0.01
     3.7888       0.01
     3.7894       0.01
     3.7899       0.01
     3.7905       0.01
     3.7910       0.01
     3.7916       0.01
     3.7921       0.01
     3.7927       0.01
     3.7932       0.02
     3.7938       0.02
     3.7943       0.02
     3.7949       0.02
     3.7954       0.02
     3.7960       0.02
     3.7965       0.02
     3.7971       0.02
     3.7976       0.02
     3.7982       0.02
     3.7987       0.02
     3.7993       0.02
     3.7998       0.02
     3.8004       0.03
     3.8009       0.03
     3.8015       0.03
     3.8020       0.03
     3.8026       0.03
     3.8031       0.03
     3.8037       0.03
     3.8042       0.03
     3.8048       0.03
     3.8053       0.04
     3.8059       0.04
     3.8064       0.05
     3.8070       0.05
     3.8075       0.06
     3.8081       0.06
     3.8086       0.07
     3.8092       0.08
     3.8097       0.08
     3.8103       0.09
     3.8108       0.09
     3.8114       0.10
     3.8119       0.10
     3.8125       0.11
     3.8130       0.11
     3.8136       0.12
     3.8141       0.13
     3.8147       0.13
     3.8152       0.14
     3.8158       0.14
     3.8163       0.15
     3.8169       0.15
     3.8174       0.16
     3.8180       0.16
     3.8185       0.17
     3.8191       0.17
     3.8196       0.18
     3.8202       0.19
     3.8207       0.19
     3.8213       0.20
     3.8218       0.20
     3.8224       0.21
     3.8229       0.22
     3.8235       0.22
     3.8240       0.23
     3.8246       0.23
     3.8251       0.24
     3.8257       0.24
     3.8263       0.25
     3.8268       0.26
     3.8274       0.26
     3.8279       0.27
     3.8285       0.27
     3.8290       0.28
     3.8296       0.29
     3.8301       0.29
     3.8307       0.30
     3.8312       0.30
     3.8318       0.31
     3.8323       0.31
     3.8329       0.32
     3.8334       0.32
     3.8340       0.32
     3.8345       0.33
     3.8351       0.33
     3.8356       0.33
     3.8362       0.34
     3.8367       0.34
     3.8373       0.34
     3.8378       0.35
     3.8384       0.35
     3.8390       0.35
     3.8395       0.36
     3.8401       0.36
     3.8406       0.36
     3.8412       0.36
     3.8417       0.37
     3.8423       0.37
     3.8428       0.37
     3.8434       0.38
     3.8439       0.38
     3.8445       0.38
     3.8450       0.39
     3.8456       0.39
     3.8461       0.39
     3.8467       0.39
     3.8472       0.40
     3.8478       0.40
     3.8484       0.40
     3.8489       0.40
     3.8495       0.40
     3.8500       0.41
     3.8506       0.41
     3.8511       0.41
     3.8517       0.41
     3.8522       0.41
     3.8528       0.42
     3.8533       0.42
     3.8539       0.42
     3.8544       0.42
     3.8550       0.42
     3.8555       0.43
     3.8561       0.43
     3.8567       0.43
     3.8572       0.43
     3.8578       0.43
     3.8583       0.44
     3.8589       0.44
     3.8594       0.44
     3.8600       0.44
     3.8605       0.44
     3.8611       0.44
     3.8616       0.44
     3.8622       0.44
     3.8628       0.44
     3.8633       0.44
     3.8639       0.44
     3.8644       0.44
     3.8650       0.44
     3.8655       0.44
     3.8661       0.44
     3.8666       0.44
     3.8672       0.44
     3.8677       0.44
     3.8683       0.44
     3.8688       0.44
     3.8694       0.44
     3.8700       0.44
     3.8705       0.43
     3.8711       0.43
     3.8716       0.43
     3.8722       0.43
     3.8727       0.43
     3.8733       0.43
     3.8738       0.43
     3.8744       0.43
     3.8750       0.43
     3.8755       0.43
     3.8761       0.43
     3.8766       0.43
     3.8772       0.43
     3.8777       0.43
     3.8783       0.43
     3.8788       0.43
     3.8794       0.43
     3.8800       0.43
     3.8805       0.42
     3.8811       0.42
     3.8816       0.42
     3.8822       0.42
     3.8827       0.42
     3.8833       0.42
     3.8838       0.42
     3.8844       0.42
     3.8850       0.42
     3.8855       0.42
     3.8861       0.42
     3.8866       0.42
     3.8872       0.42
     3.8877       0.41
     3.8883       0.41
     3.8888       0.41
     3.8894       0.41
     3.8900       0.41
     3.8905       0.41
     3.8911       0.41
     3.8916       0.40
     3.8922       0.40
     3.8927       0.40
     3.8933       0.40
     3.8939       0.40
     3.8944       0.40
     3.8950       0.40
     3.8955       0.39
     3.8961       0.39
     3.8966       0.39
     3.8972       0.39
     3.8978       0.39
     3.8983       0.39
     3.8989       0.38
     3.8994       0.38
     3.9000       0.38
     3.9005       0.38
     3.9011       0.38
     3.9016       0.38
     3.9022       0.38
     3.9028       0.38
     3.9033       0.38
     3.9039       0.38
     3.9044       0.38
     3.9050       0.38
     3.9055       0.38
     3.9061       0.38
     3.9067       0.38
     3.9072       0.39
     3.9078       0.39
     3.9083       0.39
     3.9089       0.39
     3.9095       0.39
     3.9100       0.39
     3.9106       0.39
     3.9111       0.39
     3.9117       0.39
     3.9122       0.39
     3.9128       0.39
     3.9134       0.39
     3.9139       0.39
     3.9145       0.40
     3.9150       0.40
     3.9156       0.40
     3.9161       0.40
     3.9167       0.40
     3.9173       0.39
     3.9178       0.39
     3.9184       0.39
     3.9189       0.39
     3.9195       0.39
     3.9201       0.39
     3.9206       0.39
     3.9212       0.39
     3.9217       0.39
     3.9223       0.39
     3.9228       0.39
     3.9234       0.39
     3.9240       0.38
     3.9245       0.38
     3.9251       0.38
     3.9256       0.38
     3.9262       0.38
     3.9268       0.38
     3.9273       0.38
     3.9279       0.38
     3.9284       0.38
     3.9290       0.38
     3.9296       0.38
     3.9301       0.37
     3.9307       0.37
     3.9312       0.37
     3.9318       0.37
     3.9323       0.36
     3.9329       0.36
     3.9335       0.36
     3.9340       0.36
     3.9346       0.35
     3.9351       0.35
     3.9357       0.35
     3.9363       0.35
     3.9368       0.34
     3.9374       0.34
     3.9379       0.34
     3.9385       0.34
     3.9391       0.33
     3.9396       0.33
     3.9402       0.33
     3.9407       0.33
     3.9413       0.32
     3.9419       0.32
     3.9424       0.32
     3.9430       0.32
     3.9435       0.31
     3.9441       0.31
     3.9447       0.31
     3.9452       0.31
     3.9458       0.31
     3.9463       0.31
     3.9469       0.30
     3.9475       0.30
     3.9480       0.30
     3.9486       0.30
     3.9491       0.30
     3.9497       0.30
     3.9503       0.29
     3.9508       0.29
     3.9514       0.29
     3.9519       0.29
     3.9525       0.29
     3.9531       0.29
     3.9536       0.28
     3.9542       0.28
     3.9548       0.28
     3.9553       0.28
     3.9559       0.28
     3.9564       0.28
     3.9570       0.27
     3.9576       0.27
     3.9581       0.27
     3.9587       0.27
     3.9592       0.27
     3.9598       0.26
     3.9604       0.26
     3.9609       0.26
     3.9615       0.26
     3.9620       0.26
     3.9626       0.25
     3.9632       0.25
     3.9637       0.25
     3.9643       0.25
     3.9649       0.24
     3.9654       0.24
     3.9660       0.24
     3.9665       0.24
     3.9671       0.24
     3.9677       0.23
     3.9682       0.23
     3.9688       0.23
     3.9693       0.23
     3.9699       0.23
     3.9705       0.22
     3.9710       0.22
     3.9716       0.22
     3.9722       0.22
     3.9727       0.22
     3.9733       0.21
     3.9738       0.21
     3.9744       0.21
     3.9750       0.21
     3.9755       0.21
     3.9761       0.20
     3.9767       0.20
     3.9772       0.20
     3.9778       0.20
     3.9783       0.20
     3.9789       0.20
     3.9795       0.19
     3.9800       0.19
     3.9806       0.19
     3.9812       0.19
     3.9817       0.19
     3.9823       0.19
     3.9828       0.18
     3.9834       0.18
     3.9840       0.18
     3.9845       0.18
     3.9851       0.18
     3.9857       0.17
     3.9862       0.17
     3.9868       0.17
     3.9873       0.17
     3.9879       0.17
     3.9885       0.17
     3.9890       0.17
     3.9896       0.17
     3.9902       0.17
     3.9907       0.16
     3.9913       0.16
     3.9919       0.16
     3.9924       0.16
     3.9930       0.16
     3.9935       0.16
     3.9941       0.16
     3.9947       0.16
     3.9952       0.15
     3.9958       0.15
     3.9964       0.15
     3.9969       0.15
     3.9975       0.15
     3.9981       0.15
     3.9986       0.15
     3.9992       0.15
     3.9997       0.14
     4.0003       0.14
     4.0009       0.14
     4.0014       0.14
     4.0020       0.14
     4.0026       0.14
     4.0031       0.14
     4.0037       0.14
     4.0043       0.14
     4.0048       0.14
     4.0054       0.14
     4.0060       0.14
     4.0065       0.14
     4.0071       0.14
     4.0076       0.14
     4.0082       0.14
     4.0088       0.14
     4.0093       0.14
     4.0099       0.14
     4.0105       0.14
     4.0110       0.13
     4.0116       0.13
     4.0122       0.13
     4.0127       0.13
     4.0133       0.13
     4.0139       0.13
     4.0144       0.13
     4.0150       0.13
     4.0156       0.13
     4.0161       0.13
     4.0167       0.12
     4.0173       0.12
     4.0178       0.12
     4.0184       0.12
     4.0189       0.12
     4.0195       0.12
     4.0201       0.12
     4.0206       0.11
     4.0212       0.11
     4.0218       0.11
     4.0223       0.11
     4.0229       0.11
     4.0235       0.11
     4.0240       0.11
     4.0246       0.10
     4.0252       0.10
     4.0257       0.10
     4.0263       0.10
     4.0269       0.10
     4.0274       0.10
     4.0280       0.09
     4.0286       0.10
     4.0291       0.10
     4.0297       0.10
     4.0303       0.10
     4.0308       0.10
     4.0314       0.10
     4.0320       0.10
     4.0325       0.10
     4.0331       0.10
     4.0337       0.10
     4.0342       0.10
     4.0348       0.10
     4.0354       0.10
     4.0359       0.10
     4.0365       0.10
     4.0371       0.10
     4.0376       0.10
     4.0382       0.10
     4.0388       0.10
     4.0393       0.10
     4.0399       0.10
     4.0405       0.10
     4.0410       0.10
     4.0416       0.10
     4.0422       0.10
     4.0427       0.11
     4.0433       0.11
     4.0439       0.11
     4.0444       0.11
     4.0450       0.11
     4.0456       0.12
     4.0461       0.12
     4.0467       0.12
     4.0473       0.12
     4.0478       0.12
     4.0484       0.13
     4.0490       0.13
     4.0495       0.13
     4.0501       0.13
     4.0507       0.13
     4.0512       0.14
     4.0518       0.14
     4.0524       0.14
     4.0529       0.14
     4.0535       0.14
     4.0541       0.15
     4.0546       0.15
     4.0552       0.15
     4.0558       0.15
     4.0563       0.16
     4.0569       0.16
     4.0575       0.16
     4.0581       0.16
     4.0586       0.16
     4.0592       0.16
     4.0598       0.16
     4.0603       0.16
     4.0609       0.16
     4.0615       0.16
     4.0620       0.16
     4.0626       0.16
     4.0632       0.16
     4.0637       0.16
     4.0643       0.16
     4.0649       0.16
     4.0654       0.16
     4.0660       0.16
     4.0666       0.16
     4.0671       0.16
     4.0677       0.16
     4.0683       0.16
     4.0689       0.16
     4.0694       0.16
     4.0700       0.16
     4.0706       0.16
     4.0711       0.16
     4.0717       0.16
     4.0723       0.16
     4.0728       0.16
     4.0734       0.16
     4.0740       0.17
     4.0745       0.17
     4.0751       0.17
     4.0757       0.17
     4.0763       0.17
     4.0768       0.17
     4.0774       0.18
     4.0780       0.18
     4.0785       0.18
     4.0791       0.18
     4.0797       0.18
     4.0802       0.18
     4.0808       0.19
     4.0814       0.19
     4.0819       0.19
     4.0825       0.19
     4.0831       0.19
     4.0837       0.19
     4.0842       0.20
     4.0848       0.20
     4.0854       0.20
     4.0859       0.21
     4.0865       0.21
     4.0871       0.22
     4.0876       0.22
     4.0882       0.23
     4.0888       0.23
     4.0894       0.24
     4.0899       0.24
     4.0905       0.24
     4.0911       0.25
     4.0916       0.25
     4.0922       0.26
     4.0928       0.26
     4.0934       0.27
     4.0939       0.27
     4.0945       0.28
     4.0951       0.28
     4.0956       0.29
     4.0962       0.29
     4.0968       0.30
     4.0973       0.30
     4.0979       0.31
     4.0985       0.31
     4.0991       0.32
     4.0996       0.33
     4.1002       0.34
     4.1008       0.36
     4.1013       0.37
     4.1019       0.39
     4.1025       0.40
     4.1031       0.42
     4.1036       0.43
     4.1042       0.45
     4.1048       0.46
     4.1053       0.47
     4.1059       0.49
     4.1065       0.50
     4.1071       0.52
     4.1076       0.53
     4.1082       0.55
     4.1088       0.56
     4.1093       0.58
     4.1099       0.59
     4.1105       0.60
     4.1111       0.62
     4.1116       0.63
     4.1122       0.65
     4.1128       0.66
     4.1133       0.68
     4.1139       0.70
     4.1145       0.72
     4.1151       0.74
     4.1156       0.76
     4.1162       0.78
     4.1168       0.80
     4.1174       0.82
     4.1179       0.84
     4.1185       0.86
     4.1191       0.88
     4.1196       0.90
     4.1202       0.92
     4.1208       0.94
     4.1214       0.96
     4.1219       0.98
     4.1225       1.00
     4.1231       1.02
     4.1236       1.04
     4.1242       1.06
     4.1248       1.08
     4.1254       1.10
     4.1259       1.12
     4.1265       1.14
     4.1271       1.16
     4.1277       1.18
     4.1282       1.20
     4.1288       1.22
     4.1294       1.24
     4.1300       1.26
     4.1305       1.28
     4.1311       1.30
     4.1317       1.32
     4.1322       1.34
     4.1328       1.35
     4.1334       1.37
     4.1340       1.39
     4.1345       1.41
     4.1351       1.43
     4.1357       1.45
     4.1363       1.47
     4.1368       1.49
     4.1374       1.51
     4.1380       1.53
     4.1386       1.55
     4.1391       1.57
     4.1397       1.59
     4.1403       1.60
     4.1408       1.62
     4.1414       1.64
     4.1420       1.66
     4.1426       1.66
     4.1431       1.67
     4.1437       1.67
     4.1443       1.67
     4.1449       1.67
     4.1454       1.68
     4.1460       1.68
     4.1466       1.68
     4.1472       1.68
     4.1477       1.69
     4.1483       1.69
     4.1489       1.69
     4.1495       1.69
     4.1500       1.69
     4.1506       1.70
     4.1512       1.70
     4.1518       1.70
     4.1523       1.70
     4.1529       1.71
     4.1535       1.71
     4.1541       1.71
     4.1546       1.71
     4.1552       1.72
     4.1558       1.72
     4.1564       1.72
     4.1569       1.72
     4.1575       1.72
     4.1581       1.72
     4.1587       1.72
     4.1592       1.71
     4.1598       1.71
     4.1604       1.71
     4.1610       1.71
     4.1615       1.71
     4.1621       1.71
     4.1627       1.71
     4.1633       1.71
     4.1638       1.71
     4.1644       1.70
     4.1650       1.70
     4.1656       1.70
     4.1661       1.70
     4.1667       1.70
     4.1673       1.70
     4.1679       1.70
     4.1684       1.70
     4.1690       1.70
     4.1696       1.69
     4.1702       1.69
     4.1707       1.69
     4.1713       1.68
     4.1719       1.68
     4.1725       1.67
     4.1730       1.66
     4.1736       1.65
     4.1742       1.65
     4.1748       1.64
     4.1754       1.63
     4.1759       1.62
     4.1765       1.62
     4.1771       1.61
     4.1777       1.60
     4.1782       1.59
     4.1788       1.59
     4.1794       1.58
     4.1800       1.57
     4.1805       1.56
     4.1811       1.55
     4.1817       1.55
     4.1823       1.54
     4.1828       1.53
     4.1834       1.52
     4.1840       1.52
     4.1846       1.51
     4.1852       1.50
     4.1857       1.49
     4.1863       1.49
     4.1869       1.48
     4.1875       1.47
     4.1880       1.46
     4.1886       1.45
     4.1892       1.45
     4.1898       1.44
     4.1903       1.43
     4.1909       1.42
     4.1915       1.41
     4.1921       1.41
     4.1927       1.40
     4.1932       1.39
     4.1938       1.38
     4.1944       1.37
     4.1950       1.37
     4.1955       1.36
     4.1961       1.35
     4.1967       1.34
     4.1973       1.33
     4.1979       1.33
     4.1984       1.32
     4.1990       1.31
     4.1996       1.30
     4.2002       1.30
     4.2007       1.29
     4.2013       1.29
     4.2019       1.28
     4.2025       1.28
     4.2031       1.27
     4.2036       1.27
     4.2042       1.26
     4.2048       1.26
     4.2054       1.25
     4.2060       1.25
     4.2065       1.24
     4.2071       1.24
     4.2077       1.23
     4.2083       1.23
     4.2088       1.22
     4.2094       1.21
     4.2100       1.21
     4.2106       1.20
     4.2112       1.20
     4.2117       1.19
     4.2123       1.19
     4.2129       1.18
     4.2135       1.18
     4.2141       1.17
     4.2146       1.17
     4.2152       1.16
     4.2158       1.15
     4.2164       1.14
     4.2169       1.14
     4.2175       1.13
     4.2181       1.12
     4.2187       1.11
     4.2193       1.11
     4.2198       1.10
     4.2204       1.09
     4.2210       1.08
     4.2216       1.08
     4.2222       1.07
     4.2227       1.06
     4.2233       1.05
     4.2239       1.05
     4.2245       1.04
     4.2251       1.03
     4.2256       1.02
     4.2262       1.02
     4.2268       1.01
     4.2274       1.00
     4.2280       0.99
     4.2285       0.99
     4.2291       0.98
     4.2297       0.98
     4.2303       0.98
     4.2309       0.98
     4.2314       0.98
     4.2320       0.97
     4.2326       0.97
     4.2332       0.97
     4.2338       0.97
     4.2343       0.97
     4.2349       0.97
     4.2355       0.96
     4.2361       0.96
     4.2367       0.96
     4.2372       0.96
     4.2378       0.96
     4.2384       0.95
     4.2390       0.95
     4.2396       0.95
     4.2401       0.95
     4.2407       0.95
     4.2413       0.94
     4.2419       0.94
     4.2425       0.94
     4.2430       0.94
     4.2436       0.94
     4.2442       0.94
     4.2448       0.94
     4.2454       0.93
     4.2460       0.93
     4.2465       0.93
     4.2471       0.93
     4.2477       0.93
     4.2483       0.93
     4.2489       0.93
     4.2494       0.93
     4.2500       0.93
     4.2506       0.93
     4.2512       0.92
     4.2518       0.92
     4.2523       0.92
     4.2529       0.92
     4.2535       0.92
     4.2541       0.92
     4.2547       0.92
     4.2553       0.92
     4.2558       0.92
     4.2564       0.92
     4.2570       0.91
     4.2576       0.91
     4.2582       0.91
     4.2587       0.91
     4.2593       0.91
     4.2599       0.90
     4.2605       0.90
     4.2611       0.90
     4.2617       0.90
     4.2622       0.89
     4.2628       0.89
     4.2634       0.89
     4.2640       0.89
     4.2646       0.88
     4.2652       0.88
     4.2657       0.88
     4.2663       0.88
     4.2669       0.87
     4.2675       0.87
     4.2681       0.87
     4.2686       0.87
     4.2692       0.86
     4.2698       0.86
     4.2704       0.86
     4.2710       0.86
     4.2716       0.85
     4.2721       0.85
     4.2727       0.85
     4.2733       0.85
     4.2739       0.85
     4.2745       0.85
     4.2751       0.84
     4.2756       0.84
     4.2762       0.84
     4.2768       0.84
     4.2774       0.84
     4.2780       0.84
     4.2786       0.84
     4.2791       0.83
     4.2797       0.83
     4.2803       0.83
     4.2809       0.83
     4.2815       0.83
     4.2821       0.83
     4.2826       0.83
     4.2832       0.82
     4.2838       0.82
     4.2844       0.82
     4.2850       0.82
     4.2856       0.82
     4.2861       0.82
     4.2867       0.81
     4.2873       0.82
     4.2879       0.82
     4.2885       0.82
     4.2891       0.82
     4.2896       0.82
     4.2902       0.83
     4.2908       0.83
     4.2914       0.83
     4.2920       0.83
     4.2926       0.83
     4.2932       0.84
     4.2937       0.84
     4.2943       0.84
     4.2949       0.84
     4.2955       0.84
     4.2961       0.85
     4.2967       0.85
     4.2972       0.85
     4.2978       0.85
     4.2984       0.85
     4.2990       0.86
     4.2996       0.86
     4.3002       0.86
     4.3008       0.86
     4.3013       0.86
     4.3019       0.86
     4.3025       0.86
     4.3031       0.87
     4.3037       0.87
     4.3043       0.87
     4.3048       0.87
     4.3054       0.87
     4.3060       0.87
     4.3066       0.87
     4.3072       0.87
     4.3078       0.87
     4.3084       0.87
     4.3089       0.88
     4.3095       0.88
     4.3101       0.88
     4.3107       0.88
     4.3113       0.88
     4.3119       0.88
     4.3125       0.88
     4.3130       0.88
     4.3136       0.88
     4.3142       0.88
     4.3148       0.89
     4.3154       0.89
     4.3160       0.89
     4.3166       0.89
     4.3171       0.88
     4.3177       0.88
     4.3183       0.88
     4.3189       0.88
     4.3195       0.88
     4.3201       0.88
     4.3207       0.87
     4.3212       0.87
     4.3218       0.87
     4.3224       0.87
     4.3230       0.87
     4.3236       0.87
     4.3242       0.87
     4.3248       0.86
     4.3254       0.86
     4.3259       0.86
     4.3265       0.86
     4.3271       0.86
     4.3277       0.86
     4.3283       0.86
     4.3289       0.85
     4.3295       0.85
     4.3300       0.85
     4.3306       0.85
     4.3312       0.85
     4.3318       0.84
     4.3324       0.84
     4.3330       0.84
     4.3336       0.83
     4.3342       0.83
     4.3347       0.83
     4.3353       0.82
     4.3359       0.82
     4.3365       0.82
     4.3371       0.81
     4.3377       0.81
     4.3383       0.81
     4.3389       0.80
     4.3394       0.80
     4.3400       0.80
     4.3406       0.79
     4.3412       0.79
     4.3418       0.79
     4.3424       0.78
     4.3430       0.78
     4.3436       0.78
     4.3441       0.77
     4.3447       0.77
     4.3453       0.77
     4.3459       0.77
     4.3465       0.77
     4.3471       0.78
     4.3477       0.78
     4.3483       0.78
     4.3488       0.79
     4.3494       0.79
     4.3500       0.79
     4.3506       0.79
     4.3512       0.80
     4.3518       0.80
     4.3524       0.80
     4.3530       0.81
     4.3535       0.81
     4.3541       0.81
     4.3547       0.82
     4.3553       0.82
     4.3559       0.82
     4.3565       0.82
     4.3571       0.83
     4.3577       0.83
     4.3583       0.83
     4.3588       0.84
     4.3594       0.84
     4.3600       0.84
     4.3606       0.85
     4.3612       0.85
     4.3618       0.86
     4.3624       0.86
     4.3630       0.86
     4.3636       0.87
     4.3641       0.87
     4.3647       0.88
     4.3653       0.88
     4.3659       0.88
     4.3665       0.89
     4.3671       0.89
     4.3677       0.90
     4.3683       0.90
     4.3689       0.91
     4.3694       0.91
     4.3700       0.91
     4.3706       0.92
     4.3712       0.92
     4.3718       0.93
     4.3724       0.93
     4.3730       0.93
     4.3736       0.94
     4.3742       0.94
     4.3748       0.95
     4.3753       0.95
     4.3759       0.96
     4.3765       0.96
     4.3771       0.96
     4.3777       0.97
     4.3783       0.97
     4.3789       0.98
     4.3795       0.98
     4.3801       0.99
     4.3807       0.99
     4.3812       0.99
     4.3818       1.00
     4.3824       1.00
     4.3830       1.01
     4.3836       1.01
     4.3842       1.02
     4.3848       1.02
     4.3854       1.02
     4.3860       1.03
     4.3866       1.03
     4.3872       1.04
     4.3877       1.04
     4.3883       1.05
     4.3889       1.05
     4.3895       1.05
     4.3901       1.06
     4.3907       1.06
     4.3913       1.06
     4.3919       1.06
     4.3925       1.06
     4.3931       1.07
     4.3937       1.07
     4.3942       1.07
     4.3948       1.07
     4.3954       1.07
     4.3960       1.08
     4.3966       1.08
     4.3972       1.08
     4.3978       1.08
     4.3984       1.08
     4.3990       1.09
     4.3996       1.09
     4.4002       1.09
     4.4007       1.09
     4.4013       1.09
     4.4019       1.10
     4.4025       1.10
     4.4031       1.10
     4.4037       1.10
     4.4043       1.10
     4.4049       1.10
     4.4055       1.09
     4.4061       1.09
     4.4067       1.08
     4.4073       1.08
     4.4078       1.08
     4.4084       1.07
     4.4090       1.07
     4.4096       1.06
     4.4102       1.06
     4.4108       1.05
     4.4114       1.05
     4.4120       1.04
     4.4126       1.04
     4.4132       1.03
     4.4138       1.03
     4.4144       1.03
     4.4150       1.02
     4.4156       1.02
     4.4161       1.01
     4.4167       1.01
     4.4173       1.00
     4.4179       1.00
     4.4185       0.99
     4.4191       0.99
     4.4197       0.98
     4.4203       0.98
     4.4209       0.97
     4.4215       0.97
     4.4221       0.96
     4.4227       0.96
     4.4233       0.95
     4.4239       0.95
     4.4244       0.94
     4.4250       0.94
     4.4256       0.93
     4.4262       0.93
     4.4268       0.92
     4.4274       0.92
     4.4280       0.91
     4.4286       0.91
     4.4292       0.90
     4.4298       0.89
     4.4304       0.89
     4.4310       0.88
     4.4316       0.88
     4.4322       0.87
     4.4328       0.87
     4.4333       0.86
     4.4339       0.86
     4.4345       0.86
     4.4351       0.85
     4.4357       0.85
     4.4363       0.85
     4.4369       0.85
     4.4375       0.84
     4.4381       0.84
     4.4387       0.84
     4.4393       0.84
     4.4399       0.83
     4.4405       0.83
     4.4411       0.83
     4.4417       0.83
     4.4423       0.82
     4.4429       0.82
     4.4434       0.82
     4.4440       0.82
     4.4446       0.81
     4.4452       0.81
     4.4458       0.81
     4.4464       0.81
     4.4470       0.80
     4.4476       0.80
     4.4482       0.80
     4.4488       0.80
     4.4494       0.80
     4.4500       0.81
     4.4506       0.81
     4.4512       0.82
     4.4518       0.82
     4.4524       0.83
     4.4530       0.84
     4.4536       0.84
     4.4542       0.85
     4.4547       0.85
     4.4553       0.86
     4.4559       0.87
     4.4565       0.87
     4.4571       0.88
     4.4577       0.88
     4.4583       0.89
     4.4589       0.90
     4.4595       0.90
     4.4601       0.91
     4.4607       0.91
     4.4613       0.92
     4.4619       0.93
     4.4625       0.93
     4.4631       0.94
     4.4637       0.94
     4.4643       0.94
     4.4649       0.95
     4.4655       0.95
     4.4661       0.95
     4.4667       0.95
     4.4673       0.95
     4.4679       0.95
     4.4684       0.95
     4.4690       0.95
     4.4696       0.95
     4.4702       0.95
     4.4708       0.95
     4.4714       0.95
     4.4720       0.96
     4.4726       0.96
     4.4732       0.96
     4.4738       0.96
     4.4744       0.96
     4.4750       0.96
     4.4756       0.96
     4.4762       0.96
     4.4768       0.96
     4.4774       0.96
     4.4780       0.96
     4.4786       0.96
     4.4792       0.97
     4.4798       0.97
     4.4804       0.97
     4.4810       0.97
     4.4816       0.97
     4.4822       0.97
     4.4828       0.97
     4.4834       0.97
     4.4840       0.98
     4.4846       0.98
     4.4852       0.98
     4.4858       0.98
     4.4863       0.98
     4.4869       0.98
     4.4875       0.98
     4.4881       0.99
     4.4887       0.99
     4.4893       0.99
     4.4899       0.99
     4.4905       0.99
     4.4911       0.99
     4.4917       0.99
     4.4923       0.99
     4.4929       1.00
     4.4935       1.00
     4.4941       1.01
     4.4947       1.02
     4.4953       1.03
     4.4959       1.05
     4.4965       1.06
     4.4971       1.07
     4.4977       1.08
     4.4983       1.09
     4.4989       1.11
     4.4995       1.12
     4.5001       1.13
     4.5007       1.14
     4.5013       1.16
     4.5019       1.17
     4.5025       1.18
     4.5031       1.19
     4.5037       1.20
     4.5043       1.22
     4.5049       1.23
     4.5055       1.24
     4.5061       1.25
     4.5067       1.26
     4.5073       1.28
     4.5079       1.29
     4.5085       1.30
     4.5091       1.33
     4.5097       1.35
     4.5103       1.38
     4.5109       1.40
     4.5115       1.42
     4.5121       1.45
     4.5127       1.47
     4.5133       1.50
     4.5139       1.52
     4.5145       1.55
     4.5151       1.57
     4.5157       1.60
     4.5163       1.62
     4.5169       1.65
     4.5175       1.67
     4.5181       1.70
     4.5187       1.72
     4.5193       1.75
     4.5199       1.77
     4.5205       1.80
     4.5211       1.82
     4.5217       1.85
     4.5223       1.87
     4.5229       1.90
     4.5235       1.92
     4.5241       1.93
     4.5247       1.94
     4.5253       1.96
     4.5259       1.97
     4.5265       1.98
     4.5271       1.99
     4.5277       2.01
     4.5283       2.02
     4.5289       2.03
     4.5295       2.04
     4.5301       2.06
     4.5307       2.07
     4.5313       2.08
     4.5319       2.09
     4.5325       2.11
     4.5331       2.12
     4.5337       2.13
     4.5343       2.14
     4.5349       2.16
     4.5355       2.17
     4.5361       2.18
     4.5367       2.19
     4.5373       2.21
     4.5379       2.22
     4.5385       2.23
     4.5391       2.23
     4.5397       2.23
     4.5403       2.24
     4.5409       2.24
     4.5415       2.24
     4.5421       2.24
     4.5427       2.24
     4.5433       2.24
     4.5439       2.25
     4.5445       2.25
     4.5451       2.25
     4.5457       2.25
     4.5463       2.25
     4.5469       2.25
     4.5475       2.26
     4.5481       2.26
     4.5487       2.26
     4.5493       2.26
     4.5499       2.26
     4.5505       2.26
     4.5511       2.27
     4.5517       2.27
     4.5523       2.27
     4.5529       2.27
     4.5535       2.27
     4.5541       2.26
     4.5547       2.24
     4.5553       2.23
     4.5559       2.22
     4.5565       2.20
     4.5571       2.19
     4.5577       2.17
     4.5583       2.16
     4.5589       2.14
     4.5595       2.13
     4.5601       2.12
     4.5607       2.10
     4.5613       2.09
     4.5619       2.07
     4.5625       2.06
     4.5631       2.04
     4.5637       2.03
     4.5643       2.02
     4.5649       2.00
     4.5655       1.99
     4.5661       1.97
     4.5667       1.96
     4.5673       1.94
     4.5679       1.93
     4.5686       1.90
     4.5692       1.90
     4.5698       1.90
     4.5704       1.90
     4.5710       1.90
     4.5716       1.90
     4.5722       1.90
     4.5728       1.90
     4.5734       1.90
     4.5740       1.90
     4.5746       1.90
     4.5752       1.90
     4.5758       1.90
     4.5764       1.90
     4.5770       1.90
     4.5776       1.90
     4.5782       1.90
     4.5788       1.90
     4.5794       1.90
     4.5800       1.90
     4.5806       1.90
     4.5812       1.90
     4.5818       1.90
     4.5824       1.90
     4.5830       1.90
     4.5836       1.90
     4.5842       1.90
     4.5848       1.90
     4.5854       1.90
     4.5860       1.90
     4.5867       1.90
     4.5873       1.90
     4.5879       1.90
     4.5885       1.90
     4.5891       1.90
     4.5897       1.90
     4.5903       1.90
     4.5909       1.90
     4.5915       1.90
     4.5921       1.90
     4.5927       1.90
     4.5933       1.90
     4.5939       1.90
     4.5945       1.90
     4.5951       1.90
     4.5957       1.90
     4.5963       1.90
     4.5969       1.90
ENDDATA           1468
ENDSUBENT         1485
SUBENT        C0304008   20220828   20230315   20230314       C220
BIB                  5          6
REACTION   (11-NA-23(A,N)13-AL-26,PAR,SIG)
PART-DET   (G) 417 keV gamma-ray
DETECTOR   (GELI) 100 cm3 Ge(Li) detector
ERR-ANALYS (ERR-1) Primarily from overall normalization (8%)
           (ERR-2) Background subtraction (0.1 mb)
HISTORY    (20220828A) On. ERR-1 and ERR-2 added.
ENDBIB               6
COMMON               3          3
E-LVL      ERR-1      ERR-2
MEV        PER-CENT   MB
 0.417      8.         0.1
ENDCOMMON            3
DATA                 2       1086
EN         DATA
MEV        MB
     3.9643       0.00
     3.9649       0.11
     3.9654       0.05
     3.9660       0.00
     3.9665       0.02
     3.9671       0.04
     3.9677       0.05
     3.9682       0.04
     3.9688       0.04
     3.9693       0.04
     3.9699       0.04
     3.9705       0.03
     3.9710       0.01
     3.9716       0.00
     3.9722       0.12
     3.9727       0.24
     3.9733       0.25
     3.9738       0.18
     3.9744       0.07
     3.9750       0.02
     3.9755       0.01
     3.9761       0.01
     3.9767       0.01
     3.9772       0.02
     3.9778       0.02
     3.9783       0.01
     3.9789       0.01
     3.9795       0.01
     3.9800       0.01
     3.9806       0.04
     3.9812       0.09
     3.9817       0.09
     3.9823       0.04
     3.9828       0.01
     3.9834       0.03
     3.9840       0.06
     3.9845       0.11
     3.9851       0.15
     3.9857       0.18
     3.9862       0.14
     3.9868       0.11
     3.9873       0.10
     3.9879       0.11
     3.9885       0.11
     3.9890       0.10
     3.9896       0.10
     3.9902       0.12
     3.9907       0.14
     3.9913       0.14
     3.9919       0.11
     3.9924       0.07
     3.9930       0.12
     3.9935       0.17
     3.9941       0.20
     3.9947       0.17
     3.9952       0.14
     3.9958       0.25
     3.9964       0.37
     3.9969       0.44
     3.9975       0.45
     3.9981       0.45
     3.9986       0.46
     3.9992       0.47
     3.9997       0.44
     4.0003       0.35
     4.0009       0.26
     4.0014       0.30
     4.0020       0.35
     4.0026       0.35
     4.0031       0.32
     4.0037       0.28
     4.0043       0.24
     4.0048       0.19
     4.0054       0.19
     4.0060       0.22
     4.0065       0.26
     4.0071       0.29
     4.0076       0.32
     4.0082       0.33
     4.0088       0.32
     4.0093       0.31
     4.0099       0.31
     4.0105       0.32
     4.0110       0.43
     4.0116       0.63
     4.0122       0.81
     4.0127       0.84
     4.0133       0.86
     4.0139       0.77
     4.0144       0.62
     4.0150       0.48
     4.0156       0.48
     4.0161       0.47
     4.0167       0.42
     4.0173       0.34
     4.0178       0.28
     4.0184       0.25
     4.0189       0.22
     4.0195       0.21
     4.0201       0.21
     4.0206       0.21
     4.0212       0.22
     4.0218       0.24
     4.0223       0.22
     4.0229       0.19
     4.0235       0.18
     4.0240       0.20
     4.0246       0.22
     4.0252       0.26
     4.0257       0.31
     4.0263       0.35
     4.0269       0.37
     4.0274       0.39
     4.0280       0.48
     4.0286       0.58
     4.0291       0.65
     4.0297       0.62
     4.0303       0.59
     4.0308       0.71
     4.0314       0.85
     4.0320       0.96
     4.0325       0.98
     4.0331       1.01
     4.0337       1.11
     4.0342       1.23
     4.0348       1.34
     4.0354       1.44
     4.0359       1.54
     4.0365       1.54
     4.0371       1.52
     4.0376       1.51
     4.0382       1.52
     4.0388       1.53
     4.0393       1.42
     4.0399       1.31
     4.0405       1.20
     4.0410       1.12
     4.0416       1.03
     4.0422       1.03
     4.0427       1.03
     4.0433       1.03
     4.0439       1.02
     4.0444       1.01
     4.0450       1.09
     4.0456       1.16
     4.0461       1.20
     4.0467       1.20
     4.0473       1.20
     4.0478       1.32
     4.0484       1.44
     4.0490       1.93
     4.0495       2.73
     4.0501       3.61
     4.0507       5.58
     4.0512       7.54
     4.0518      10.65
     4.0524      12.86
     4.0529      14.88
     4.0535      15.14
     4.0541      15.40
     4.0546      14.73
     4.0552      12.49
     4.0558      10.41
     4.0563       8.48
     4.0569       6.72
     4.0575       5.58
     4.0581       4.43
     4.0586       3.70
     4.0592       3.30
     4.0598       2.98
     4.0603       2.49
     4.0609       2.05
     4.0615       1.66
     4.0620       1.47
     4.0626       1.28
     4.0632       1.15
     4.0637       1.04
     4.0643       0.95
     4.0649       0.89
     4.0654       0.83
     4.0660       0.80
     4.0666       0.77
     4.0671       0.75
     4.0677       0.73
     4.0683       0.71
     4.0689       0.65
     4.0694       0.58
     4.0700       0.58
     4.0706       0.76
     4.0711       0.93
     4.0717       0.90
     4.0723       0.82
     4.0728       0.82
     4.0734       0.95
     4.0740       1.09
     4.0745       1.09
     4.0751       1.06
     4.0757       1.06
     4.0763       1.10
     4.0768       1.14
     4.0774       1.21
     4.0780       1.28
     4.0785       1.37
     4.0791       1.48
     4.0797       1.60
     4.0802       1.65
     4.0808       1.70
     4.0814       1.75
     4.0819       1.82
     4.0825       1.89
     4.0831       1.88
     4.0837       1.87
     4.0842       1.90
     4.0848       1.97
     4.0854       2.04
     4.0859       2.17
     4.0865       2.30
     4.0871       2.31
     4.0876       2.21
     4.0882       2.10
     4.0888       2.10
     4.0894       2.09
     4.0899       2.19
     4.0905       2.38
     4.0911       2.55
     4.0916       2.52
     4.0922       2.48
     4.0928       2.49
     4.0934       2.53
     4.0939       2.90
     4.0945       3.34
     4.0951       3.67
     4.0956       3.86
     4.0962       3.94
     4.0968       4.14
     4.0973       4.11
     4.0979       3.74
     4.0985       3.41
     4.0991       3.17
     4.0996       2.94
     4.1002       2.85
     4.1008       2.74
     4.1013       2.51
     4.1019       2.24
     4.1025       2.05
     4.1031       1.77
     4.1036       1.50
     4.1042       1.37
     4.1048       1.29
     4.1053       1.21
     4.1059       1.13
     4.1065       1.05
     4.1071       0.93
     4.1076       0.79
     4.1082       0.69
     4.1088       0.70
     4.1093       0.70
     4.1099       0.75
     4.1105       0.81
     4.1111       0.84
     4.1116       0.79
     4.1122       0.74
     4.1128       0.76
     4.1133       0.80
     4.1139       0.80
     4.1145       0.74
     4.1151       0.69
     4.1156       0.82
     4.1162       0.99
     4.1168       1.09
     4.1174       1.07
     4.1179       1.06
     4.1185       1.31
     4.1191       1.60
     4.1196       1.86
     4.1202       2.08
     4.1208       2.30
     4.1214       2.60
     4.1219       2.91
     4.1225       3.24
     4.1231       3.57
     4.1236       3.90
     4.1242       4.14
     4.1248       4.38
     4.1254       4.48
     4.1259       4.44
     4.1265       4.40
     4.1271       4.04
     4.1277       3.68
     4.1282       3.33
     4.1288       3.00
     4.1294       2.67
     4.1300       2.40
     4.1305       2.13
     4.1311       1.94
     4.1317       1.83
     4.1322       1.73
     4.1328       1.72
     4.1334       1.71
     4.1340       1.72
     4.1345       1.75
     4.1351       1.79
     4.1357       1.90
     4.1363       2.02
     4.1368       2.06
     4.1374       2.05
     4.1380       2.07
     4.1386       2.32
     4.1391       2.56
     4.1397       2.71
     4.1403       2.81
     4.1408       2.91
     4.1414       3.07
     4.1420       3.23
     4.1426       3.43
     4.1431       3.66
     4.1437       3.89
     4.1443       4.09
     4.1449       4.28
     4.1454       4.45
     4.1460       4.62
     4.1466       4.75
     4.1472       4.78
     4.1477       4.81
     4.1483       4.91
     4.1489       5.02
     4.1495       5.10
     4.1500       5.05
     4.1506       5.01
     4.1512       4.98
     4.1518       4.95
     4.1523       4.89
     4.1529       4.74
     4.1535       4.60
     4.1541       4.32
     4.1546       4.02
     4.1552       3.82
     4.1558       3.87
     4.1564       3.91
     4.1569       3.76
     4.1575       3.58
     4.1581       3.47
     4.1587       3.51
     4.1592       3.56
     4.1598       3.50
     4.1604       3.44
     4.1610       3.37
     4.1615       3.30
     4.1621       3.24
     4.1627       3.27
     4.1633       3.31
     4.1638       3.39
     4.1644       3.51
     4.1650       3.62
     4.1656       3.61
     4.1661       3.59
     4.1667       3.59
     4.1673       3.62
     4.1679       3.64
     4.1684       3.89
     4.1690       4.15
     4.1696       4.24
     4.1702       4.16
     4.1707       4.08
     4.1713       3.98
     4.1719       3.88
     4.1725       3.76
     4.1730       3.62
     4.1736       3.47
     4.1742       3.34
     4.1748       3.20
     4.1754       3.00
     4.1759       2.77
     4.1765       2.55
     4.1771       2.55
     4.1777       2.56
     4.1782       2.55
     4.1788       2.53
     4.1794       2.51
     4.1800       2.45
     4.1805       2.39
     4.1811       2.36
     4.1817       2.34
     4.1823       2.33
     4.1828       2.43
     4.1834       2.53
     4.1840       2.54
     4.1846       2.51
     4.1852       2.51
     4.1857       2.66
     4.1863       2.81
     4.1869       2.85
     4.1875       2.84
     4.1880       2.84
     4.1886       2.84
     4.1892       2.83
     4.1898       2.87
     4.1903       2.93
     4.1909       2.94
     4.1915       2.81
     4.1921       2.68
     4.1927       2.73
     4.1932       2.84
     4.1938       2.92
     4.1944       2.92
     4.1950       2.92
     4.1955       2.85
     4.1961       2.76
     4.1967       2.73
     4.1973       2.82
     4.1979       2.92
     4.1984       2.84
     4.1990       2.74
     4.1996       2.72
     4.2002       2.85
     4.2007       2.97
     4.2013       2.99
     4.2019       2.99
     4.2025       3.07
     4.2031       3.27
     4.2036       3.46
     4.2042       3.66
     4.2048       3.85
     4.2054       4.11
     4.2060       4.48
     4.2065       4.84
     4.2071       5.29
     4.2077       5.75
     4.2083       6.19
     4.2088       6.61
     4.2094       7.02
     4.2100       7.21
     4.2106       7.39
     4.2112       7.32
     4.2117       7.01
     4.2123       6.70
     4.2129       6.61
     4.2135       6.52
     4.2141       6.35
     4.2146       6.10
     4.2152       5.88
     4.2158       6.07
     4.2164       6.27
     4.2169       6.43
     4.2175       6.56
     4.2181       6.83
     4.2187       8.55
     4.2193      10.27
     4.2198      11.01
     4.2204      11.08
     4.2210      11.13
     4.2216      10.98
     4.2222      10.83
     4.2227      10.56
     4.2233      10.24
     4.2239       9.86
     4.2245       9.19
     4.2251       8.51
     4.2256       7.99
     4.2262       7.55
     4.2268       7.16
     4.2274       7.02
     4.2280       6.87
     4.2285       6.73
     4.2291       6.59
     4.2297       6.40
     4.2303       6.06
     4.2309       5.71
     4.2314       5.59
     4.2320       5.55
     4.2326       5.49
     4.2332       5.38
     4.2338       5.27
     4.2343       5.04
     4.2349       4.79
     4.2355       4.58
     4.2361       4.48
     4.2367       4.38
     4.2372       4.23
     4.2378       4.08
     4.2384       3.92
     4.2390       3.78
     4.2396       3.63
     4.2401       3.50
     4.2407       3.37
     4.2413       3.18
     4.2419       2.88
     4.2425       2.59
     4.2430       2.52
     4.2436       2.48
     4.2442       2.35
     4.2448       2.08
     4.2454       1.81
     4.2460       1.68
     4.2465       1.57
     4.2471       1.49
     4.2477       1.45
     4.2483       1.41
     4.2489       1.36
     4.2494       1.30
     4.2500       1.32
     4.2506       1.43
     4.2512       1.54
     4.2518       1.60
     4.2523       1.65
     4.2529       1.74
     4.2535       1.87
     4.2541       1.99
     4.2547       2.03
     4.2553       2.06
     4.2558       1.95
     4.2564       1.70
     4.2570       1.46
     4.2576       1.43
     4.2582       1.39
     4.2587       1.33
     4.2593       1.24
     4.2599       1.15
     4.2605       1.15
     4.2611       1.14
     4.2617       1.10
     4.2622       1.04
     4.2628       0.98
     4.2634       0.87
     4.2640       0.76
     4.2646       0.69
     4.2652       0.64
     4.2657       0.60
     4.2663       0.63
     4.2669       0.65
     4.2675       0.64
     4.2681       0.62
     4.2686       0.60
     4.2692       0.60
     4.2698       0.59
     4.2704       0.60
     4.2710       0.62
     4.2716       0.64
     4.2721       0.62
     4.2727       0.60
     4.2733       0.69
     4.2739       0.80
     4.2745       0.86
     4.2751       0.75
     4.2756       0.65
     4.2762       0.73
     4.2768       0.88
     4.2774       0.97
     4.2780       0.94
     4.2786       0.92
     4.2791       0.98
     4.2797       1.06
     4.2803       1.19
     4.2809       1.40
     4.2815       1.61
     4.2821       1.96
     4.2826       2.35
     4.2832       2.86
     4.2838       3.61
     4.2844       4.35
     4.2850       5.06
     4.2856       5.76
     4.2861       6.30
     4.2867       6.59
     4.2873       6.88
     4.2879       6.89
     4.2885       6.87
     4.2891       6.73
     4.2896       6.41
     4.2902       6.10
     4.2908       5.47
     4.2914       4.82
     4.2920       4.29
     4.2926       3.92
     4.2932       3.55
     4.2937       3.68
     4.2943       3.83
     4.2949       3.89
     4.2955       3.88
     4.2961       3.86
     4.2967       4.09
     4.2972       4.31
     4.2978       4.54
     4.2984       4.77
     4.2990       5.02
     4.2996       5.74
     4.3002       6.47
     4.3008       7.03
     4.3013       7.46
     4.3019       7.94
     4.3025       9.01
     4.3031      10.09
     4.3037      10.74
     4.3043      11.10
     4.3048      11.50
     4.3054      12.22
     4.3060      12.93
     4.3066      13.15
     4.3072      13.08
     4.3078      12.97
     4.3084      12.69
     4.3089      12.41
     4.3095      11.88
     4.3101      11.20
     4.3107      10.59
     4.3113      10.26
     4.3119       9.92
     4.3125       9.50
     4.3130       9.04
     4.3136       8.55
     4.3142       7.96
     4.3148       7.36
     4.3154       7.06
     4.3160       6.86
     4.3166       6.62
     4.3171       6.25
     4.3177       5.88
     4.3183       5.81
     4.3189       5.83
     4.3195       5.79
     4.3201       5.56
     4.3207       5.33
     4.3212       5.34
     4.3218       5.42
     4.3224       5.47
     4.3230       5.45
     4.3236       5.44
     4.3242       5.67
     4.3248       5.94
     4.3254       6.09
     4.3259       5.99
     4.3265       5.89
     4.3271       5.60
     4.3277       5.28
     4.3283       5.09
     4.3289       5.10
     4.3295       5.12
     4.3300       5.03
     4.3306       4.94
     4.3312       4.88
     4.3318       4.89
     4.3324       4.90
     4.3330       4.91
     4.3336       4.92
     4.3342       4.93
     4.3347       4.96
     4.3353       4.99
     4.3359       4.98
     4.3365       4.97
     4.3371       5.11
     4.3377       5.39
     4.3383       5.67
     4.3389       5.88
     4.3394       6.08
     4.3400       6.31
     4.3406       6.56
     4.3412       6.83
     4.3418       7.50
     4.3424       8.17
     4.3430       8.67
     4.3436       9.02
     4.3441       9.41
     4.3447      10.20
     4.3453      11.00
     4.3459      11.38
     4.3465      11.47
     4.3471      11.51
     4.3477      11.10
     4.3483      10.68
     4.3488      10.15
     4.3494       9.56
     4.3500       9.01
     4.3506       8.76
     4.3512       8.51
     4.3518       8.25
     4.3524       7.98
     4.3530       7.76
     4.3535       7.85
     4.3541       7.93
     4.3547       7.80
     4.3553       7.57
     4.3559       7.45
     4.3565       7.76
     4.3571       8.07
     4.3577       8.11
     4.3583       8.07
     4.3588       8.05
     4.3594       8.15
     4.3600       8.24
     4.3606       8.11
     4.3612       7.92
     4.3618       7.83
     4.3624       8.00
     4.3630       8.17
     4.3636       8.17
     4.3641       8.13
     4.3647       8.10
     4.3653       8.06
     4.3659       8.03
     4.3665       8.05
     4.3671       8.08
     4.3677       8.12
     4.3683       8.17
     4.3689       8.21
     4.3694       8.05
     4.3700       7.85
     4.3706       7.67
     4.3712       7.50
     4.3718       7.33
     4.3724       7.20
     4.3730       7.08
     4.3736       6.94
     4.3742       6.77
     4.3748       6.59
     4.3753       6.34
     4.3759       6.07
     4.3765       5.84
     4.3771       5.64
     4.3777       5.44
     4.3783       5.18
     4.3789       4.91
     4.3795       4.69
     4.3801       4.50
     4.3807       4.31
     4.3812       3.89
     4.3818       3.47
     4.3824       3.24
     4.3830       3.19
     4.3836       3.14
     4.3842       3.02
     4.3848       2.89
     4.3854       2.77
     4.3860       2.64
     4.3866       2.52
     4.3872       2.49
     4.3877       2.46
     4.3883       2.37
     4.3889       2.23
     4.3895       2.12
     4.3901       2.22
     4.3907       2.32
     4.3913       2.37
     4.3919       2.38
     4.3925       2.40
     4.3931       2.50
     4.3937       2.61
     4.3942       2.71
     4.3948       2.83
     4.3954       2.92
     4.3960       2.89
     4.3966       2.87
     4.3972       2.75
     4.3978       2.59
     4.3984       2.43
     4.3990       2.29
     4.3996       2.14
     4.4002       2.05
     4.4007       1.98
     4.4013       1.91
     4.4019       1.84
     4.4025       1.76
     4.4031       1.67
     4.4037       1.58
     4.4043       1.50
     4.4049       1.45
     4.4055       1.40
     4.4061       1.36
     4.4067       1.33
     4.4073       1.30
     4.4078       1.28
     4.4084       1.26
     4.4090       1.31
     4.4096       1.38
     4.4102       1.41
     4.4108       1.37
     4.4114       1.33
     4.4120       1.38
     4.4126       1.45
     4.4132       1.48
     4.4138       1.46
     4.4144       1.43
     4.4150       1.55
     4.4156       1.69
     4.4161       1.82
     4.4167       1.94
     4.4173       2.06
     4.4179       2.58
     4.4185       3.13
     4.4191       3.78
     4.4197       4.58
     4.4203       5.38
     4.4209       6.72
     4.4215       8.09
     4.4221       9.06
     4.4227       9.60
     4.4233      10.15
     4.4239      10.17
     4.4244      10.18
     4.4250       9.64
     4.4256       8.58
     4.4262       7.53
     4.4268       6.72
     4.4274       5.92
     4.4280       5.28
     4.4286       4.77
     4.4292       4.29
     4.4298       4.10
     4.4304       3.92
     4.4310       3.76
     4.4316       3.61
     4.4322       3.47
     4.4328       3.41
     4.4333       3.35
     4.4339       3.21
     4.4345       3.02
     4.4351       2.88
     4.4357       3.06
     4.4363       3.23
     4.4369       3.25
     4.4375       3.18
     4.4381       3.09
     4.4387       2.90
     4.4393       2.72
     4.4399       2.60
     4.4405       2.52
     4.4411       2.44
     4.4417       2.40
     4.4423       2.36
     4.4429       2.36
     4.4434       2.36
     4.4440       2.36
     4.4446       2.34
     4.4452       2.32
     4.4458       2.42
     4.4464       2.57
     4.4470       2.71
     4.4476       2.83
     4.4482       2.95
     4.4488       2.96
     4.4494       2.95
     4.4500       3.01
     4.4506       3.23
     4.4512       3.45
     4.4518       3.65
     4.4524       3.85
     4.4530       3.99
     4.4536       4.02
     4.4542       4.05
     4.4547       4.13
     4.4553       4.23
     4.4559       4.38
     4.4565       4.61
     4.4571       4.83
     4.4577       5.20
     4.4583       5.57
     4.4589       6.41
     4.4595       7.90
     4.4601       9.40
     4.4607      11.48
     4.4613      13.60
     4.4619      15.17
     4.4625      16.03
     4.4631      16.89
     4.4637      18.68
     4.4643      20.51
     4.4649      21.34
     4.4655      21.08
     4.4661      20.81
     4.4667      18.96
     4.4673      17.09
     4.4679      15.53
     4.4684      14.25
     4.4690      12.99
     4.4696      12.56
     4.4702      12.13
     4.4708      11.34
     4.4714      10.26
     4.4720       9.26
     4.4726       9.40
     4.4732       9.53
     4.4738       9.59
     4.4744       9.59
     4.4750       9.58
     4.4756       9.45
     4.4762       9.32
     4.4768       9.60
     4.4774      10.15
     4.4780      10.68
     4.4786      11.14
     4.4792      11.60
     4.4798      11.91
     4.4804      12.15
     4.4810      12.38
     4.4816      12.64
     4.4822      12.90
     4.4828      13.03
     4.4834      13.11
     4.4840      13.17
     4.4846      13.14
     4.4852      13.12
     4.4858      12.92
     4.4863      12.65
     4.4869      12.46
     4.4875      12.48
     4.4881      12.51
     4.4887      12.64
     4.4893      12.80
     4.4899      12.92
     4.4905      12.98
     4.4911      13.03
     4.4917      13.09
     4.4923      13.15
     4.4929      13.24
     4.4935      13.36
     4.4941      13.49
     4.4947      14.12
     4.4953      14.87
     4.4959      15.41
     4.4965      15.52
     4.4971      15.63
     4.4977      15.98
     4.4983      16.36
     4.4989      16.67
     4.4995      16.88
     4.5001      17.08
     4.5007      17.05
     4.5013      16.99
     4.5019      17.01
     4.5025      17.14
     4.5031      17.28
     4.5037      17.30
     4.5043      17.31
     4.5049      17.24
     4.5055      17.05
     4.5061      16.86
     4.5067      16.50
     4.5073      16.14
     4.5079      15.99
     4.5085      16.07
     4.5091      16.15
     4.5097      15.78
     4.5103      15.40
     4.5109      14.99
     4.5115      14.56
     4.5121      14.13
     4.5127      13.70
     4.5133      13.27
     4.5139      12.98
     4.5145      12.82
     4.5151      12.64
     4.5157      12.17
     4.5163      11.70
     4.5169      11.20
     4.5175      10.69
     4.5181      10.17
     4.5187       9.66
     4.5193       9.15
     4.5199       8.79
     4.5205       8.54
     4.5211       8.26
     4.5217       7.88
     4.5223       7.50
     4.5229       7.19
     4.5235       6.93
     4.5241       6.68
     4.5247       6.50
     4.5253       6.32
     4.5259       6.17
     4.5265       6.04
     4.5271       5.95
     4.5277       6.06
     4.5283       6.16
     4.5289       6.14
     4.5295       6.06
     4.5301       6.05
     4.5307       6.26
     4.5313       6.47
     4.5319       6.47
     4.5325       6.41
     4.5331       6.37
     4.5337       6.38
     4.5343       6.38
     4.5349       6.28
     4.5355       6.14
     4.5361       6.02
     4.5367       5.94
     4.5373       5.86
     4.5379       5.80
     4.5385       5.75
     4.5391       5.72
     4.5397       5.71
     4.5403       5.71
     4.5409       5.82
     4.5415       5.94
     4.5421       5.98
     4.5427       5.88
     4.5433       5.77
     4.5439       5.83
     4.5445       5.90
     4.5451       5.92
     4.5457       5.85
     4.5463       5.78
     4.5469       5.95
     4.5475       6.14
     4.5481       6.18
     4.5487       6.01
     4.5493       5.85
     4.5499       6.04
     4.5505       6.26
     4.5511       6.40
     4.5517       6.45
     4.5523       6.51
     4.5529       6.75
     4.5535       6.99
     4.5541       7.24
     4.5547       7.49
     4.5553       7.74
     4.5559       7.80
     4.5565       7.85
     4.5571       7.87
     4.5577       7.86
     4.5583       7.83
     4.5589       7.69
     4.5595       7.55
     4.5601       7.49
     4.5607       7.48
     4.5613       7.47
     4.5619       7.33
     4.5625       7.19
     4.5631       7.07
     4.5637       6.97
     4.5643       6.85
     4.5649       6.62
     4.5655       6.38
     4.5661       6.32
     4.5667       6.34
     4.5673       6.34
     4.5679       6.23
     4.5686       6.13
     4.5692       6.03
     4.5698       5.95
     4.5704       5.93
     4.5710       6.20
     4.5716       6.46
     4.5722       6.55
     4.5728       6.55
     4.5734       6.56
     4.5740       6.54
     4.5746       6.52
     4.5752       6.76
     4.5758       7.09
     4.5764       7.34
     4.5770       7.33
     4.5776       7.32
     4.5782       7.48
     4.5788       7.69
     4.5794       7.86
     4.5800       7.97
     4.5806       8.07
     4.5812       8.27
     4.5818       8.48
     4.5824       8.76
     4.5830       9.17
     4.5836       9.58
     4.5842      10.21
     4.5848      10.89
     4.5854      11.39
     4.5860      11.58
     4.5867      11.77
     4.5873      12.22
     4.5879      12.71
     4.5885      13.04
     4.5891      13.14
     4.5897      13.24
     4.5903      13.17
     4.5909      13.09
     4.5915      12.88
     4.5921      12.50
     4.5927      12.12
     4.5933      11.69
     4.5939      11.25
     4.5945      10.86
     4.5951      10.52
     4.5957      10.19
     4.5963      10.26
     4.5969      10.35
ENDDATA           1088
ENDSUBENT         1103
SUBENT        C0304009   20220828   20230315   20230314       C220
BIB                  5         10
REACTION   (11-NA-23(A,N)13-AL-26,PAR,SIG,,,DERIV)
ANALYSIS    (a,n0)=(a,ntot)-(a,n1)-(a,n2)
CRITIQUE   Above 4.5686 MeV, this data set is equal to 006 minus
            008.
STATUS     (DEP,C0304006) (a,ntot) cross section
           (DEP,C0304007) (a,n1) cross section
           (DEP,C0304008) (a,n2) cross section
HISTORY    (20220828A) On. REACTION corrected. E-LVL added.
            ERR-ANALYS deleted. Data exchanged with C0304.006
            at 3.7538 MeV and above.
ENDBIB              10
COMMON               1          3
E-LVL
MEV
 0.
ENDCOMMON            3
DATA                 2       1466
EN         DATA
MEV        MB
     3.7538       3.68
     3.7543       3.49
     3.7549       3.42
     3.7554       3.35
     3.7560       3.27
     3.7565       3.16
     3.7571       3.06
     3.7576       2.98
     3.7581       2.89
     3.7587       2.83
     3.7592       2.78
     3.7598       2.74
     3.7603       2.78
     3.7609       2.82
     3.7614       2.86
     3.7620       2.90
     3.7625       2.93
     3.7631       3.00
     3.7636       3.06
     3.7642       3.16
     3.7647       3.31
     3.7653       3.46
     3.7658       3.73
     3.7664       4.01
     3.7669       4.42
     3.7674       4.95
     3.7680       5.47
     3.7685       5.80
     3.7691       6.13
     3.7696       6.62
     3.7702       7.23
     3.7707       7.82
     3.7713       8.16
     3.7718       8.50
     3.7724       8.63
     3.7729       8.58
     3.7735       8.50
     3.7740       8.15
     3.7746       7.81
     3.7751       7.37
     3.7757       6.88
     3.7762       6.41
     3.7768       6.16
     3.7773       5.91
     3.7779       5.67
     3.7784       5.45
     3.7790       5.27
     3.7795       5.45
     3.7801       5.63
     3.7806       6.09
     3.7811       6.73
     3.7817       7.63
     3.7822       9.96
     3.7828      12.30
     3.7833      14.58
     3.7839      16.84
     3.7844      19.08
     3.7850      21.24
     3.7855      23.40
     3.7861      24.13
     3.7866      24.09
     3.7872      23.76
     3.7877      21.76
     3.7883      19.75
     3.7888      17.59
     3.7894      15.35
     3.7899      13.19
     3.7905      11.29
     3.7910       9.39
     3.7916       8.17
     3.7921       7.23
     3.7927       6.36
     3.7932       5.76
     3.7938       5.18
     3.7943       4.63
     3.7949       4.08
     3.7954       3.61
     3.7960       3.36
     3.7965       3.11
     3.7971       2.98
     3.7976       2.89
     3.7982       2.79
     3.7987       2.64
     3.7993       2.50
     3.7998       2.44
     3.8004       2.40
     3.8009       2.35
     3.8015       2.27
     3.8020       2.18
     3.8026       2.16
     3.8031       2.17
     3.8037       2.14
     3.8042       2.07
     3.8048       1.99
     3.8053       2.00
     3.8059       2.03
     3.8064       2.05
     3.8070       2.07
     3.8075       2.08
     3.8081       2.02
     3.8086       1.94
     3.8092       1.88
     3.8097       1.90
     3.8103       1.90
     3.8108       1.92
     3.8114       1.93
     3.8119       1.97
     3.8125       2.07
     3.8130       2.18
     3.8136       2.21
     3.8141       2.24
     3.8147       2.29
     3.8152       2.36
     3.8158       2.44
     3.8163       2.67
     3.8169       2.95
     3.8174       3.21
     3.8180       3.48
     3.8185       3.74
     3.8191       3.98
     3.8196       4.21
     3.8202       4.45
     3.8207       4.71
     3.8213       4.96
     3.8218       5.57
     3.8224       6.20
     3.8229       7.27
     3.8235       9.01
     3.8240      10.74
     3.8246      13.04
     3.8251      15.35
     3.8257      17.07
     3.8263      18.04
     3.8268      19.01
     3.8274      19.33
     3.8279      19.62
     3.8285      19.51
     3.8290      18.91
     3.8296      18.30
     3.8301      16.92
     3.8307      15.48
     3.8312      14.14
     3.8318      12.90
     3.8323      11.67
     3.8329      10.33
     3.8334       9.01
     3.8340       7.97
     3.8345       7.20
     3.8351       6.45
     3.8356       6.05
     3.8362       5.64
     3.8367       5.25
     3.8373       4.87
     3.8378       4.47
     3.8384       4.15
     3.8390       3.83
     3.8395       3.61
     3.8401       3.50
     3.8406       3.38
     3.8412       3.30
     3.8417       3.21
     3.8423       3.12
     3.8428       3.03
     3.8434       2.93
     3.8439       2.87
     3.8445       2.81
     3.8450       2.78
     3.8456       2.79
     3.8461       2.79
     3.8467       2.71
     3.8472       2.63
     3.8478       2.55
     3.8484       2.47
     3.8489       2.39
     3.8495       2.31
     3.8500       2.22
     3.8506       2.20
     3.8511       2.22
     3.8517       2.24
     3.8522       2.12
     3.8528       2.00
     3.8533       1.91
     3.8539       1.84
     3.8544       1.77
     3.8550       1.73
     3.8555       1.67
     3.8561       1.65
     3.8567       1.63
     3.8572       1.62
     3.8578       1.64
     3.8583       1.64
     3.8589       1.73
     3.8594       1.85
     3.8600       2.11
     3.8605       3.16
     3.8611       4.21
     3.8616       6.26
     3.8622       8.74
     3.8628      11.09
     3.8633      12.90
     3.8639      14.72
     3.8644      15.21
     3.8650      15.14
     3.8655      14.64
     3.8661      12.44
     3.8666      10.23
     3.8672       8.26
     3.8677       6.38
     3.8683       4.70
     3.8688       3.82
     3.8694       2.93
     3.8700       2.45
     3.8705       2.11
     3.8711       1.82
     3.8716       1.70
     3.8722       1.58
     3.8727       1.52
     3.8733       1.48
     3.8738       1.46
     3.8744       1.51
     3.8750       1.55
     3.8755       1.52
     3.8761       1.46
     3.8766       1.42
     3.8772       1.44
     3.8777       1.45
     3.8783       1.49
     3.8788       1.53
     3.8794       1.58
     3.8800       1.62
     3.8805       1.67
     3.8811       1.73
     3.8816       1.78
     3.8822       1.83
     3.8827       1.86
     3.8833       1.88
     3.8838       1.99
     3.8844       2.11
     3.8850       2.26
     3.8855       2.44
     3.8861       2.62
     3.8866       2.89
     3.8872       3.18
     3.8877       3.54
     3.8883       4.01
     3.8888       4.48
     3.8894       4.87
     3.8900       5.24
     3.8905       5.57
     3.8911       5.84
     3.8916       6.12
     3.8922       6.09
     3.8927       6.03
     3.8933       5.92
     3.8939       5.74
     3.8944       5.55
     3.8950       5.31
     3.8955       5.08
     3.8961       4.88
     3.8966       4.74
     3.8972       4.60
     3.8978       4.56
     3.8983       4.54
     3.8989       4.64
     3.8994       4.87
     3.9000       5.09
     3.9005       4.91
     3.9011       4.70
     3.9016       4.40
     3.9022       3.98
     3.9028       3.56
     3.9033       3.15
     3.9039       2.75
     3.9044       2.43
     3.9050       2.21
     3.9055       2.00
     3.9061       1.86
     3.9067       1.71
     3.9072       1.64
     3.9078       1.65
     3.9083       1.67
     3.9089       1.59
     3.9095       1.52
     3.9100       1.47
     3.9106       1.44
     3.9111       1.41
     3.9117       1.39
     3.9122       1.37
     3.9128       1.36
     3.9134       1.35
     3.9139       1.35
     3.9145       1.30
     3.9150       1.27
     3.9156       1.25
     3.9161       1.26
     3.9167       1.27
     3.9173       1.33
     3.9178       1.37
     3.9184       1.36
     3.9189       1.29
     3.9195       1.23
     3.9201       1.19
     3.9206       1.15
     3.9212       1.13
     3.9217       1.11
     3.9223       1.10
     3.9228       1.11
     3.9234       1.12
     3.9240       1.13
     3.9245       1.10
     3.9251       1.08
     3.9256       1.08
     3.9262       1.07
     3.9268       1.08
     3.9273       1.10
     3.9279       1.12
     3.9284       1.20
     3.9290       1.27
     3.9296       1.33
     3.9301       1.41
     3.9307       1.49
     3.9312       1.72
     3.9318       1.95
     3.9323       2.17
     3.9329       2.35
     3.9335       2.57
     3.9340       2.96
     3.9346       3.36
     3.9351       4.03
     3.9357       4.82
     3.9363       5.56
     3.9368       6.08
     3.9374       6.60
     3.9379       7.21
     3.9385       7.87
     3.9391       8.44
     3.9396       8.63
     3.9402       8.82
     3.9407       8.79
     3.9413       8.67
     3.9419       8.54
     3.9424       8.37
     3.9430       8.20
     3.9435       8.17
     3.9441       8.17
     3.9447       8.23
     3.9452       8.43
     3.9458       8.63
     3.9463       8.57
     3.9469       8.44
     3.9475       8.26
     3.9480       7.97
     3.9486       7.69
     3.9491       7.24
     3.9497       6.76
     3.9503       6.19
     3.9508       5.41
     3.9514       4.63
     3.9519       4.21
     3.9525       3.88
     3.9531       3.59
     3.9536       3.43
     3.9542       3.26
     3.9548       3.09
     3.9553       2.93
     3.9559       2.81
     3.9564       2.80
     3.9570       2.79
     3.9576       2.78
     3.9581       2.77
     3.9587       2.76
     3.9592       2.75
     3.9598       2.75
     3.9604       2.79
     3.9609       2.85
     3.9615       2.90
     3.9620       2.94
     3.9626       2.99
     3.9632       3.08
     3.9637       3.18
     3.9643       3.29
     3.9649       3.31
     3.9654       3.49
     3.9660       3.81
     3.9665       4.08
     3.9671       4.41
     3.9677       4.86
     3.9682       5.31
     3.9688       5.77
     3.9693       6.24
     3.9699       6.79
     3.9705       7.47
     3.9710       8.16
     3.9716       8.18
     3.9722       8.03
     3.9727       7.68
     3.9733       7.21
     3.9738       6.80
     3.9744       6.49
     3.9750       6.11
     3.9755       5.81
     3.9761       5.66
     3.9767       5.50
     3.9772       5.30
     3.9778       5.12
     3.9783       4.80
     3.9789       4.29
     3.9795       3.79
     3.9800       3.41
     3.9806       2.99
     3.9812       2.57
     3.9817       2.23
     3.9823       1.94
     3.9828       1.84
     3.9834       1.68
     3.9840       1.53
     3.9845       1.38
     3.9851       1.24
     3.9857       1.17
     3.9862       1.17
     3.9868       1.15
     3.9873       1.12
     3.9879       1.06
     3.9885       1.06
     3.9890       1.07
     3.9896       1.08
     3.9902       1.07
     3.9907       1.07
     3.9913       1.12
     3.9919       1.21
     3.9924       1.30
     3.9930       1.29
     3.9935       1.29
     3.9941       1.31
     3.9947       1.39
     3.9952       1.49
     3.9958       1.45
     3.9964       1.40
     3.9969       1.36
     3.9975       1.38
     3.9981       1.36
     3.9986       1.30
     3.9992       1.25
     3.9997       1.34
     4.0003       1.49
     4.0009       1.57
     4.0014       1.50
     4.0020       1.43
     4.0026       1.53
     4.0031       1.66
     4.0037       1.79
     4.0043       1.89
     4.0048       2.04
     4.0054       2.30
     4.0060       2.52
     4.0065       2.77
     4.0071       3.05
     4.0076       3.34
     4.0082       3.69
     4.0088       4.05
     4.0093       4.40
     4.0099       4.73
     4.0105       4.98
     4.0110       4.88
     4.0116       4.69
     4.0122       4.18
     4.0127       3.69
     4.0133       3.21
     4.0139       2.90
     4.0144       2.64
     4.0150       2.50
     4.0156       2.27
     4.0161       2.06
     4.0167       1.93
     4.0173       1.83
     4.0178       1.83
     4.0184       1.84
     4.0189       1.85
     4.0195       1.82
     4.0201       1.79
     4.0206       1.77
     4.0212       1.73
     4.0218       1.69
     4.0223       1.73
     4.0229       1.78
     4.0235       1.84
     4.0240       1.89
     4.0246       1.97
     4.0252       2.08
     4.0257       2.19
     4.0263       2.41
     4.0269       2.67
     4.0274       3.02
     4.0280       3.50
     4.0286       3.95
     4.0291       5.16
     4.0297       6.66
     4.0303       8.50
     4.0308      11.01
     4.0314      13.51
     4.0320      15.64
     4.0325      17.79
     4.0331      19.02
     4.0337      18.47
     4.0342      17.91
     4.0348      16.48
     4.0354      14.91
     4.0359      13.89
     4.0365      14.00
     4.0371      14.12
     4.0376      17.34
     4.0382      21.09
     4.0388      24.52
     4.0393      27.59
     4.0399      30.67
     4.0405      30.05
     4.0410      29.00
     4.0416      27.01
     4.0422      23.50
     4.0427      19.98
     4.0433      16.84
     4.0439      13.74
     4.0444      11.26
     4.0450       9.61
     4.0456       7.97
     4.0461       7.02
     4.0467       6.19
     4.0473       6.24
     4.0478       7.23
     4.0484       8.21
     4.0490      11.27
     4.0495      14.15
     4.0501      16.52
     4.0507      17.29
     4.0512      18.05
     4.0518      14.81
     4.0524      12.32
     4.0529       8.93
     4.0535       5.97
     4.0541       3.00
     4.0546       0.85
     4.0552       0.27
     4.0558       0.01
     4.0563       0.09
     4.0569       0.01
     4.0575       0.01
     4.0581       0.02
     4.0586       0.01
     4.0592       0.05
     4.0598       0.01
     4.0603       0.39
     4.0609       0.72
     4.0615       1.02
     4.0620       1.12
     4.0626       1.23
     4.0632       1.35
     4.0637       1.46
     4.0643       1.54
     4.0649       1.58
     4.0654       1.62
     4.0660       1.74
     4.0666       1.86
     4.0671       1.92
     4.0677       1.95
     4.0683       1.99
     4.0689       2.19
     4.0694       2.40
     4.0700       2.52
     4.0706       2.44
     4.0711       2.38
     4.0717       2.61
     4.0723       2.89
     4.0728       3.01
     4.0734       2.94
     4.0740       2.86
     4.0745       2.96
     4.0751       3.09
     4.0757       3.25
     4.0763       3.40
     4.0768       3.55
     4.0774       3.60
     4.0780       3.66
     4.0785       3.67
     4.0791       3.65
     4.0797       3.64
     4.0802       3.78
     4.0808       3.90
     4.0814       3.96
     4.0819       3.96
     4.0825       3.95
     4.0831       3.99
     4.0837       4.02
     4.0842       3.98
     4.0848       3.90
     4.0854       3.82
     4.0859       3.62
     4.0865       3.44
     4.0871       3.32
     4.0876       3.30
     4.0882       3.29
     4.0888       3.18
     4.0894       3.07
     4.0899       3.13
     4.0905       3.20
     4.0911       3.40
     4.0916       4.16
     4.0922       4.91
     4.0928       5.06
     4.0934       4.98
     4.0939       4.48
     4.0945       3.60
     4.0951       2.84
     4.0956       2.04
     4.0962       1.30
     4.0968       0.50
     4.0973       0.11
     4.0979       0.05
     4.0985       0.06
     4.0991       0.01
     4.0996       0.01
     4.1002       0.01
     4.1008       0.02
     4.1013       0.21
     4.1019       0.44
     4.1025       0.58
     4.1031       0.72
     4.1036       0.87
     4.1042       0.95
     4.1048       1.00
     4.1053       1.07
     4.1059       1.13
     4.1065       1.21
     4.1071       1.30
     4.1076       1.42
     4.1082       1.50
     4.1088       1.49
     4.1093       1.48
     4.1099       1.93
     4.1105       2.46
     4.1111       3.38
     4.1116       5.09
     4.1122       6.78
     4.1128       9.27
     4.1133      11.87
     4.1139      15.19
     4.1145      19.81
     4.1151      24.42
     4.1156      25.81
     4.1162      26.81
     4.1168      26.77
     4.1174      25.16
     4.1179      23.55
     4.1185      21.46
     4.1191      19.30
     4.1196      17.41
     4.1202      15.91
     4.1208      14.40
     4.1214      13.24
     4.1219      12.08
     4.1225      10.93
     4.1231       9.80
     4.1236       8.68
     4.1242       7.77
     4.1248       6.87
     4.1254       6.22
     4.1259       5.84
     4.1265       5.46
     4.1271       5.72
     4.1277       6.00
     4.1282       6.40
     4.1288       6.92
     4.1294       7.45
     4.1300       8.05
     4.1305       8.64
     4.1311       9.24
     4.1317       9.85
     4.1322      10.45
     4.1328      11.07
     4.1334      11.68
     4.1340      12.51
     4.1345      13.56
     4.1351      14.60
     4.1357      15.62
     4.1363      16.64
     4.1368      17.77
     4.1374      18.98
     4.1380      20.19
     4.1386      21.57
     4.1391      22.96
     4.1397      24.69
     4.1403      26.69
     4.1408      28.64
     4.1414      29.65
     4.1420      30.66
     4.1426      31.76
     4.1431      32.89
     4.1437      34.02
     4.1443      34.96
     4.1449      35.91
     4.1454      36.36
     4.1460      36.48
     4.1466      36.59
     4.1472      36.35
     4.1477      36.11
     4.1483      35.29
     4.1489      34.13
     4.1495      33.00
     4.1500      31.98
     4.1506      30.94
     4.1512      29.13
     4.1518      26.92
     4.1523      24.98
     4.1529      24.54
     4.1535      24.09
     4.1541      24.14
     4.1546      24.40
     4.1552      24.59
     4.1558      24.79
     4.1564      25.00
     4.1569      24.78
     4.1575      24.25
     4.1581      23.55
     4.1587      22.14
     4.1592      20.74
     4.1598      19.50
     4.1604      18.30
     4.1610      17.27
     4.1615      16.90
     4.1621      16.52
     4.1627      16.64
     4.1633      17.00
     4.1638      17.38
     4.1644      17.98
     4.1650      18.57
     4.1656      18.73
     4.1661      18.65
     4.1667      18.37
     4.1673      17.33
     4.1679      16.30
     4.1684      15.00
     4.1690      13.68
     4.1696      12.53
     4.1702      11.50
     4.1707      10.47
     4.1713       9.78
     4.1719       9.19
     4.1725       8.71
     4.1730       8.48
     4.1736       8.27
     4.1742       8.20
     4.1748       8.18
     4.1754       8.22
     4.1759       8.25
     4.1765       8.26
     4.1771       8.30
     4.1777       8.41
     4.1782       8.56
     4.1788       8.79
     4.1794       9.03
     4.1800       9.23
     4.1805       9.40
     4.1811       9.60
     4.1817       9.93
     4.1823      10.26
     4.1828      10.52
     4.1834      10.80
     4.1840      11.16
     4.1846      11.58
     4.1852      11.96
     4.1857      12.16
     4.1863      12.34
     4.1869      12.67
     4.1875      13.10
     4.1880      13.52
     4.1886      13.79
     4.1892      14.05
     4.1898      14.24
     4.1903      14.39
     4.1909      14.59
     4.1915      14.82
     4.1921      15.03
     4.1927      15.09
     4.1932      15.11
     4.1938      15.16
     4.1944      15.29
     4.1950      15.41
     4.1955      15.59
     4.1961      15.76
     4.1967      15.87
     4.1973      16.28
     4.1979      16.70
     4.1984      17.38
     4.1990      18.13
     4.1996      18.81
     4.2002      19.80
     4.2007      20.84
     4.2013      22.65
     4.2019      25.31
     4.2025      27.88
     4.2031      31.63
     4.2036      35.43
     4.2042      40.17
     4.2048      46.04
     4.2054      51.84
     4.2060      57.34
     4.2065      62.84
     4.2071      66.25
     4.2077      67.63
     4.2083      69.03
     4.2088      65.28
     4.2094      61.55
     4.2100      57.02
     4.2106      51.52
     4.2112      46.26
     4.2117      40.05
     4.2123      33.82
     4.2129      29.33
     4.2135      26.43
     4.2141      23.74
     4.2146      23.28
     4.2152      22.81
     4.2158      22.24
     4.2164      21.93
     4.2169      21.64
     4.2175      21.26
     4.2181      20.74
     4.2187      17.98
     4.2193      14.56
     4.2198      12.16
     4.2204      11.17
     4.2210      10.19
     4.2216       9.43
     4.2222       8.69
     4.2227       8.09
     4.2233       7.69
     4.2239       7.33
     4.2245       7.43
     4.2251       7.62
     4.2256       7.65
     4.2262       7.51
     4.2268       7.33
     4.2274       7.16
     4.2280       7.18
     4.2285       7.14
     4.2291       6.86
     4.2297       6.62
     4.2303       6.61
     4.2309       6.64
     4.2314       6.41
     4.2320       5.91
     4.2326       5.42
     4.2332       5.18
     4.2338       5.04
     4.2343       5.00
     4.2349       4.88
     4.2355       4.72
     4.2361       4.58
     4.2367       4.48
     4.2372       4.42
     4.2378       4.29
     4.2384       4.17
     4.2390       4.05
     4.2396       3.96
     4.2401       3.80
     4.2407       3.49
     4.2413       3.25
     4.2419       3.22
     4.2425       3.24
     4.2430       3.05
     4.2436       2.88
     4.2442       2.80
     4.2448       2.93
     4.2454       3.09
     4.2460       3.10
     4.2465       3.10
     4.2471       3.07
     4.2477       3.20
     4.2483       3.39
     4.2489       3.68
     4.2494       4.24
     4.2500       4.73
     4.2506       4.96
     4.2512       5.14
     4.2518       5.30
     4.2523       5.32
     4.2529       5.29
     4.2535       5.04
     4.2541       4.74
     4.2547       4.58
     4.2553       4.55
     4.2558       4.65
     4.2564       5.17
     4.2570       5.75
     4.2576       6.33
     4.2582       7.43
     4.2587       8.56
     4.2593       9.76
     4.2599      10.98
     4.2605      11.73
     4.2611      11.80
     4.2617      11.89
     4.2622      11.22
     4.2628      10.40
     4.2634       9.60
     4.2640       8.75
     4.2646       7.86
     4.2652       7.00
     4.2657       6.13
     4.2663       5.40
     4.2669       5.04
     4.2675       4.70
     4.2681       4.50
     4.2686       4.31
     4.2692       4.17
     4.2698       4.14
     4.2704       4.08
     4.2710       4.04
     4.2716       4.01
     4.2721       4.08
     4.2727       4.25
     4.2733       4.32
     4.2739       4.25
     4.2745       4.22
     4.2751       4.35
     4.2756       4.44
     4.2762       4.34
     4.2768       4.27
     4.2774       4.27
     4.2780       4.48
     4.2786       4.80
     4.2791       5.05
     4.2797       5.25
     4.2803       5.39
     4.2809       5.88
     4.2815       6.89
     4.2821       7.76
     4.2826       9.17
     4.2832      10.47
     4.2838      11.16
     4.2844      11.50
     4.2850      11.87
     4.2856      11.03
     4.2861      10.35
     4.2867       9.90
     4.2873       9.38
     4.2879       9.16
     4.2885       9.07
     4.2891       9.11
     4.2896       9.75
     4.2902      10.72
     4.2908      12.07
     4.2914      14.31
     4.2920      16.44
     4.2926      17.96
     4.2932      19.11
     4.2937      19.78
     4.2943      20.60
     4.2949      21.52
     4.2955      21.99
     4.2961      22.03
     4.2967      21.79
     4.2972      21.14
     4.2978      20.49
     4.2984      19.81
     4.2990      19.08
     4.2996      17.96
     4.3002      17.35
     4.3008      16.91
     4.3013      16.67
     4.3019      16.42
     4.3025      15.55
     4.3031      14.38
     4.3037      13.65
     4.3043      13.07
     4.3048      12.38
     4.3054      11.34
     4.3060      10.12
     4.3066       9.39
     4.3072       8.63
     4.3078       7.73
     4.3084       6.88
     4.3089       5.26
     4.3095       3.90
     4.3101       3.69
     4.3107       3.95
     4.3113       3.93
     4.3119       3.91
     4.3125       3.98
     4.3130       4.20
     4.3136       4.51
     4.3142       4.89
     4.3148       5.15
     4.3154       5.12
     4.3160       5.26
     4.3166       5.55
     4.3171       5.97
     4.3177       6.34
     4.3183       6.41
     4.3189       6.42
     4.3195       6.50
     4.3201       6.78
     4.3207       7.10
     4.3212       7.18
     4.3218       7.36
     4.3224       7.63
     4.3230       7.89
     4.3236       7.87
     4.3242       7.62
     4.3248       7.24
     4.3254       6.92
     4.3259       6.89
     4.3265       6.93
     4.3271       7.16
     4.3277       7.53
     4.3283       7.79
     4.3289       7.86
     4.3295       7.90
     4.3300       8.05
     4.3306       8.23
     4.3312       8.39
     4.3318       8.47
     4.3324       8.51
     4.3330       8.55
     4.3336       8.77
     4.3342       9.00
     4.3347       9.17
     4.3353       9.20
     4.3359       9.27
     4.3365       9.73
     4.3371      10.11
     4.3377      10.30
     4.3383      10.42
     4.3389      10.62
     4.3394      11.56
     4.3400      12.60
     4.3406      13.68
     4.3412      14.82
     4.3418      15.56
     4.3424      16.67
     4.3430      18.00
     4.3436      19.64
     4.3441      21.54
     4.3447      23.03
     4.3453      24.81
     4.3459      27.03
     4.3465      27.95
     4.3471      26.51
     4.3477      25.53
     4.3483      23.95
     4.3488      22.41
     4.3494      20.92
     4.3500      19.38
     4.3506      17.54
     4.3512      16.52
     4.3518      15.62
     4.3524      15.10
     4.3530      14.98
     4.3535      14.57
     4.3541      14.18
     4.3547      14.00
     4.3553      14.04
     4.3559      14.10
     4.3565      13.73
     4.3571      13.53
     4.3577      13.61
     4.3583      13.98
     4.3588      14.54
     4.3594      15.00
     4.3600      15.32
     4.3606      15.85
     4.3612      16.54
     4.3618      17.22
     4.3624      17.64
     4.3630      19.05
     4.3636      20.61
     4.3641      21.92
     4.3647      22.92
     4.3653      23.94
     4.3659      25.65
     4.3665      27.30
     4.3671      28.76
     4.3677      30.05
     4.3683      31.32
     4.3689      32.24
     4.3694      33.38
     4.3700      33.88
     4.3706      33.79
     4.3712      33.65
     4.3718      32.67
     4.3724      31.66
     4.3730      30.44
     4.3736      29.06
     4.3742      27.71
     4.3748      26.33
     4.3753      25.02
     4.3759      23.93
     4.3765      22.94
     4.3771      21.93
     4.3777      21.03
     4.3783      20.20
     4.3789      19.41
     4.3795      18.59
     4.3801      17.74
     4.3807      16.92
     4.3812      16.33
     4.3818      15.82
     4.3824      15.20
     4.3830      14.40
     4.3836      13.67
     4.3842      13.00
     4.3848      12.33
     4.3854      11.65
     4.3860      10.99
     4.3866      10.41
     4.3872       9.73
     4.3877       9.09
     4.3883       8.52
     4.3889       7.99
     4.3895       7.36
     4.3901       6.52
     4.3907       6.07
     4.3913       5.82
     4.3919       5.61
     4.3925       5.38
     4.3931       5.06
     4.3937       4.83
     4.3942       4.66
     4.3948       4.34
     4.3954       3.59
     4.3960       2.95
     4.3966       2.69
     4.3972       2.69
     4.3978       2.69
     4.3984       2.55
     4.3990       2.39
     4.3996       2.32
     4.4002       2.21
     4.4007       2.15
     4.4013       2.28
     4.4019       2.41
     4.4025       2.60
     4.4031       2.81
     4.4037       3.13
     4.4043       3.73
     4.4049       4.31
     4.4055       4.84
     4.4061       5.33
     4.4067       5.72
     4.4073       5.83
     4.4078       5.93
     4.4084       5.69
     4.4090       5.29
     4.4096       4.89
     4.4102       4.56
     4.4108       4.31
     4.4114       4.21
     4.4120       4.07
     4.4126       3.95
     4.4132       4.02
     4.4138       4.13
     4.4144       4.23
     4.4150       4.20
     4.4156       4.17
     4.4161       4.23
     4.4167       4.29
     4.4173       5.36
     4.4179       6.20
     4.4185       7.12
     4.4191       8.11
     4.4197       8.96
     4.4203      10.10
     4.4209      10.77
     4.4215      10.66
     4.4221       9.88
     4.4227       9.51
     4.4233       7.41
     4.4239       5.63
     4.4244       4.23
     4.4250       3.92
     4.4256       4.14
     4.4262       3.88
     4.4268       3.33
     4.4274       3.12
     4.4280       3.28
     4.4286       3.31
     4.4292       3.41
     4.4298       3.22
     4.4304       3.26
     4.4310       3.57
     4.4316       3.87
     4.4322       4.88
     4.4328       5.85
     4.4333       8.24
     4.4339      12.46
     4.4345      16.72
     4.4351      20.15
     4.4357      23.20
     4.4363      24.74
     4.4369      24.56
     4.4375      24.49
     4.4381      23.07
     4.4387      21.75
     4.4393      19.68
     4.4399      16.82
     4.4405      13.91
     4.4411      11.95
     4.4417       9.95
     4.4423       8.72
     4.4429       8.19
     4.4434       7.67
     4.4440       7.69
     4.4446       7.73
     4.4452       7.95
     4.4458       8.18
     4.4464       8.38
     4.4470       8.68
     4.4476       8.99
     4.4482       9.33
     4.4488       9.80
     4.4494      10.30
     4.4500      10.66
     4.4506      10.87
     4.4512      10.91
     4.4518      10.85
     4.4524      10.73
     4.4530      10.33
     4.4536      10.05
     4.4542       9.95
     4.4547       9.92
     4.4553       9.89
     4.4559       9.99
     4.4565      10.03
     4.4571      10.25
     4.4577      10.46
     4.4583      10.77
     4.4589      11.76
     4.4595      12.11
     4.4601      13.42
     4.4607      14.81
     4.4613      16.00
     4.4619      16.82
     4.4625      18.36
     4.4631      18.68
     4.4637      17.42
     4.4643      15.58
     4.4649      11.69
     4.4655       8.90
     4.4661       6.35
     4.4667       5.50
     4.4673       4.72
     4.4679       3.95
     4.4684       2.90
     4.4690       2.86
     4.4696       2.44
     4.4702       2.14
     4.4708       2.71
     4.4714       3.58
     4.4720       4.56
     4.4726       4.52
     4.4732       4.47
     4.4738       4.49
     4.4744       4.56
     4.4750       4.97
     4.4756       5.63
     4.4762       6.32
     4.4768       6.70
     4.4774       6.81
     4.4780       6.94
     4.4786       7.16
     4.4792       7.39
     4.4798       7.87
     4.4804       8.43
     4.4810       8.40
     4.4816       8.15
     4.4822       7.85
     4.4828       7.54
     4.4834       7.28
     4.4840       6.93
     4.4846       6.65
     4.4852       6.44
     4.4858       6.60
     4.4863       6.82
     4.4869       6.89
     4.4875       6.73
     4.4881       6.66
     4.4887       6.75
     4.4893       6.81
     4.4899       7.01
     4.4905       7.30
     4.4911       7.59
     4.4917       7.84
     4.4923       8.10
     4.4929       8.77
     4.4935       9.51
     4.4941      10.12
     4.4947      10.03
     4.4953       9.82
     4.4959       9.86
     4.4965      10.35
     4.4971      10.70
     4.4977      10.57
     4.4983      10.40
     4.4989      10.86
     4.4995      11.54
     4.5001      11.96
     4.5007      12.11
     4.5013      12.29
     4.5019      12.06
     4.5025      11.68
     4.5031      11.10
     4.5037      10.35
     4.5043       9.59
     4.5049       9.51
     4.5055       9.61
     4.5061       9.79
     4.5067      10.26
     4.5073      10.73
     4.5079      11.12
     4.5085      11.29
     4.5091      11.78
     4.5097      13.14
     4.5103      14.50
     4.5109      15.19
     4.5115      15.86
     4.5121      15.82
     4.5127      14.92
     4.5133      14.02
     4.5139      12.83
     4.5145      11.49
     4.5151      10.16
     4.5157       9.11
     4.5163       8.07
     4.5169       7.58
     4.5175       7.11
     4.5181       6.95
     4.5187       7.12
     4.5193       7.28
     4.5199       7.31
     4.5205       7.21
     4.5211       7.21
     4.5217       7.34
     4.5223       7.49
     4.5229       7.59
     4.5235       7.65
     4.5241       7.84
     4.5247       8.05
     4.5253       8.27
     4.5259       8.75
     4.5265       9.22
     4.5271       9.74
     4.5277      10.11
     4.5283      10.57
     4.5289      12.29
     4.5295      14.07
     4.5301      15.67
     4.5307      16.97
     4.5313      18.21
     4.5319      18.49
     4.5325      18.83
     4.5331      19.17
     4.5337      19.48
     4.5343      19.82
     4.5349      20.45
     4.5355      21.14
     4.5361      22.17
     4.5367      23.40
     4.5373      24.64
     4.5379      26.08
     4.5385      27.50
     4.5391      28.08
     4.5397      28.08
     4.5403      28.04
     4.5409      27.71
     4.5415      27.37
     4.5421      26.60
     4.5427      25.68
     4.5433      24.69
     4.5439      23.07
     4.5445      21.46
     4.5451      20.37
     4.5457      19.63
     4.5463      18.88
     4.5469      17.75
     4.5475      16.59
     4.5481      15.81
     4.5487      15.32
     4.5493      14.88
     4.5499      14.32
     4.5505      13.73
     4.5511      13.12
     4.5517      12.59
     4.5523      12.15
     4.5529      11.95
     4.5535      11.76
     4.5541      11.58
     4.5547      11.42
     4.5553      11.23
     4.5559      11.16
     4.5565      11.11
     4.5571      10.75
     4.5577      10.34
     4.5583      10.04
     4.5589      10.22
     4.5595      10.39
     4.5601      10.21
     4.5607       9.89
     4.5613       9.61
     4.5619       9.58
     4.5625       9.54
     4.5631       9.54
     4.5637       9.53
     4.5643       9.61
     4.5649       9.95
     4.5655      10.30
     4.5661      10.83
     4.5667      11.37
     4.5673      12.27
     4.5679      14.06
     4.5686      17.75
     4.5692      18.74
     4.5698      19.51
     4.5704      20.02
     4.5710      19.77
     4.5716      19.52
     4.5722      18.59
     4.5728      17.61
     4.5734      16.42
     4.5740      14.88
     4.5746      13.35
     4.5752      11.79
     4.5758      10.18
     4.5764       8.71
     4.5770       7.63
     4.5776       6.55
     4.5782       5.46
     4.5788       4.34
     4.5794       3.45
     4.5800       2.89
     4.5806       2.34
     4.5812       2.53
     4.5818       2.80
     4.5824       3.63
     4.5830       5.25
     4.5836       6.87
     4.5842      11.56
     4.5848      16.57
     4.5854      22.19
     4.5860      28.75
     4.5867      35.31
     4.5873      36.15
     4.5879      36.66
     4.5885      34.93
     4.5891      30.47
     4.5897      26.01
     4.5903      20.74
     4.5909      15.42
     4.5915      11.95
     4.5921      10.75
     4.5927       9.55
     4.5933       8.89
     4.5939       8.27
     4.5945       7.96
     4.5951       8.04
     4.5957       8.12
     4.5963       8.03
     4.5969       7.93
ENDDATA           1468
ENDSUBENT         1487
ENDENTRY             9
