ENTRY            12553     841024
SUBENT        12553001     841024
BIB                  7         10
INSTITUTE  (1USAMTR,1USALAS)
REFERENCE  (C,66WASH,2,910(F-6),6603)
AUTHOR     (O.D.SIMPSON,R.G.FLUHARTY,M.S.MOORE,N.H.MARSHALL,
           B.C.DIVEN,A.HEMMENDINGER)
TITLE      THE FISSION CROSS SECTION OF PU241 FROM 20-200EV AS
            DETERMINED FROM A NUCLEAR EXPLOSION.
INC-SOURCE (EXPLO) NUCLEAR EXPLOSION.
STATUS     (SCSRS)
HISTORY    (760804T) TRANSLATED FROM SCISRS
           (841024A) BIB CORRECTION.
ENDBIB              10
NOCOMMON             0          0
ENDSUBENT           13
SUBENT        12553002     760804
BIB                  2          2
REACTION   (94-PU-241(N,F),,SIG)
METHOD     (TOF)      TIME-OF-FLIGHT
ENDBIB               2
NOCOMMON
DATA                 3       2554
EN         DATA       DATA-ERR
MEV        B          PER-CENT
 2.004  -05 5.335  +00   22.
 2.006  -05 5.899  +00   28.
 2.009  -05 6.143  +00   30.
 2.012  -05 6.605  +00   21.
 2.014  -05 5.778  +00   28.
 2.017  -05 5.753  +00   27.
 2.020  -05 5.499  +00   25.
 2.023  -05 7.046  +00   21.
 2.025  -05 7.357  +00   25.
 2.028  -05 8.252  +00   22.
 2.031  -05 8.588  +00   23.
 2.033  -05 1.195  +01   19.
 2.036  -05 1.356  +01   19.
 2.039  -05 1.243  +01   16.
 2.042  -05 9.849  +00   21.
 2.045  -05 1.131  +01   23.
 2.047  -05 1.189  +01   18.
 2.050  -05 1.008  +01   21.
 2.053  -05 1.178  +01   22.
 2.056  -05 1.597  +01   20.
 2.058  -05 2.411  +01   17.
 2.061  -05 3.436  +01   14.
 2.064  -05 4.585  +01   14.
 2.067  -05 5.828  +01   14.
 2.070  -05 7.187  +01   13.
 2.072  -05 7.429  +01   14.
 2.075  -05 7.090  +01   14.
 2.078  -05 6.308  +01   14.
 2.081  -05 5.156  +01   14.
 2.084  -05 4.018  +01   16.
 2.087  -05 2.670  +01   20.
 2.090  -05 1.816  +01   16.
 2.092  -05 1.541  +01   18.
 2.095  -05 1.422  +01   14.
 2.098  -05 1.270  +01   14.
 2.101  -05 1.118  +01   14.
 2.104  -05 1.012  +01   18.
 2.107  -05 1.008  +01   16.
 2.110  -05 8.938  +00   15.
 2.113  -05 8.403  +00   16.
 2.116  -05 9.022  +00   15.
 2.118  -05 7.256  +00   16.
 2.121  -05 7.518  +00   17.
 2.124  -05 7.044  +00   16.
 2.127  -05 5.998  +00   19.
 2.130  -05 5.787  +00   19.
 2.133  -05 5.343  +00   24.
 2.136  -05 5.449  +00   18.
 2.139  -05 5.796  +00   18.
 2.142  -05 6.201  +00   19.
 2.145  -05 4.990  +00   18.
 2.148  -05 4.916  +00   20.
 2.151  -05 4.317  +00   19.
 2.154  -05 4.863  +00   20.
 2.157  -05 4.872  +00   17.
 2.160  -05 6.110  +00   22.
 2.163  -05 8.200  +00   16.
 2.166  -05 7.122  +00   27.
 2.169  -05 3.928  +00   20.
 2.172  -05 3.892  +00   19.
 2.175  -05 3.888  +00   19.
 2.178  -05 4.053  +00   19.
 2.181  -05 5.021  +00   22.
 2.184  -05 6.955  +00   23.
 2.187  -05 8.666  +00   22.
 2.190  -05 1.044  +01   19.
 2.193  -05 1.255  +01   16.
 2.196  -05 1.377  +01   14.
 2.199  -05 1.328  +01   15.
 2.203  -05 1.251  +01   13.
 2.206  -05 1.032  +01   15.
 2.209  -05 9.312  +00   19.
 2.212  -05 1.106  +01   14.
 2.215  -05 9.990  +00   16.
 2.218  -05 1.008  +01   15.
 2.221  -05 8.753  +00   18.
 2.224  -05 8.996  +00   17.
 2.228  -05 8.839  +00   19.
 2.231  -05 8.653  +00   19.
 2.234  -05 9.760  +00   17.
 2.237  -05 9.632  +00   18.
 2.240  -05 9.183  +00   15.
 2.243  -05 9.197  +00   18.
 2.247  -05 9.721  +00   16.
 2.250  -05 1.073  +01   20.
 2.253  -05 1.214  +01   20.
 2.256  -05 1.362  +01   15.
 2.259  -05 1.585  +01   16.
 2.263  -05 2.060  +01   13.
 2.266  -05 2.551  +01   14.
 2.269  -05 3.263  +01   18.
 2.272  -05 4.272  +01   13.
 2.276  -05 5.277  +01   14.
 2.279  -05 6.443  +01   13.
 2.282  -05 8.545  +01   16.
 2.285  -05 1.025  +02   12.
 2.289  -05 1.111  +02   13.
 2.292  -05 1.237  +02   13.
 2.295  -05 1.325  +02   11.
 2.298  -05 1.354  +02   13.
 2.302  -05 1.339  +02   13.
 2.305  -05 1.272  +02   11.
 2.308  -05 1.142  +02   13.
 2.312  -05 1.114  +02   13.
 2.315  -05 1.020  +02   13.
 2.318  -05 8.874  +01   11.
 2.322  -05 7.904  +01   13.
 2.325  -05 7.491  +01   13.
 2.328  -05 6.673  +01   12.
 2.332  -05 6.022  +01   12.
 2.335  -05 5.596  +01   12.
 2.339  -05 5.422  +01   11.
 2.342  -05 5.025  +01   12.
 2.345  -05 5.069  +01   13.
 2.349  -05 5.167  +01   12.
 2.352  -05 5.308  +01   13.
 2.356  -05 5.808  +01   13.
 2.359  -05 6.213  +01   12.
 2.362  -05 6.766  +01   11.
 2.366  -05 7.345  +01   13.
 2.369  -05 7.398  +01   12.
 2.373  -05 7.631  +01   11.
 2.376  -05 7.467  +01   12.
 2.380  -05 7.642  +01   13.
 2.383  -05 7.902  +01   10.
 2.387  -05 8.372  +01   12.
 2.390  -05 9.489  +01   12.
 2.394  -05 1.201  +02   11.
 2.397  -05 1.432  +02   13.
 2.401  -05 1.616  +02   12.
 2.404  -05 1.866  +02   11.
 2.408  -05 2.065  +02   13.
 2.411  -05 1.968  +02   12.
 2.415  -05 1.694  +02   12.
 2.418  -05 1.206  +02   13.
 2.422  -05 9.525  +01   13.
 2.426  -05 6.656  +01   17.
 2.429  -05 4.666  +01   13.
 2.433  -05 3.539  +01   15.
 2.436  -05 2.968  +01   14.
 2.440  -05 2.730  +01   14.
 2.444  -05 2.492  +01   13.
 2.447  -05 2.438  +01   13.
 2.451  -05 2.500  +01   14.
 2.454  -05 2.225  +01   13.
 2.458  -05 2.105  +01   13.
 2.462  -05 1.919  +01   13.
 2.465  -05 1.692  +01   14.
 2.469  -05 1.545  +01   14.
 2.473  -05 1.488  +01   13.
 2.476  -05 1.342  +01   13.
 2.480  -05 1.272  +01   13.
 2.484  -05 1.180  +01   14.
 2.488  -05 1.247  +01   14.
 2.491  -05 1.142  +01   13.
 2.495  -05 1.081  +01   16.
 2.499  -05 1.059  +01   13.
 2.502  -05 9.380  +00   16.
 2.506  -05 1.007  +01   16.
 2.510  -05 1.057  +01   14.
 2.514  -05 1.066  +01   14.
 2.518  -05 1.093  +01   16.
 2.521  -05 1.164  +01   14.
 2.525  -05 1.240  +01   14.
 2.529  -05 1.345  +01   16.
 2.533  -05 1.419  +01   18.
 2.537  -05 1.493  +01   16.
 2.540  -05 1.643  +01   15.
 2.544  -05 1.759  +01   15.
 2.548  -05 1.941  +01   17.
 2.552  -05 2.221  +01   13.
 2.556  -05 2.506  +01   13.
 2.560  -05 2.786  +01   12.
 2.564  -05 3.294  +01   13.
 2.567  -05 3.275  +01   16.
 2.571  -05 3.734  +01   12.
 2.575  -05 4.200  +01   12.
 2.579  -05 4.623  +01   12.
 2.583  -05 5.113  +01   11.
 2.587  -05 5.910  +01   12.
 2.591  -05 6.628  +01   13.
 2.595  -05 7.781  +01   10.
 2.599  -05 8.829  +01   12.
 2.603  -05 1.075  +02   11.
 2.607  -05 1.252  +02   12.
 2.611  -05 1.471  +02   12.
 2.615  -05 1.782  +02   12.
 2.619  -05 2.220  +02   14.
 2.623  -05 2.769  +02   13.
 2.627  -05 3.384  +02   11.
 2.631  -05 3.901  +02   12.
 2.635  -05 4.230  +02   10.
 2.639  -05 4.475  +02   12.
 2.643  -05 4.516  +02   12.
 2.647  -05 4.204  +02   10.
 2.651  -05 3.793  +02   13.
 2.655  -05 3.150  +02   13.
 2.659  -05 2.600  +02   13.
 2.664  -05 2.040  +02   15.
 2.668  -05 1.422  +02   13.
 2.672  -05 1.139  +02   14.
 2.676  -05 8.189  +01   13.
 2.680  -05 6.460  +01   12.
 2.684  -05 4.678  +01   13.
 2.688  -05 3.612  +01   14.
 2.693  -05 2.855  +01   13.
 2.697  -05 2.218  +01   15.
 2.701  -05 1.835  +01   14.
 2.705  -05 1.454  +01   17.
 2.709  -05 1.216  +01   13.
 2.714  -05 1.143  +01   13.
 2.718  -05 1.102  +01   13.
 2.722  -05 1.060  +01   11.
 2.726  -05 1.078  +01   13.
 2.731  -05 1.107  +01   13.
 2.735  -05 1.232  +01   14.
 2.739  -05 1.397  +01   12.
 2.744  -05 1.497  +01   12.
 2.748  -05 1.612  +01   13.
 2.752  -05 1.684  +01   11.
 2.757  -05 2.028  +01   14.
 2.761  -05 1.989  +01   15.
 2.765  -05 2.260  +01   12.
 2.770  -05 2.395  +01   12.
 2.774  -05 2.426  +01   13.
 2.778  -05 2.600  +01   13.
 2.783  -05 2.643  +01   15.
 2.787  -05 3.001  +01   11.
 2.792  -05 3.410  +01   12.
 2.796  -05 3.598  +01   14.
 2.800  -05 3.906  +01   12.
 2.805  -05 4.198  +01   12.
 2.809  -05 4.670  +01   11.
 2.814  -05 4.965  +01   12.
 2.818  -05 5.734  +01   11.
 2.823  -05 6.470  +01   11.
 2.827  -05 7.329  +01   13.
 2.832  -05 7.903  +01   11.
 2.836  -05 8.715  +01   12.
 2.841  -05 9.957  +01   12.
 2.845  -05 1.135  +02   13.
 2.850  -05 1.252  +02   11.
 2.854  -05 1.463  +02   12.
 2.859  -05 1.707  +02   12.
 2.864  -05 1.935  +02   11.
 2.868  -05 2.206  +02   12.
 2.873  -05 2.399  +02   11.
 2.877  -05 2.577  +02   11.
 2.882  -05 2.604  +02   13.
 2.887  -05 2.567  +02   11.
 2.891  -05 2.480  +02   12.
 2.896  -05 2.413  +02   11.
 2.901  -05 2.253  +02   11.
 2.905  -05 2.096  +02   13.
 2.910  -05 1.995  +02   11.
 2.915  -05 1.792  +02   10.
 2.919  -05 1.675  +02   13.
 2.924  -05 1.651  +02   11.
 2.929  -05 1.596  +02   11.
 2.934  -05 1.609  +02   16.
 2.938  -05 1.557  +02   10.
 2.943  -05 1.555  +02   14.
 2.948  -05 1.495  +02   11.
 2.953  -05 1.332  +02   11.
 2.958  -05 1.149  +02   13.
 2.962  -05 9.373  +01   12.
 2.967  -05 6.346  +01   12.
 2.972  -05 4.652  +01   14.
 2.977  -05 3.423  +01   12.
 2.982  -05 2.653  +01   11.
 2.987  -05 2.344  +01   13.
 2.992  -05 2.257  +01   11.
 2.997  -05 2.250  +01   12.
 3.001  -05 2.402  +01   13.
 3.006  -05 2.365  +01   11.
 3.011  -05 2.416  +01   11.
 3.016  -05 2.403  +01   13.
 3.021  -05 2.497  +01   11.
 3.026  -05 2.574  +01   11.
 3.031  -05 2.697  +01   13.
 3.036  -05 2.789  +01   11.
 3.041  -05 3.042  +01   11.
 3.046  -05 3.371  +01   12.
 3.051  -05 3.516  +01   14.
 3.056  -05 3.788  +01   12.
 3.061  -05 4.699  +01   14.
 3.067  -05 5.934  +01   12.
 3.072  -05 6.910  +01   15.
 3.077  -05 9.365  +01   17.
 3.082  -05 1.259  +02   12.
 3.087  -05 1.587  +02   13.
 3.092  -05 1.857  +02   11.
 3.097  -05 2.084  +02   11.
 3.102  -05 2.076  +02   13.
 3.108  -05 1.990  +02   11.
 3.113  -05 1.671  +02   12.
 3.118  -05 1.193  +02   13.
 3.123  -05 9.390  +01   14.
 3.128  -05 7.967  +01   14.
 3.134  -05 6.093  +01   11.
 3.139  -05 5.025  +01   11.
 3.144  -05 4.523  +01   13.
 3.150  -05 3.902  +01   11.
 3.155  -05 3.602  +01   11.
 3.160  -05 3.196  +01   11.
 3.165  -05 3.105  +01   14.
 3.171  -05 2.869  +01   11.
 3.176  -05 2.655  +01   11.
 3.182  -05 2.529  +01   12.
 3.187  -05 2.429  +01   11.
 3.192  -05 2.352  +01   12.
 3.198  -05 2.347  +01   12.
 3.203  -05 2.204  +01   12.
 3.209  -05 2.245  +01   11.
 3.214  -05 2.351  +01   18.
 3.220  -05 2.140  +01   12.
 3.225  -05 2.163  +01   11.
 3.230  -05 2.076  +01   12.
 3.236  -05 2.079  +01   12.
 3.242  -05 2.122  +01   13.
 3.247  -05 2.211  +01   14.
 3.253  -05 2.097  +01   12.
 3.258  -05 2.093  +01   12.
 3.264  -05 2.062  +01   11.
 3.269  -05 2.060  +01   12.
 3.275  -05 2.100  +01   19.
 3.281  -05 2.038  +01   12.
 3.286  -05 2.082  +01   11.
 3.292  -05 2.197  +01   11.
 3.298  -05 2.279  +01   11.
 3.303  -05 2.481  +01   11.
 3.309  -05 2.869  +01   13.
 3.315  -05 3.032  +01   11.
 3.320  -05 3.294  +01   10.
 3.326  -05 3.600  +01   11.
 3.332  -05 3.487  +01   11.
 3.338  -05 3.136  +01   11.
 3.343  -05 2.821  +01   11.
 3.349  -05 2.703  +01   14.
 3.355  -05 2.830  +01   11.
 3.361  -05 3.258  +01   11.
 3.367  -05 4.268  +01   14.
 3.373  -05 4.893  +01   11.
 3.378  -05 4.751  +01   11.
 3.384  -05 4.237  +01   10.
 3.390  -05 3.557  +01   11.
 3.396  -05 3.275  +01   10.
 3.402  -05 3.273  +01   13.
 3.408  -05 3.224  +01   11.
 3.414  -05 3.293  +01   11.
 3.420  -05 3.339  +01   11.
 3.426  -05 3.529  +01   10.
 3.432  -05 3.747  +01   12.
 3.438  -05 3.874  +01   12.
 3.444  -05 4.091  +01   11.
 3.450  -05 4.387  +01   11.
 3.456  -05 4.590  +01   11.
 3.462  -05 5.011  +01   11.
 3.468  -05 5.222  +01   12.
 3.475  -05 5.487  +01   11.
 3.481  -05 5.992  +01   13.
 3.487  -05 5.979  +01   11.
 3.493  -05 6.449  +01   11.
 3.499  -05 6.472  +01   11.
 3.505  -05 5.941  +01   11.
 3.512  -05 5.270  +01   11.
 3.518  -05 4.637  +01   11.
 3.524  -05 4.099  +01   11.
 3.530  -05 3.570  +01   11.
 3.537  -05 3.019  +01   11.
 3.543  -05 2.770  +01   11.
 3.549  -05 2.428  +01   11.
 3.556  -05 2.086  +01   11.
 3.562  -05 1.811  +01   11.
 3.568  -05 1.642  +01   12.
 3.575  -05 1.444  +01   11.
 3.581  -05 1.272  +01   11.
 3.588  -05 1.143  +01   11.
 3.594  -05 1.006  +01   11.
 3.601  -05 1.039  +01   11.
 3.607  -05 1.029  +01   11.
 3.614  -05 1.048  +01   10.
 3.620  -05 1.014  +01   11.
 3.627  -05 8.174  +00   10.
 3.633  -05 6.242  +00   14.
 3.640  -05 4.256  +00   16.
 3.646  -05 2.850  +00   15.
 3.653  -05 2.002  +00   12.
 3.660  -05 1.650  +00   12.
 3.666  -05 1.484  +00   11.
 3.673  -05 1.461  +00   15.
 3.680  -05 1.671  +00   19.
 3.686  -05 1.941  +00   14.
 3.693  -05 2.262  +00   19.
 3.700  -05 2.880  +00   18.
 3.706  -05 3.858  +00   15.
 3.713  -05 5.138  +00   11.
 3.720  -05 6.294  +00   11.
 3.727  -05 7.797  +00   12.
 3.734  -05 9.428  +00   11.
 3.740  -05 1.071  +01   11.
 3.747  -05 1.203  +01   11.
 3.754  -05 1.304  +01   11.
 3.761  -05 1.370  +01   11.
 3.768  -05 1.491  +01   11.
 3.775  -05 1.648  +01   11.
 3.782  -05 1.869  +01   11.
 3.789  -05 2.224  +01   11.
 3.796  -05 2.724  +01   11.
 3.803  -05 3.533  +01   10.
 3.810  -05 3.951  +01   11.
 3.817  -05 3.811  +01   11.
 3.824  -05 2.941  +01   12.
 3.831  -05 2.163  +01   13.
 3.838  -05 1.621  +01   10.
 3.845  -05 1.416  +01   11.
 3.853  -05 1.418  +01   10.
 3.860  -05 1.495  +01   12.
 3.867  -05 1.570  +01   11.
 3.874  -05 1.789  +01   11.
 3.881  -05 1.974  +01   12.
 3.889  -05 2.328  +01   17.
 3.896  -05 2.981  +01   17.
 3.903  -05 3.927  +01   20.
 3.911  -05 5.445  +01   20.
 3.918  -05 7.511  +01   19.
 3.925  -05 9.903  +01   12.
 3.933  -05 1.083  +02   10.
 3.940  -05 1.002  +02   11.
 3.947  -05 8.063  +01   11.
 3.955  -05 6.362  +01   10.
 3.962  -05 6.236  +01   12.
 3.970  -05 7.326  +01   18.
 3.977  -05 1.012  +02   16.
 3.985  -05 1.132  +02   12.
 3.992  -05 1.036  +02   11.
 4.000  -05 7.705  +01   11.
 4.008  -05 5.385  +01   12.
 4.012  -05 4.185  +01   11.
 4.020  -05 3.703  +01   12.
 4.027  -05 3.601  +01   12.
 4.035  -05 3.888  +01   11.
 4.043  -05 3.936  +01   12.
 4.051  -05 3.982  +01   13.
 4.058  -05 4.319  +01   11.
 4.066  -05 4.501  +01   11.
 4.074  -05 4.600  +01   11.
 4.082  -05 4.546  +01   11.
 4.089  -05 4.553  +01   11.
 4.097  -05 4.280  +01   12.
 4.105  -05 4.063  +01   12.
 4.113  -05 3.785  +01   12.
 4.121  -05 3.313  +01   11.
 4.129  -05 2.869  +01   11.
 4.137  -05 2.401  +01   12.
 4.145  -05 2.011  +01   11.
 4.153  -05 1.706  +01   12.
 4.161  -05 1.532  +01   11.
 4.169  -05 1.307  +01   12.
 4.177  -05 1.127  +01   12.
 4.185  -05 9.868  +00   11.
 4.193  -05 8.649  +00   12.
 4.201  -05 7.957  +00   11.
 4.210  -05 7.600  +00   13.
 4.218  -05 7.941  +00   12.
 4.226  -05 7.920  +00   16.
 4.234  -05 9.422  +00   18.
 4.242  -05 1.127  +01   18.
 4.251  -05 1.442  +01   15.
 4.259  -05 1.664  +01   12.
 4.267  -05 1.875  +01   10.
 4.276  -05 1.852  +01   12.
 4.284  -05 1.614  +01   10.
 4.293  -05 1.227  +01   12.
 4.301  -05 9.556  +00   11.
 4.310  -05 8.311  +00   11.
 4.318  -05 9.150  +00   15.
 4.327  -05 1.115  +01   16.
 4.335  -05 1.433  +01   13.
 4.344  -05 1.515  +01   11.
 4.352  -05 1.191  +01   16.
 4.361  -05 6.687  +00   32.
 4.369  -05 2.072  +00   28.
 4.378  -05 9.067  -01   18.
 4.387  -05 6.268  -01   12.
 4.396  -05 5.463  -01   17.
 4.404  -05 5.204  -01   21.
 4.413  -05 6.736  -01   21.
 4.422  -05 8.739  -01   25.
 4.431  -05 1.117  +00   21.
 4.440  -05 1.387  +00   16.
 4.448  -05 1.237  +00   14.
 4.457  -05 1.011  +00   13.
 4.466  -05 9.537  -01   19.
 4.475  -05 9.612  -01   19.
 4.484  -05 1.048  +00   17.
 4.493  -05 1.076  +00   19.
 4.502  -05 1.185  +00   23.
 4.511  -05 1.405  +00   22.
 4.520  -05 1.751  +00   18.
 4.530  -05 2.121  +00   21.
 4.539  -05 2.310  +00   21.
 4.548  -05 2.791  +00   20.
 4.557  -05 3.591  +00   21.
 4.566  -05 4.657  +00   16.
 4.576  -05 5.301  +00   17.
 4.585  -05 7.588  +00   16.
 4.594  -05 1.001  +01   20.
 4.604  -05 1.507  +01   19.
 4.613  -05 2.333  +01   27.
 4.622  -05 3.560  +01   25.
 4.632  -05 5.568  +01   18.
 4.641  -05 7.921  +01   13.
 4.651  -05 8.653  +01   11.
 4.660  -05 7.728  +01   10.
 4.670  -05 5.886  +01   11.
 4.679  -05 4.313  +01   12.
 4.689  -05 3.477  +01   11.
 4.699  -05 3.301  +01   11.
 4.708  -05 3.275  +01   12.
 4.718  -05 3.543  +01   11.
 4.728  -05 3.902  +01   12.
 4.737  -05 4.372  +01   14.
 4.747  -05 5.071  +01   18.
 4.757  -05 6.796  +01   16.
 4.767  -05 9.573  +01   23.
 4.777  -05 1.478  +02   20.
 4.787  -05 1.915  +02   12.
 4.797  -05 2.217  +02   13.
 4.807  -05 2.219  +02   12.
 4.817  -05 2.048  +02   11.
 4.827  -05 1.626  +02   12.
 4.837  -05 1.208  +02   14.
 4.847  -05 8.968  +01   12.
 4.857  -05 6.796  +01   13.
 4.867  -05 5.318  +01   11.
 4.877  -05 4.306  +01   11.
 4.887  -05 3.295  +01   12.
 4.898  -05 2.667  +01   11.
 4.908  -05 2.317  +01   11.
 4.918  -05 1.967  +01   11.
 4.929  -05 1.724  +01   12.
 4.939  -05 1.582  +01   12.
 4.950  -05 1.489  +01   11.
 4.960  -05 1.438  +01   11.
 4.970  -05 1.441  +01   11.
 4.981  -05 1.550  +01   11.
 4.992  -05 1.842  +01   13.
 5.002  -05 2.236  +01   12.
 5.013  -05 2.738  +01   11.
 5.023  -05 2.901  +01   11.
 5.034  -05 2.899  +01   11.
 5.045  -05 2.390  +01   11.
 5.056  -05 1.802  +01   12.
 5.066  -05 1.321  +01   13.
 5.077  -05 1.015  +01   12.
 5.088  -05 7.887  +00   12.
 5.099  -05 6.134  +00   11.
 5.110  -05 5.159  +00   12.
 5.121  -05 4.016  +00   11.
 5.132  -05 2.971  +00   13.
 5.143  -05 2.097  +00   12.
 5.154  -05 1.774  +00   13.
 5.165  -05 1.884  +00   15.
 5.176  -05 2.514  +00   18.
 5.187  -05 3.202  +00   18.
 5.199  -05 4.311  +00   14.
 5.210  -05 4.847  +00   11.
 5.221  -05 4.024  +00   13.
 5.232  -05 3.522  +00   12.
 5.244  -05 3.401  +00   11.
 5.255  -05 3.179  +00   13.
 5.267  -05 2.651  +00   13.
 5.278  -05 2.001  +00   14.
 5.290  -05 1.655  +00   15.
 5.301  -05 1.548  +00   11.
 5.313  -05 1.327  +00   13.
 5.324  -05 1.123  +00   14.
 5.336  -05 9.330  -01   15.
 5.348  -05 9.021  -01   14.
 5.360  -05 8.162  -01   19.
 5.371  -05 7.749  -01   16.
 5.383  -05 9.850  -01   18.
 5.395  -05 1.667  +00   19.
 5.407  -05 2.015  +00   13.
 5.419  -05 2.236  +00   12.
 5.431  -05 2.192  +00   14.
 5.443  -05 2.242  +00   12.
 5.455  -05 2.131  +00   13.
 5.467  -05 2.132  +00   14.
 5.479  -05 2.143  +00   13.
 5.491  -05 2.128  +00   15.
 5.504  -05 2.327  +00   13.
 5.516  -05 2.279  +00   15.
 5.528  -05 2.416  +00   15.
 5.540  -05 2.708  +00   14.
 5.553  -05 2.925  +00   12.
 5.565  -05 2.877  +00   13.
 5.578  -05 2.902  +00   13.
 5.590  -05 2.874  +00   14.
 5.603  -05 2.961  +00   14.
 5.615  -05 3.075  +00   13.
 5.628  -05 3.171  +00   15.
 5.641  -05 3.517  +00   15.
 5.653  -05 3.619  +00   15.
 5.666  -05 4.120  +00   16.
 5.679  -05 4.351  +00   15.
 5.692  -05 5.179  +00   12.
 5.705  -05 5.622  +00   13.
 5.718  -05 7.008  +00   12.
 5.731  -05 8.998  +00   13.
 5.744  -05 1.359  +01   14.
 5.757  -05 1.844  +01   13.
 5.770  -05 2.487  +01   14.
 5.783  -05 3.161  +01   16.
 5.796  -05 4.101  +01   13.
 5.809  -05 5.285  +01   10.
 5.823  -05 5.779  +01   11.
 5.836  -05 5.740  +01   11.
 5.850  -05 5.431  +01   10.
 5.863  -05 5.512  +01   12.
 5.876  -05 5.825  +01   11.
 5.890  -05 6.738  +01   11.
 5.904  -05 7.114  +01   11.
 5.917  -05 7.177  +01   11.
 5.931  -05 6.220  +01   12.
 5.945  -05 4.625  +01   12.
 5.958  -05 3.414  +01   12.
 5.972  -05 2.907  +01   11.
 5.986  -05 3.511  +01   17.
 6.000  -05 5.530  +01   20.
 6.019  -05 9.555  +01   21.
 6.033  -05 1.571  +02   14.
 6.047  -05 1.807  +02   11.
 6.061  -05 1.238  +02   25.
 6.075  -05 4.969  +01   20.
 6.089  -05 2.581  +01   17.
 6.104  -05 1.704  +01   11.
 6.118  -05 1.487  +01   11.
 6.132  -05 1.773  +01   15.
 6.147  -05 2.815  +01   18.
 6.161  -05 4.785  +01   16.
 6.176  -05 8.077  +01   16.
 6.190  -05 1.126  +02   13.
 6.205  -05 1.316  +02   11.
 6.220  -05 1.234  +02   10.
 6.234  -05 1.097  +02   11.
 6.249  -05 9.033  +01   13.
 6.264  -05 7.173  +01   13.
 6.279  -05 5.451  +01   11.
 6.294  -05 4.611  +01   11.
 6.309  -05 3.988  +01   11.
 6.324  -05 3.390  +01   11.
 6.339  -05 3.021  +01   11.
 6.354  -05 2.652  +01   12.
 6.369  -05 2.230  +01   11.
 6.385  -05 1.918  +01   12.
 6.400  -05 1.832  +01   11.
 6.415  -05 1.967  +01   11.
 6.431  -05 2.128  +01   11.
 6.446  -05 2.364  +01   11.
 6.462  -05 2.579  +01   13.
 6.477  -05 2.933  +01   14.
 6.493  -05 4.168  +01   15.
 6.509  -05 6.482  +01   15.
 6.525  -05 1.007  +02   16.
 6.540  -05 1.423  +02   15.
 6.556  -05 1.716  +02   11.
 6.572  -05 1.489  +02   12.
 6.588  -05 9.424  +01   15.
 6.604  -05 6.931  +01   11.
 6.620  -05 7.723  +01   12.
 6.637  -05 9.335  +01   10.
 6.653  -05 7.878  +01   14.
 6.669  -05 4.079  +01   18.
 6.685  -05 2.365  +01   17.
 6.702  -05 1.572  +01   14.
 6.718  -05 1.268  +01   15.
 6.735  -05 1.189  +01   14.
 6.752  -05 1.108  +01   16.
 6.768  -05 1.180  +01   13.
 6.785  -05 1.816  +01   17.
 6.802  -05 3.152  +01   15.
 6.819  -05 3.392  +01   11.
 6.836  -05 2.281  +01   16.
 6.852  -05 1.476  +01   12.
 6.870  -05 1.352  +01   11.
 6.887  -05 1.740  +01   16.
 6.904  -05 2.381  +01   12.
 6.921  -05 2.187  +01   17.
 6.938  -05 1.215  +01   16.
 6.956  -05 8.433  +00   11.
 6.973  -05 7.640  +00   11.
 6.991  -05 7.391  +00   12.
 7.008  -05 7.352  +00   12.
 7.026  -05 7.335  +00   11.
 7.044  -05 7.513  +00   11.
 7.061  -05 8.053  +00   11.
 7.079  -05 9.147  +00   11.
 7.097  -05 1.101  +01   11.
 7.115  -05 1.404  +01   11.
 7.133  -05 1.902  +01   12.
 7.151  -05 2.459  +01   13.
 7.169  -05 3.263  +01   11.
 7.188  -05 3.846  +01   11.
 7.206  -05 4.022  +01   11.
 7.224  -05 3.490  +01   14.
 7.243  -05 2.074  +01   20.
 7.261  -05 1.103  +01   21.
 7.280  -05 5.072  +00   19.
 7.298  -05 3.380  +00   11.
 7.317  -05 3.588  +00   14.
 7.336  -05 5.473  +00   16.
 7.355  -05 8.403  +00   18.
 7.374  -05 1.226  +01   11.
 7.393  -05 1.058  +01   11.
 7.412  -05 8.419  +00   11.
 7.431  -05 8.767  +00   12.
 7.450  -05 1.257  +01   15.
 7.470  -05 2.034  +01   16.
 7.489  -05 3.025  +01   13.
 7.509  -05 3.689  +01   14.
 7.528  -05 5.669  +01   15.
 7.548  -05 9.944  +01   16.
 7.567  -05 1.325  +02   11.
 7.587  -05 1.011  +02   17.
 7.607  -05 5.036  +01   23.
 7.627  -05 3.341  +01   11.
 7.647  -05 3.421  +01   11.
 7.667  -05 4.085  +01   14.
 7.687  -05 5.532  +01   12.
 7.708  -05 5.442  +01   12.
 7.728  -05 3.358  +01   19.
 7.748  -05 2.313  +01   11.
 7.769  -05 2.061  +01   11.
 7.789  -05 1.961  +01   11.
 7.810  -05 1.777  +01   11.
 7.831  -05 1.463  +01   12.
 7.852  -05 1.238  +01   11.
 7.873  -05 1.374  +01   12.
 7.894  -05 1.882  +01   15.
 7.915  -05 2.628  +01   14.
 7.936  -05 3.793  +01   14.
 7.957  -05 5.459  +01   15.
 7.978  -05 9.244  +01   21.
 8.000  -05 1.238  +02   11.
 8.021  -05 1.028  +02   14.
 8.035  -05 6.855  +01   13.
 8.046  -05 6.086  +01   13.
 8.056  -05 5.921  +01   14.
 8.067  -05 6.605  +01   12.
 8.078  -05 7.729  +01   13.
 8.089  -05 8.130  +01   15.
 8.100  -05 9.880  +01   17.
 8.111  -05 1.289  +02   19.
 8.122  -05 1.656  +02   11.
 8.133  -05 1.916  +02   10.
 8.144  -05 2.017  +02   11.
 8.155  -05 1.692  +02   19.
 8.166  -05 1.149  +02   12.
 8.177  -05 9.687  +01   12.
 8.188  -05 8.189  +01   11.
 8.199  -05 6.919  +01   11.
 8.210  -05 6.193  +01    9.9
 8.222  -05 5.812  +01   11.
 8.233  -05 5.555  +01   10.
 8.244  -05 5.539  +01     .0
 8.255  -05 5.852  +01   11.
 8.266  -05 6.346  +01   12.
 8.278  -05 6.727  +01   14.
 8.289  -05 8.022  +01   15.
 8.300  -05 9.849  +01   13.
 8.312  -05 1.097  +02   13.
 8.323  -05 9.673  +01   21.
 8.334  -05 6.151  +01   20.
 8.346  -05 4.084  +01   19.
 8.357  -05 2.635  +01   15.
 8.369  -05 2.045  +01   11.
 8.380  -05 2.023  +01   11.
 8.392  -05 1.896  +01   10.
 8.403  -05 1.932  +01   11.
 8.415  -05 2.079  +01   11.
 8.426  -05 2.148  +01   13.
 8.438  -05 2.543  +01   13.
 8.450  -05 2.922  +01   12.
 8.461  -05 3.291  +01   18.
 8.473  -05 4.012  +01   20.
 8.485  -05 5.044  +01   16.
 8.496  -05 7.786  +01   15.
 8.508  -05 7.858  +01   19.
 8.520  -05 1.045  +02   15.
 8.532  -05 1.307  +02   10.
 8.543  -05 1.422  +02   11.
 8.555  -05 1.352  +02   10.
 8.567  -05 1.244  +02   11.
 8.579  -05 1.077  +02   13.
 8.591  -05 8.269  +01   11.
 8.603  -05 6.906  +01   10.
 8.615  -05 6.478  +01   10.
 8.627  -05 6.191  +01   10.
 8.639  -05 6.371  +01   13.
 8.651  -05 9.469  +01   14.
 8.663  -05 1.163  +02   13.
 8.675  -05 1.344  +02   13.
 8.687  -05 1.357  +02   15.
 8.699  -05 1.283  +02   12.
 8.712  -05 1.123  +02   17.
 8.724  -05 8.073  +01   14.
 8.736  -05 6.114  +01   13.
 8.748  -05 5.663  +01   11.
 8.761  -05 5.836  +01   10.
 8.773  -05 6.259  +01   11.
 8.785  -05 6.211  +01   11.
 8.798  -05 5.281  +01   13.
 8.810  -05 4.039  +01   15.
 8.822  -05 3.053  +01   11.
 8.835  -05 2.498  +01    9.8
 8.847  -05 2.468  +01   11.
 8.860  -05 2.750  +01   10.
 8.872  -05 3.103  +01   10.
 8.885  -05 3.289  +01   11.
 8.897  -05 3.487  +01   10.
 8.910  -05 3.428  +01   11.
 8.922  -05 3.372  +01   10.
 8.935  -05 3.101  +01   11.
 8.948  -05 2.765  +01   11.
 8.961  -05 2.355  +01   11.
 8.973  -05 2.086  +01   10.
 8.986  -05 1.743  +01   12.
 8.999  -05 1.610  +01   10.
 9.012  -05 1.691  +01   12.
 9.024  -05 2.000  +01   12.
 9.037  -05 2.524  +01   11.
 9.050  -05 3.113  +01   10.
 9.063  -05 3.321  +01   13.
 9.076  -05 2.757  +01   17.
 9.089  -05 1.892  +01   19.
 9.102  -05 1.400  +01   17.
 9.115  -05 9.280  +00   17.
 9.128  -05 6.799  +00   16.
 9.141  -05 5.563  +00   10.
 9.154  -05 4.682  +00   11.
 9.167  -05 4.638  +00   13.
 9.181  -05 3.750  +00   17.
 9.194  -05 2.850  +00   13.
 9.207  -05 2.271  +00   16.
 9.220  -05 1.868  +00   12.
 9.234  -05 2.038  +00   18.
 9.247  -05 2.444  +00   17.
 9.260  -05 2.688  +00   16.
 9.274  -05 3.246  +00   13.
 9.287  -05 3.402  +00   12.
 9.300  -05 4.255  +00   13.
 9.314  -05 4.518  +00   13.
 9.327  -05 5.584  +00   15.
 9.341  -05 6.980  +00   13.
 9.354  -05 8.254  +00   11.
 9.368  -05 1.036  +01   10.
 9.382  -05 1.036  +01   11.
 9.395  -05 9.749  +00   11.
 9.409  -05 8.179  +00   11.
 9.423  -05 7.559  +00   11.
 9.436  -05 7.341  +00   11.
 9.450  -05 7.819  +00   11.
 9.464  -05 8.733  +00   12.
 9.478  -05 1.179  +01   14.
 9.491  -05 1.427  +01   14.
 9.505  -05 1.703  +01   14.
 9.519  -05 1.835  +01   13.
 9.533  -05 1.872  +01   16.
 9.547  -05 1.741  +01   17.
 9.561  -05 1.800  +01   21.
 9.575  -05 1.722  +01   13.
 9.589  -05 1.827  +01   14.
 9.603  -05 2.002  +01   13.
 9.617  -05 2.090  +01   11.
 9.632  -05 2.051  +01   10.
 9.646  -05 2.093  +01   10.
 9.660  -05 2.190  +01   12.
 9.674  -05 2.392  +01   13.
 9.689  -05 2.507  +01   15.
 9.703  -05 3.720  +01   13.
 9.717  -05 4.636  +01   13.
 9.732  -05 5.400  +01   13.
 9.746  -05 6.263  +01   13.
 9.760  -05 7.350  +01   13.
 9.775  -05 8.765  +01   13.
 9.789  -05 1.180  +02   14.
 9.804  -05 1.254  +02   14.
 9.818  -05 1.316  +02   11.
 9.833  -05 1.389  +02   17.
 9.848  -05 1.053  +02   28.
 9.862  -05 4.764  +01   25.
 9.877  -05 3.704  +01   20.
 9.892  -05 2.730  +01   11.
 9.907  -05 2.364  +01   17.
 9.921  -05 2.684  +01   20.
 9.936  -05 3.449  +01   21.
 9.951  -05 4.070  +01   12.
 9.966  -05 4.812  +01   10.
 9.981  -05 4.810  +01   13.
 9.996  -05 4.278  +01   12.
 1.001  -04 3.650  +01   11.
 1.003  -04 3.139  +01   12.
 1.004  -04 2.720  +01   10.
 1.006  -04 2.479  +01   10.
 1.007  -04 2.324  +01   11.
 1.009  -04 2.170  +01   10.
 1.010  -04 2.364  +01   14.
 1.012  -04 2.432  +01   11.
 1.013  -04 2.923  +01   10.
 1.015  -04 3.143  +01   11.
 1.016  -04 2.678  +01   14.
 1.018  -04 2.183  +01   10.
 1.019  -04 2.170  +01   10.
 1.021  -04 2.202  +01   10.
 1.022  -04 2.096  +01   10.
 1.024  -04 2.035  +01   11.
 1.026  -04 1.772  +01   11.
 1.027  -04 1.662  +01   12.
 1.029  -04 1.432  +01   10.
 1.030  -04 1.305  +01   10.
 1.032  -04 1.403  +01   10.
 1.033  -04 1.604  +01   11.
 1.035  -04 1.857  +01   12.
 1.037  -04 1.550  +01   20.
 1.038  -04 9.899  +00   24.
 1.040  -04 7.913  +00   18.
 1.041  -04 4.554  +00   14.
 1.043  -04 4.451  +00   16.
 1.044  -04 3.985  +00   12.
 1.046  -04 3.392  +00   15.
 1.048  -04 2.875  +00   13.
 1.049  -04 2.435  +00   13.
 1.051  -04 2.169  +00   12.
 1.053  -04 2.009  +00   13.
 1.054  -04 1.969  +00   14.
 1.056  -04 2.170  +00   14.
 1.057  -04 2.374  +00   18.
 1.059  -04 2.949  +00   24.
 1.061  -04 3.181  +00   27.
 1.062  -04 4.203  +00   17.
 1.064  -04 4.523  +00   21.
 1.066  -04 5.987  +00   13.
 1.067  -04 5.802  +00   14.
 1.069  -04 7.485  +00   14.
 1.071  -04 8.650  +00   14.
 1.072  -04 1.059  +01   16.
 1.074  -04 1.404  +01   25.
 1.076  -04 1.518  +01   20.
 1.077  -04 2.382  +01   13.
 1.079  -04 2.107  +01   14.
 1.081  -04 1.796  +01   13.
 1.082  -04 1.703  +01   14.
 1.084  -04 1.720  +01   13.
 1.086  -04 1.783  +01   17.
 1.087  -04 2.182  +01   15.
 1.089  -04 2.625  +01   11.
 1.091  -04 2.990  +01   11.
 1.092  -04 2.596  +01   12.
 1.094  -04 1.455  +01   16.
 1.096  -04 1.333  +01   17.
 1.098  -04 1.108  +01   15.
 1.099  -04 8.327  +00   14.
 1.101  -04 6.361  +00   12.
 1.103  -04 5.586  +00   12.
 1.105  -04 5.186  +00   14.
 1.106  -04 4.266  +00   16.
 1.108  -04 3.344  +00   14.
 1.110  -04 2.951  +00   15.
 1.112  -04 2.328  +00   12.
 1.113  -04 2.275  +00   13.
 1.115  -04 2.348  +00   15.
 1.117  -04 2.427  +00   20.
 1.119  -04 2.782  +00   24.
 1.120  -04 3.435  +00   33.
 1.122  -04 4.118  +00   24.
 1.124  -04 4.590  +00   22.
 1.126  -04 5.513  +00   23.
 1.128  -04 7.344  +00   28.
 1.129  -04 9.730  +00   17.
 1.131  -04 1.257  +01   12.
 1.133  -04 1.194  +01   11.
 1.135  -04 8.963  +00   11.
 1.137  -04 8.046  +00   12.
 1.138  -04 7.911  +00   11.
 1.140  -04 8.691  +00   11.
 1.142  -04 9.608  +00   15.
 1.144  -04 1.025  +01   13.
 1.146  -04 1.181  +01   12.
 1.148  -04 1.528  +01   13.
 1.149  -04 1.633  +01   14.
 1.151  -04 1.684  +01   15.
 1.153  -04 1.744  +01   14.
 1.155  -04 1.782  +01   14.
 1.157  -04 1.885  +01   14.
 1.159  -04 1.792  +01   10.
 1.161  -04 2.089  +01   11.
 1.162  -04 2.359  +01   12.
 1.164  -04 2.638  +01   12.
 1.166  -04 2.886  +01   13.
 1.168  -04 3.565  +01   12.
 1.170  -04 4.284  +01   12.
 1.172  -04 3.180  +01   15.
 1.174  -04 2.413  +01   19.
 1.176  -04 1.926  +01   20.
 1.178  -04 1.093  +01   17.
 1.180  -04 7.529  +00   24.
 1.181  -04 4.069  +00   13.
 1.183  -04 3.956  +00   16.
 1.185  -04 4.626  +00   14.
 1.187  -04 4.844  +00   21.
 1.189  -04 5.972  +00   15.
 1.191  -04 6.127  +00   16.
 1.193  -04 7.016  +00   14.
 1.195  -04 7.917  +00   16.
 1.197  -04 9.353  +00   20.
 1.199  -04 1.065  +01   12.
 1.201  -04 1.324  +01   16.
 1.203  -04 1.466  +01   15.
 1.205  -04 1.654  +01   15.
 1.205  -04 1.395  +01   22.
 1.207  -04 1.846  +01   13.
 1.209  -04 2.259  +01   12.
 1.211  -04 2.718  +01   13.
 1.213  -04 3.170  +01   14.
 1.215  -04 3.821  +01   15.
 1.217  -04 4.625  +01   14.
 1.219  -04 6.345  +01   13.
 1.221  -04 7.018  +01   12.
 1.223  -04 6.194  +01   13.
 1.225  -04 4.880  +01   15.
 1.227  -04 3.435  +01   13.
 1.229  -04 3.240  +01   14.
 1.231  -04 2.960  +01   14.
 1.233  -04 3.345  +01   19.
 1.235  -04 2.223  +01   20.
 1.237  -04 1.425  +01   11.
 1.240  -04 1.236  +01   13.
 1.242  -04 8.990  +00   13.
 1.244  -04 7.355  +00   14.
 1.246  -04 5.801  +00   11.
 1.248  -04 5.427  +00   11.
 1.250  -04 5.268  +00   12.
 1.252  -04 5.476  +00   12.
 1.254  -04 5.810  +00   18.
 1.256  -04 6.946  +00   12.
 1.258  -04 8.657  +00   12.
 1.260  -04 1.076  +01   14.
 1.263  -04 1.013  +01   11.
 1.265  -04 1.148  +01   10.
 1.267  -04 1.313  +01   11.
 1.269  -04 1.624  +01    9.9
 1.271  -04 1.874  +01   10.
 1.273  -04 2.304  +01   10.
 1.275  -04 2.693  +01   11.
 1.278  -04 3.150  +01   10.
 1.280  -04 3.458  +01   11.
 1.282  -04 4.358  +01   16.
 1.284  -04 4.657  +01   14.
 1.286  -04 4.010  +01   13.
 1.289  -04 3.317  +01   13.
 1.291  -04 3.066  +01   14.
 1.293  -04 3.165  +01   13.
 1.295  -04 3.364  +01   14.
 1.297  -04 3.890  +01   14.
 1.300  -04 4.570  +01   14.
 1.302  -04 5.692  +01   13.
 1.304  -04 7.234  +01   13.
 1.306  -04 8.738  +01   12.
 1.309  -04 7.601  +01   20.
 1.311  -04 4.536  +01   20.
 1.313  -04 3.226  +01   12.
 1.315  -04 2.632  +01   10.
 1.318  -04 2.260  +01   11.
 1.320  -04 2.325  +01    9.8
 1.322  -04 2.529  +01    9.7
 1.324  -04 2.962  +01   10.
 1.327  -04 3.279  +01     .0
 1.329  -04 3.718  +01    9.9
 1.331  -04 3.946  +01   10.
 1.334  -04 4.245  +01   10.
 1.336  -04 5.314  +01   11.
 1.338  -04 4.041  +01   13.
 1.341  -04 2.896  +01   10.
 1.343  -04 2.777  +01   12.
 1.345  -04 2.448  +01   11.
 1.348  -04 2.294  +01   11.
 1.350  -04 2.178  +01   13.
 1.352  -04 2.103  +01   10.
 1.355  -04 1.950  +01   10.
 1.357  -04 1.607  +01    9.9
 1.359  -04 1.661  +01   10.
 1.362  -04 1.606  +01   13.
 1.364  -04 1.998  +01   12.
 1.366  -04 1.952  +01   10.
 1.369  -04 1.891  +01   10.
 1.371  -04 1.920  +01   10.
 1.374  -04 2.139  +01   11.
 1.376  -04 2.449  +01   13.
 1.379  -04 3.125  +01   14.
 1.381  -04 4.102  +01   11.
 1.383  -04 4.348  +01   10.
 1.386  -04 3.632  +01    9.8
 1.388  -04 3.693  +01   10.
 1.391  -04 3.515  +01    9.9
 1.393  -04 3.566  +01   10.
 1.396  -04 4.185  +01   10.
 1.398  -04 4.869  +01   14.
 1.401  -04 5.357  +01   15.
 1.403  -04 4.993  +01   13.
 1.406  -04 4.568  +01   13.
 1.408  -04 4.545  +01   15.
 1.411  -04 4.607  +01   13.
 1.413  -04 5.182  +01   13.
 1.416  -04 6.547  +01   15.
 1.418  -04 8.060  +01   13.
 1.421  -04 8.239  +01   13.
 1.423  -04 7.548  +01   15.
 1.426  -04 4.697  +01   15.
 1.428  -04 3.648  +01   15.
 1.431  -04 2.304  +01   20.
 1.434  -04 1.295  +01   14.
 1.436  -04 1.271  +01   12.
 1.439  -04 1.386  +01     .0
 1.441  -04 1.560  +01   15.
 1.444  -04 2.130  +01   13.
 1.446  -04 2.880  +01   14.
 1.449  -04 3.466  +01   12.
 1.452  -04 3.523  +01   12.
 1.454  -04 3.770  +01   16.
 1.457  -04 4.963  +01   13.
 1.460  -04 5.914  +01   12.
 1.462  -04 5.455  +01   18.
 1.465  -04 3.721  +01   12.
 1.468  -04 3.223  +01   11.
 1.470  -04 2.652  +01   15.
 1.473  -04 2.139  +01     .0
 1.476  -04 2.023  +01     .0
 1.478  -04 2.010  +01   14.
 1.481  -04 1.999  +01   18.
 1.484  -04 2.383  +01   14.
 1.486  -04 2.880  +01   11.
 1.489  -04 3.026  +01   10.
 1.492  -04 2.666  +01   13.
 1.495  -04 2.867  +01   12.
 1.497  -04 3.401  +01    9.9
 1.500  -04 3.372  +01   12.
 1.503  -04 2.720  +01   13.
 1.506  -04 2.744  +01   12.
 1.508  -04 3.227  +01   10.
 1.511  -04 3.283  +01   10.
 1.514  -04 3.166  +01    9.4
 1.517  -04 3.216  +01   13.
 1.520  -04 3.348  +01    9.8
 1.522  -04 3.290  +01   10.
 1.525  -04 3.376  +01    9.4
 1.528  -04 3.460  +01   13.
 1.531  -04 3.776  +01   15.
 1.534  -04 4.738  +01   11.
 1.537  -04 5.265  +01   11.
 1.539  -04 3.823  +01   16.
 1.542  -04 3.156  +01   12.
 1.545  -04 2.530  +01   14.
 1.548  -04 1.844  +01   17.
 1.551  -04 1.587  +01   10.
 1.554  -04 1.925  +01   13.
 1.557  -04 1.645  +01   11.
 1.560  -04 1.304  +01   12.
 1.563  -04 1.375  +01   10.
 1.566  -04 1.216  +01   12.
 1.569  -04 1.111  +01   16.
 1.571  -04 1.334  +01   13.
 1.574  -04 1.570  +01   15.
 1.577  -04 1.881  +01   16.
 1.580  -04 2.211  +01   15.
 1.583  -04 2.565  +01   18.
 1.586  -04 3.352  +01   17.
 1.589  -04 3.974  +01    9.8
 1.592  -04 3.403  +01     .0
 1.595  -04 3.203  +01    9.5
 1.598  -04 2.999  +01    9.9
 1.601  -04 2.579  +01    9.8
 1.605  -04 2.494  +01   11.
 1.608  -04 2.264  +01   13.
 1.608  -04 2.580  +01   16.
 1.611  -04 1.631  +01   10.
 1.614  -04 1.763  +01   10.
 1.618  -04 1.520  +01   11.
 1.621  -04 1.280  +01   11.
 1.624  -04 1.366  +01   11.
 1.627  -04 1.431  +01    9.9
 1.630  -04 1.669  +01   10.
 1.633  -04 1.661  +01   10.
 1.636  -04 1.765  +01    9.7
 1.639  -04 1.845  +01   10.
 1.642  -04 2.119  +01    9.7
 1.646  -04 2.176  +01   11.
 1.649  -04 1.964  +01    9.7
 1.652  -04 1.810  +01     .0
 1.655  -04 1.505  +01   11.
 1.658  -04 1.391  +01   11.
 1.662  -04 1.163  +01   14.
 1.665  -04 1.051  +01   15.
 1.668  -04 1.133  +01   14.
 1.671  -04 1.364  +01   11.
 1.675  -04 1.318  +01   11.
 1.678  -04 1.471  +01   11.
 1.681  -04 1.752  +01   14.
 1.684  -04 2.227  +01   11.
 1.688  -04 2.140  +01   11.
 1.691  -04 1.621  +01   14.
 1.694  -04 2.045  +01   12.
 1.698  -04 1.934  +01   12.
 1.701  -04 1.658  +01   11.
 1.704  -04 1.925  +01   12.
 1.708  -04 1.977  +01   11.
 1.711  -04 2.079  +01   11.
 1.714  -04 2.092  +01   12.
 1.718  -04 2.551  +01   12.
 1.721  -04 2.863  +01   15.
 1.724  -04 3.582  +01   13.
 1.728  -04 4.883  +01   13.
 1.731  -04 6.098  +01   13.
 1.735  -04 6.867  +01   17.
 1.738  -04 7.799  +01   14.
 1.742  -04 9.244  +01   14.
 1.745  -04 8.690  +01   13.
 1.748  -04 8.390  +01   12.
 1.752  -04 7.499  +01   13.
 1.755  -04 6.515  +01   14.
 1.759  -04 5.403  +01   13.
 1.762  -04 4.708  +01   13.
 1.766  -04 3.888  +01    9.8
 1.769  -04 3.291  +01    9.6
 1.773  -04 2.411  +01   12.
 1.777  -04 1.881  +01    9.7
 1.780  -04 1.699  +01   10.
 1.784  -04 1.387  +01   12.
 1.787  -04 1.385  +01   12.
 1.791  -04 1.495  +01   11.
 1.794  -04 1.532  +01   11.
 1.798  -04 1.647  +01   10.
 1.802  -04 1.813  +01    9.9
 1.805  -04 1.770  +01   12.
 1.809  -04 1.943  +01   14.
 1.813  -04 2.295  +01   10.
 1.816  -04 2.441  +01   12.
 1.820  -04 2.866  +01   12.
 1.824  -04 3.548  +01   15.
 1.827  -04 4.235  +01   11.
 1.831  -04 3.787  +01   13.
 1.835  -04 3.696  +01   13.
 1.838  -04 3.849  +01   15.
 1.842  -04 2.390  +01   20.
 1.846  -04 1.325  +01   17.
 1.850  -04 1.085  +01   14.
 1.854  -04 1.012  +01   16.
 1.857  -04 1.072  +01   14.
 1.861  -04 1.359  +01   12.
 1.865  -04 1.451  +01   11.
 1.869  -04 1.711  +01   13.
 1.873  -04 2.194  +01   17.
 1.876  -04 2.490  +01   11.
 1.880  -04 2.915  +01   13.
 1.884  -04 3.294  +01   13.
 1.888  -04 3.890  +01   11.
 1.892  -04 4.372  +01    9.7
 1.896  -04 4.706  +01   12.
 1.900  -04 4.765  +01    9.7
 1.904  -04 4.937  +01   10.
 1.908  -04 5.254  +01    9.7
 1.912  -04 4.915  +01    9.5
 1.916  -04 4.981  +01   10.
 1.920  -04 5.175  +01   13.
 1.924  -04 5.399  +01   14.
 1.928  -04 5.426  +01   13.
 1.932  -04 5.300  +01   16.
 1.936  -04 5.154  +01   19.
 1.940  -04 5.163  +01   16.
 1.944  -04 4.802  +01   11.
 1.948  -04 4.239  +01   10.
 1.952  -04 5.237  +01   10.
 1.956  -04 6.388  +01   11.
 1.960  -04 6.452  +01    9.4
 1.964  -04 6.337  +01    9.5
 1.968  -04 7.246  +01    9.9
 1.973  -04 6.520  +01    9.7
 1.977  -04 5.168  +01   14.
 1.981  -04 4.750  +01    9.3
 1.985  -04 4.564  +01   11.
 1.989  -04 5.628  +01    9.3
 1.994  -04 5.407  +01    9.7
 1.998  -04 5.315  +01    9.3
 2.002  -04 5.974  +01    9.4
 2.006  -04 6.223  +01    9.3
 2.011  -04 5.865  +01    9.3
 2.011  -04 6.658  +01   19.
 2.015  -04 5.448  +01    9.2
 2.019  -04 5.441  +01    9.6
 2.024  -04 6.810  +01   10.
 2.028  -04 5.931  +01   13.
 2.032  -04 4.545  +01   14.
 2.037  -04 6.999  +01   17.
 2.041  -04 5.137  +01   37.
 2.046  -04 2.129  +01   19.
 2.050  -04 1.612  +01   15.
 2.054  -04 2.225  +01   17.
 2.059  -04 2.596  +01   11.
 2.063  -04 2.203  +01   15.
 2.068  -04 2.697  +01   19.
 2.072  -04 2.959  +01   12.
 2.077  -04 2.057  +01   13.
 2.081  -04 2.035  +01   11.
 2.086  -04 2.195  +01   12.
 2.090  -04 2.294  +01   11.
 2.095  -04 2.348  +01   11.
 2.099  -04 2.372  +01   12.
 2.104  -04 2.697  +01   10.
 2.108  -04 2.757  +01   12.
 2.113  -04 2.823  +01   13.
 2.118  -04 2.821  +01   13.
 2.122  -04 2.899  +01   12.
 2.127  -04 3.294  +01   12.
 2.132  -04 3.784  +01   13.
 2.136  -04 3.878  +01   10.
 2.141  -04 4.563  +01   11.
 2.146  -04 4.646  +01    9.9
 2.150  -04 4.889  +01   11.
 2.155  -04 5.771  +01   15.
 2.160  -04 6.381  +01   11.
 2.165  -04 5.844  +01    9.5
 2.170  -04 6.094  +01    9.6
 2.174  -04 6.494  +01    9.5
 2.179  -04 6.372  +01   10.
 2.184  -04 5.936  +01    9.4
 2.189  -04 6.489  +01   11.
 2.194  -04 4.842  +01   28.
 2.199  -04 2.306  +01   13.
 2.204  -04 2.540  +01   13.
 2.208  -04 1.762  +01   21.
 2.213  -04 1.508  +01   16.
 2.218  -04 1.634  +01   12.
 2.223  -04 1.714  +01   14.
 2.228  -04 1.764  +01   10.
 2.233  -04 1.771  +01   11.
 2.238  -04 1.908  +01   11.
 2.243  -04 2.085  +01    9.8
 2.248  -04 2.261  +01   13.
 2.253  -04 2.675  +01   14.
 2.259  -04 2.718  +01    9.8
 2.264  -04 2.588  +01   13.
 2.269  -04 3.229  +01    9.6
 2.274  -04 3.510  +01    9.7
 2.279  -04 3.064  +01   11.
 2.284  -04 2.938  +01    9.7
 2.289  -04 2.928  +01   17.
 2.295  -04 4.151  +01    9.7
 2.300  -04 3.161  +01   18.
 2.305  -04 3.295  +01   17.
 2.310  -04 5.007  +01   14.
 2.316  -04 3.994  +01   15.
 2.321  -04 3.412  +01   11.
 2.326  -04 3.532  +01    9.8
 2.332  -04 3.467  +01   15.
 2.337  -04 2.518  +01   15.
 2.342  -04 4.177  +01   14.
 2.348  -04 4.056  +01   22.
 2.353  -04 2.166  +01   20.
 2.359  -04 2.493  +01   11.
 2.364  -04 2.197  +01   15.
 2.369  -04 2.349  +01   14.
 2.375  -04 3.172  +01    9.9
 2.380  -04 2.953  +01    9.5
 2.386  -04 2.828  +01   11.
 2.392  -04 2.601  +01   14.
 2.397  -04 3.234  +01   11.
 2.403  -04 3.701  +01   12.
 2.408  -04 3.430  +01   10.
 2.414  -04 3.503  +01   12.
 2.418  -04 4.472  +01   17.
 2.424  -04 5.131  +01   10.
 2.430  -04 3.976  +01   11.
 2.435  -04 3.957  +01    9.3
 2.441  -04 3.855  +01   12.
 2.447  -04 4.664  +01   18.
 2.452  -04 6.319  +01   11.
 2.458  -04 4.617  +01   14.
 2.464  -04 4.767  +01   14.
 2.470  -04 2.405  +01   12.
 2.476  -04 2.128  +01   11.
 2.482  -04 2.579  +01   21.
 2.487  -04 2.676  +01   15.
 2.493  -04 1.927  +01   23.
 2.499  -04 4.718  +01   22.
 2.505  -04 3.222  +01   36.
 2.511  -04 1.823  +01   19.
 2.517  -04 1.439  +01   17.
 2.523  -04 1.511  +01   13.
 2.529  -04 1.520  +01   14.
 2.535  -04 1.559  +01   15.
 2.541  -04 1.932  +01   12.
 2.547  -04 2.035  +01   11.
 2.554  -04 2.217  +01   11.
 2.560  -04 2.490  +01   15.
 2.566  -04 3.559  +01   16.
 2.572  -04 3.068  +01   13.
 2.578  -04 3.199  +01   12.
 2.584  -04 3.317  +01   11.
 2.591  -04 2.732  +01   20.
 2.597  -04 6.302  +01   31.
 2.603  -04 6.035  +01   43.
 2.610  -04 2.358  +01   15.
 2.616  -04 3.068  +01   23.
 2.622  -04 1.522  +01   26.
 2.629  -04 1.231  +01   18.
 2.635  -04 1.105  +01   14.
 2.642  -04 1.029  +01   17.
 2.648  -04 1.409  +01   17.
 2.654  -04 1.863  +01   23.
 2.661  -04 1.926  +01   19.
 2.668  -04 1.883  +01   15.
 2.674  -04 2.421  +01   17.
 2.681  -04 3.151  +01   16.
 2.687  -04 2.957  +01   13.
 2.694  -04 2.818  +01   14.
 2.701  -04 4.053  +01   20.
 2.707  -04 4.920  +01   15.
 2.714  -04 4.562  +01   10.
 2.721  -04 3.691  +01   11.
 2.727  -04 4.358  +01   18.
 2.734  -04 5.480  +01   19.
 2.741  -04 2.630  +01   19.
 2.748  -04 2.417  +01   11.
 2.755  -04 2.604  +01   13.
 2.762  -04 3.029  +01   13.
 2.768  -04 3.233  +01   19.
 2.775  -04 3.993  +01   10.
 2.782  -04 4.122  +01   15.
 2.789  -04 4.678  +01   15.
 2.796  -04 2.834  +01   18.
 2.803  -04 2.417  +01   11.
 2.810  -04 2.298  +01   16.
 2.818  -04 2.238  +01   16.
 2.820  -04 2.923  +01   16.
 2.827  -04 2.058  +01   13.
 2.834  -04 2.190  +01   15.
 2.842  -04 2.870  +01   11.
 2.849  -04 3.266  +01   25.
 2.856  -04 3.463  +01   13.
 2.863  -04 3.998  +01   25.
 2.871  -04 2.373  +01   16.
 2.878  -04 2.108  +01   19.
 2.885  -04 1.921  +01   18.
 2.893  -04 1.975  +01   20.
 2.900  -04 1.373  +01   25.
 2.908  -04 1.486  +01   23.
 2.915  -04 2.224  +01   16.
 2.923  -04 2.361  +01   17.
 2.930  -04 2.075  +01   17.
 2.938  -04 1.964  +01   17.
 2.945  -04 2.107  +01   16.
 2.953  -04 2.553  +01   16.
 2.960  -04 2.964  +01   12.
 2.968  -04 2.393  +01   12.
 2.976  -04 2.058  +01   21.
 2.984  -04 2.459  +01   26.
 2.991  -04 5.987  +01   26.
 2.999  -04 4.915  +01   34.
 3.007  -04 2.581  +01   13.
 3.015  -04 2.616  +01   19.
 3.023  -04 2.046  +01   18.
 3.031  -04 2.248  +01   27.
 3.038  -04 3.937  +01   19.
 3.046  -04 1.702  +01   29.
 3.054  -04 1.013  +01   16.
 3.062  -04 9.299  +00   19.
 3.071  -04 1.055  +01   18.
 3.079  -04 1.305  +01   19.
 3.087  -04 2.202  +01   18.
 3.095  -04 1.729  +01   27.
 3.103  -04 1.349  +01   18.
 3.111  -04 1.344  +01   16.
 3.120  -04 1.543  +01   16.
 3.128  -04 1.500  +01   17.
 3.136  -04 1.758  +01   17.
 3.145  -04 2.183  +01   20.
 3.153  -04 3.421  +01   18.
 3.161  -04 2.965  +01   28.
 3.170  -04 1.907  +01   23.
 3.178  -04 2.202  +01   26.
 3.187  -04 2.935  +01   10.
 3.196  -04 3.257  +01   12.
 3.199  -04 6.185  +01   12.
 3.207  -04 6.519  +01   15.
 3.216  -04 6.842  +01   13.
 3.225  -04 6.581  +01   14.
 3.233  -04 4.724  +01   28.
 3.242  -04 3.409  +01   39.
 3.251  -04 4.609  +01   17.
 3.260  -04 3.223  +01   27.
 3.269  -04 2.648  +01   18.
 3.277  -04 3.795  +01   18.
 3.286  -04 3.096  +01   21.
 3.295  -04 2.922  +01   13.
 3.304  -04 3.160  +01   12.
 3.313  -04 3.240  +01   12.
 3.322  -04 2.957  +01   14.
 3.331  -04 2.686  +01   13.
 3.340  -04 1.616  +01   17.
 3.350  -04 9.552  +00   14.
 3.359  -04 8.565  +00   14.
 3.368  -04 9.545  +00   14.
 3.377  -04 7.804  +00   17.
 3.387  -04 8.298  +00   14.
 3.396  -04 1.090  +01   14.
 3.405  -04 1.456  +01   14.
 3.415  -04 1.638  +01   14.
 3.424  -04 1.630  +01   13.
 3.434  -04 2.530  +01   15.
 3.443  -04 3.452  +01   14.
 3.453  -04 2.406  +01   14.
 3.463  -04 1.686  +01   16.
 3.472  -04 1.641  +01   13.
 3.482  -04 2.350  +01   16.
 3.492  -04 3.803  +01   13.
 3.501  -04 2.939  +01   17.
 3.511  -04 1.521  +01   14.
 3.521  -04 1.777  +01   16.
 3.531  -04 2.319  +01   14.
 3.541  -04 1.701  +01   13.
 3.551  -04 1.493  +01   13.
 3.561  -04 1.342  +01   13.
 3.571  -04 1.254  +01   14.
 3.581  -04 1.237  +01   17.
 3.591  -04 1.775  +01   17.
 3.602  -04 2.845  +01   14.
 3.612  -04 2.287  +01   14.
 3.622  -04 1.667  +01   14.
 3.633  -04 1.094  +01   16.
 3.643  -04 1.117  +01   15.
 3.653  -04 1.518  +01   14.
 3.664  -04 1.465  +01   13.
 3.674  -04 1.298  +01   13.
 3.685  -04 1.262  +01   16.
 3.696  -04 1.263  +01   13.
 3.706  -04 1.445  +01   15.
 3.717  -04 1.566  +01   16.
 3.728  -04 2.210  +01   18.
 3.738  -04 2.933  +01   20.
 3.749  -04 4.188  +01   24.
 3.760  -04 4.608  +01   15.
 3.771  -04 4.893  +01   17.
 3.782  -04 3.285  +01   22.
 3.793  -04 2.482  +01   21.
 3.804  -04 2.208  +01   14.
 3.815  -04 2.697  +01   14.
 3.827  -04 2.810  +01   20.
 3.838  -04 2.293  +01   14.
 3.849  -04 2.687  +01   17.
 3.860  -04 3.251  +01   16.
 3.872  -04 3.968  +01   15.
 3.883  -04 1.720  +01   42.
 3.895  -04 1.003  +01   16.
 3.906  -04 1.130  +01   13.
 3.918  -04 1.622  +01   14.
 3.929  -04 2.059  +01   14.
 3.941  -04 2.330  +01   14.
 3.953  -04 2.036  +01   13.
 3.965  -04 2.150  +01   13.
 3.976  -04 1.734  +01   13.
 3.988  -04 1.614  +01   19.
 4.000  -04 2.300  +01   21.
 4.012  -04 3.599  +01   14.
 4.024  -04 3.778  +01   13.
 4.037  -04 2.774  +01   16.
 4.049  -04 1.952  +01   14.
 4.061  -04 1.780  +01   15.
 4.073  -04 2.116  +01   19.
 4.086  -04 2.744  +01   15.
 4.098  -04 1.972  +01   15.
 4.110  -04 1.610  +01   16.
 4.123  -04 1.445  +01   17.
 4.135  -04 1.849  +01   14.
 4.148  -04 2.285  +01   14.
 4.161  -04 1.881  +01   15.
 4.173  -04 1.569  +01   20.
 4.186  -04 1.893  +01   14.
 4.199  -04 2.058  +01   21.
 4.212  -04 1.532  +01   15.
 4.225  -04 1.830  +01   14.
 4.238  -04 2.782  +01   14.
 4.251  -04 3.494  +01   14.
 4.264  -04 2.938  +01   17.
 4.278  -04 2.391  +01   14.
 4.291  -04 1.992  +01   14.
 4.304  -04 2.075  +01   14.
 4.318  -04 2.892  +01   16.
 4.331  -04 5.599  +01   16.
 4.345  -04 6.101  +01   15.
 4.358  -04 4.849  +01   14.
 4.372  -04 3.851  +01   18.
 4.386  -04 2.750  +01   20.
 4.399  -04 2.156  +01   17.
 4.413  -04 1.674  +01   16.
 4.427  -04 1.392  +01   14.
 4.441  -04 1.054  +01   18.
 4.455  -04 1.235  +01   14.
 4.469  -04 1.357  +01   20.
 4.483  -04 1.557  +01   14.
 4.498  -04 1.448  +01   17.
 4.512  -04 1.470  +01   15.
 4.526  -04 1.468  +01   14.
 4.541  -04 1.418  +01   18.
 4.555  -04 1.951  +01   13.
 4.570  -04 1.905  +01   18.
 4.585  -04 1.983  +01   14.
 4.599  -04 2.305  +01   23.
 4.614  -04 2.342  +01   15.
 4.629  -04 2.797  +01   14.
 4.644  -04 2.758  +01   13.
 4.659  -04 2.649  +01   17.
 4.674  -04 4.099  +01   24.
 4.689  -04 5.063  +01   16.
 4.704  -04 3.678  +01   26.
 4.720  -04 1.702  +01   29.
 4.735  -04 1.514  +01   16.
 4.751  -04 1.238  +01   13.
 4.766  -04 1.218  +01   15.
 4.782  -04 1.108  +01   21.
 4.798  -04 1.779  +01   24.
 4.813  -04 2.223  +01   15.
 4.829  -04 1.050  +01   23.
 4.845  -04 6.944  +00   20.
 4.861  -04 9.646  +00   16.
 4.877  -04 9.533  +00   16.
 4.893  -04 6.956  +00   23.
 4.910  -04 8.680  +00   17.
 4.926  -04 1.057  +01   17.
 4.942  -04 1.095  +01   19.
 4.959  -04 1.175  +01   14.
 4.975  -04 1.320  +01   15.
 4.992  -04 1.066  +01   13.
 5.009  -04 9.821  +00   16.
 5.026  -04 1.091  +01   19.
 5.043  -04 1.604  +01   19.
 5.060  -04 2.320  +01   13.
 5.077  -04 2.478  +01   15.
 5.094  -04 2.278  +01   14.
 5.111  -04 1.910  +01   14.
 5.128  -04 2.186  +01   13.
 5.146  -04 2.301  +01   14.
 5.163  -04 1.669  +01   15.
 5.181  -04 1.295  +01   14.
 5.199  -04 1.287  +01   15.
 5.217  -04 1.960  +01   15.
 5.234  -04 2.642  +01   15.
 5.252  -04 2.550  +01   14.
 5.271  -04 1.995  +01   16.
 5.289  -04 2.860  +01   15.
 5.307  -04 3.901  +01   15.
 5.325  -04 3.245  +01   16.
 5.344  -04 2.507  +01   14.
 5.362  -04 2.017  +01   14.
 5.381  -04 1.776  +01   11.
 5.400  -04 1.581  +01   14.
 5.419  -04 1.252  +01   15.
 5.437  -04 9.578  +00   14.
 5.457  -04 1.058  +01   17.
 5.476  -04 9.928  +00   15.
 5.495  -04 1.055  +01   14.
 5.514  -04 9.955  +00   22.
 5.534  -04 1.300  +01   14.
 5.553  -04 1.434  +01   15.
 5.573  -04 1.207  +01   15.
 5.593  -04 8.197  +00   21.
 5.613  -04 8.688  +00   14.
 5.633  -04 1.060  +01   16.
 5.653  -04 1.194  +01   21.
 5.673  -04 1.599  +01   14.
 5.693  -04 2.059  +01   13.
 5.713  -04 1.842  +01   14.
 5.734  -04 1.643  +01   14.
 5.755  -04 1.630  +01   14.
 5.775  -04 1.479  +01   14.
 5.796  -04 1.114  +01   15.
 5.817  -04 1.095  +01   37.
 5.838  -04 1.817  +01   14.
 5.859  -04 2.227  +01   19.
 5.881  -04 2.915  +01   13.
 5.902  -04 2.460  +01   15.
 5.924  -04 1.667  +01   21.
 5.945  -04 2.021  +01   14.
 5.967  -04 1.696  +01   17.
 6.007  -04 1.326  +01   14.
 6.029  -04 1.002  +01   15.
 6.051  -04 7.511  +00   15.
 6.074  -04 8.560  +00   14.
 6.096  -04 1.144  +01   14.
 6.119  -04 1.097  +01   16.
 6.141  -04 7.919  +00   18.
 6.164  -04 7.290  +00   13.
 6.187  -04 7.484  +00   16.
 6.210  -04 9.832  +00   14.
 6.234  -04 1.654  +01   15.
 6.257  -04 1.830  +01   13.
 6.281  -04 1.380  +01   15.
 6.304  -04 8.456  +00   28.
 6.328  -04 9.592  +00   21.
 6.352  -04 1.173  +01   15.
 6.376  -04 1.316  +01   14.
 6.400  -04 1.251  +01   16.
 6.424  -04 1.355  +01   14.
 6.449  -04 1.400  +01   16.
 6.473  -04 1.183  +01   17.
 6.498  -04 1.186  +01   13.
 6.523  -04 1.387  +01   15.
 6.548  -04 1.381  +01   13.
 6.573  -04 1.259  +01   16.
 6.599  -04 1.509  +01   14.
 6.624  -04 1.701  +01   14.
 6.650  -04 1.581  +01   15.
 6.676  -04 1.074  +01   22.
 6.701  -04 7.656  +00   16.
 6.727  -04 5.338  +00   16.
 6.754  -04 5.276  +00   18.
 6.780  -04 5.383  +00   17.
 6.807  -04 6.484  +00   15.
 6.833  -04 6.537  +00   15.
 6.860  -04 7.466  +00   14.
 6.887  -04 1.004  +01   16.
 6.914  -04 1.323  +01   17.
 6.942  -04 9.926  +00   18.
 6.969  -04 1.150  +01   14.
 6.997  -04 1.273  +01   16.
 7.025  -04 1.181  +01   14.
 7.053  -04 1.118  +01   14.
 7.081  -04 7.440  +00   18.
 7.109  -04 7.682  +00   17.
 7.138  -04 8.490  +00   14.
 7.166  -04 8.988  +00   14.
 7.195  -04 8.969  +00   15.
 7.224  -04 8.954  +00   15.
 7.253  -04 1.071  +01   15.
 7.283  -04 1.751  +01   17.
 7.312  -04 1.111  +01   25.
 7.342  -04 1.100  +01   15.
 7.372  -04 9.844  +00   15.
 7.402  -04 9.555  +00   15.
 7.432  -04 8.305  +00   16.
 7.463  -04 8.812  +00   17.
 7.493  -04 8.084  +00   15.
 7.524  -04 7.950  +00   16.
 7.555  -04 7.535  +00   16.
 7.586  -04 7.796  +00   15.
 7.618  -04 5.164  +00   20.
 7.649  -04 6.461  +00   22.
 7.681  -04 8.558  +00   15.
 7.713  -04 9.576  +00   14.
 7.745  -04 7.759  +00   22.
 7.778  -04 8.874  +00   17.
 7.810  -04 9.919  +00   13.
 7.843  -04 1.352  +01   15.
 7.876  -04 1.580  +01   14.
 7.909  -04 1.375  +01   13.
 7.943  -04 1.074  +01   14.
 7.976  -04 9.486  +00   14.
 8.010  -04 1.101  +01   14.
 8.044  -04 1.366  +01   14.
 8.079  -04 1.084  +01   14.
 8.113  -04 1.158  +01   14.
 8.148  -04 1.029  +01   14.
 8.183  -04 9.268  +00   15.
 8.218  -04 8.385  +00   15.
 8.254  -04 8.424  +00   14.
 8.289  -04 5.360  +00   16.
 8.325  -04 3.917  +00   17.
 8.361  -04 4.152  +00   19.
 8.398  -04 5.997  +00   16.
 8.434  -04 7.268  +00   15.
 8.471  -04 7.596  +00   15.
 8.508  -04 7.384  +00   16.
 8.545  -04 7.462  +00   18.
 8.583  -04 8.924  +00   15.
 8.621  -04 1.212  +01   16.
 8.659  -04 1.121  +01   14.
 8.697  -04 1.058  +01   13.
 8.736  -04 1.357  +01   15.
 8.775  -04 1.337  +01   15.
 8.814  -04 9.558  +00   16.
 8.853  -04 1.180  +01   14.
 8.893  -04 1.192  +01   16.
 8.932  -04 9.855  +00   15.
 8.973  -04 7.232  +00   25.
 9.013  -04 8.362  +00   15.
 9.054  -04 8.449  +00   16.
 9.095  -04 9.406  +00   21.
 9.136  -04 1.253  +01   14.
 9.177  -04 1.654  +01   14.
 9.219  -04 1.421  +01   15.
 9.261  -04 1.159  +01   25.
 9.304  -04 9.298  +00   26.
 9.346  -04 9.317  +00   14.
 9.389  -04 1.024  +01   15.
 9.433  -04 8.923  +00   17.
 9.476  -04 9.384  +00   15.
 9.520  -04 9.360  +00   14.
 9.564  -04 8.341  +00   14.
 9.609  -04 8.271  +00   13.
 9.654  -04 6.699  +00   16.
 9.699  -04 8.314  +00   14.
 9.744  -04 9.046  +00   14.
 9.790  -04 1.019  +01   14.
 9.836  -04 7.768  +00   15.
 9.883  -04 9.866  +00   15.
 9.929  -04 1.101  +01   14.
 9.976  -04 1.233  +01   13.
 1.001  -03 1.411  +01   13.
 1.006  -03 1.325  +01   16.
 1.011  -03 1.169  +01   13.
 1.016  -03 1.262  +01   14.
 1.020  -03 1.124  +01   13.
 1.025  -03 8.803  +00   15.
 1.030  -03 1.091  +01   14.
 1.035  -03 1.139  +01   14.
 1.040  -03 1.169  +01   21.
 1.045  -03 1.271  +01   14.
 1.050  -03 1.399  +01   14.
 1.056  -03 1.533  +01   14.
 1.061  -03 1.658  +01   14.
 1.066  -03 1.352  +01   15.
 1.071  -03 1.165  +01   14.
 1.076  -03 1.127  +01   14.
 1.082  -03 1.303  +01   14.
 1.087  -03 1.075  +01   15.
 1.092  -03 8.013  +00   14.
 1.098  -03 6.894  +00   13.
 1.103  -03 8.347  +00   15.
 1.109  -03 1.038  +01   14.
 1.114  -03 9.166  +00   18.
 1.120  -03 7.633  +00   17.
 1.126  -03 7.575  +00   14.
 1.131  -03 8.635  +00   14.
 1.137  -03 1.001  +01   14.
 1.143  -03 1.069  +01   13.
 1.149  -03 1.043  +01   15.
 1.155  -03 8.890  +00   16.
 1.160  -03 9.482  +00   13.
 1.166  -03 1.080  +01   14.
 1.172  -03 1.124  +01   14.
 1.178  -03 1.017  +01   16.
 1.185  -03 1.079  +01   17.
 1.191  -03 1.048  +01   14.
 1.197  -03 9.693  +00   16.
 1.203  -03 7.413  +00   15.
 1.209  -03 6.221  +00   14.
 1.216  -03 5.248  +00   14.
 1.222  -03 5.122  +00   16.
 1.229  -03 4.628  +00   16.
 1.235  -03 6.246  +00   14.
 1.242  -03 8.320  +00   14.
 1.248  -03 7.875  +00   16.
 1.255  -03 8.888  +00   13.
 1.261  -03 7.268  +00   19.
 1.268  -03 8.707  +00   16.
 1.275  -03 1.065  +01   15.
 1.282  -03 1.268  +01   14.
 1.289  -03 1.145  +01   13.
 1.296  -03 9.370  +00   17.
 1.303  -03 8.704  +00   14.
 1.310  -03 7.264  +00   13.
 1.317  -03 6.146  +00   19.
 1.324  -03 7.406  +00   14.
 1.331  -03 8.741  +00   14.
 1.339  -03 9.943  +00   13.
 1.346  -03 8.172  +00   20.
 1.354  -03 6.089  +00   20.
 1.361  -03 5.365  +00   14.
 1.369  -03 5.545  +00   14.
 1.376  -03 6.278  +00   13.
 1.384  -03 7.256  +00   14.
 1.392  -03 7.400  +00   13.
 1.400  -03 8.510  +00   14.
 1.407  -03 1.106  +01   14.
 1.415  -03 1.145  +01   17.
 1.423  -03 1.083  +01   14.
 1.432  -03 8.492  +00   15.
 1.440  -03 8.904  +00   13.
 1.448  -03 8.974  +00   14.
 1.456  -03 8.341  +00   14.
 1.465  -03 7.553  +00   14.
 1.473  -03 7.775  +00   14.
 1.482  -03 7.226  +00   13.
 1.490  -03 7.937  +00   18.
 1.499  -03 9.007  +00   15.
 1.508  -03 9.437  +00   14.
 1.516  -03 9.132  +00   14.
 1.525  -03 8.220  +00   15.
 1.534  -03 8.222  +00   14.
 1.543  -03 8.813  +00   14.
 1.552  -03 1.017  +01   15.
 1.562  -03 1.160  +01   17.
 1.571  -03 1.121  +01   14.
 1.580  -03 1.077  +01   14.
 1.590  -03 9.550  +00   14.
 1.599  -03 7.833  +00   14.
 1.609  -03 7.114  +00   14.
 1.619  -03 6.882  +00   14.
 1.629  -03 7.225  +00   14.
 1.639  -03 7.391  +00   16.
 1.649  -03 7.705  +00   14.
 1.659  -03 7.354  +00   15.
 1.669  -03 7.443  +00   14.
 1.679  -03 8.095  +00   13.
 1.689  -03 9.410  +00   16.
 1.700  -03 9.123  +00   14.
 1.710  -03 8.788  +00   13.
 1.721  -03 7.924  +00   13.
 1.732  -03 7.843  +00   15.
 1.743  -03 7.932  +00   14.
 1.754  -03 8.029  +00   19.
 1.765  -03 7.619  +00   13.
 1.776  -03 7.715  +00   16.
 1.787  -03 6.858  +00   14.
 1.799  -03 6.157  +00   15.
 1.810  -03 6.233  +00   14.
 1.822  -03 5.822  +00   14.
 1.834  -03 6.229  +00   16.
 1.845  -03 6.158  +00   13.
 1.857  -03 6.730  +00   13.
 1.869  -03 7.225  +00   14.
 1.882  -03 8.116  +00   14.
 1.894  -03 6.839  +00   19.
 1.906  -03 6.376  +00   13.
 1.919  -03 7.047  +00   15.
 1.932  -03 7.415  +00   13.
 1.944  -03 7.280  +00   14.
 1.957  -03 6.317  +00   13.
 1.970  -03 6.024  +00   16.
 1.984  -03 6.364  +00   14.
 1.997  -03 6.063  +00   14.
 2.010  -03 6.133  +00   14.
 2.024  -03 5.981  +00   14.
 2.038  -03 6.132  +00   13.
 2.052  -03 6.484  +00   14.
 2.066  -03 7.476  +00   13.
 2.080  -03 6.767  +00   13.
 2.094  -03 5.966  +00   14.
 2.109  -03 5.795  +00   14.
 2.123  -03 5.983  +00   14.
 2.138  -03 6.150  +00   14.
 2.153  -03 5.691  +00   14.
 2.168  -03 5.442  +00   14.
 2.183  -03 5.179  +00   13.
 2.199  -03 5.930  +00   15.
 2.214  -03 6.227  +00   13.
 2.230  -03 7.056  +00   13.
 2.246  -03 6.839  +00   16.
 2.262  -03 6.391  +00   14.
 2.278  -03 6.180  +00   15.
 2.295  -03 6.788  +00   14.
 2.311  -03 6.786  +00   15.
 2.328  -03 7.113  +00   15.
 2.345  -03 6.365  +00   13.
 2.362  -03 5.708  +00   14.
 2.379  -03 5.439  +00   15.
 2.397  -03 5.329  +00   16.
 2.415  -03 5.816  +00   14.
 2.433  -03 7.323  +00   17.
 2.451  -03 7.699  +00   15.
 2.469  -03 8.200  +00   14.
 2.488  -03 7.401  +00   14.
 2.506  -03 6.064  +00   14.
 2.525  -03 5.986  +00   15.
 2.544  -03 6.340  +00   14.
 2.564  -03 6.339  +00   14.
 2.583  -03 6.688  +00   14.
 2.603  -03 7.117  +00   14.
 2.623  -03 6.446  +00   13.
 2.644  -03 5.017  +00   17.
 2.664  -03 3.747  +00   15.
 2.685  -03 3.993  +00   14.
 2.706  -03 4.708  +00   13.
 2.727  -03 5.113  +00   14.
 2.749  -03 5.364  +00   14.
 2.809  -03 1.022  +01   19.
 2.820  -03 6.815  +00   20.
 2.831  -03 9.858  +00   16.
 2.843  -03 7.790  +00   22.
 2.854  -03 6.689  +00   20.
 2.865  -03 6.387  +00   20.
 2.889  -03 9.449  +00   25.
 2.900  -03 5.892  +00   17.
 2.912  -03 6.708  +00   24.
 2.924  -03 7.177  +00   17.
 2.936  -03 7.328  +00   23.
 2.948  -03 6.668  +00   23.
 2.960  -03 8.043  +00   23.
 2.972  -03 9.381  +00   26.
 2.984  -03 7.490  +00   17.
 2.996  -03 7.174  +00   33.
 3.009  -03 9.324  +00   17.
 3.021  -03 7.989  +00   14.
 3.033  -03 8.371  +00   29.
 3.046  -03 9.505  +00   25.
 3.059  -03 9.703  +00   18.
 3.084  -03 7.427  +00   16.
 3.097  -03 6.410  +00   18.
 3.110  -03 7.235  +00   29.
 3.123  -03 5.155  +00   16.
 3.136  -03 7.248  +00   32.
 3.149  -03 8.395  +00   15.
 3.163  -03 6.645  +00   20.
 3.176  -03 6.646  +00   13.
 3.189  -03 6.854  +00   18.
 3.203  -03 8.070  +00   16.
 3.217  -03 9.147  +00   14.
 3.230  -03 5.723  +00   22.
 3.258  -03 9.337  +00   19.
 3.286  -03 7.249  +00   16.
 3.314  -03 5.757  +00   21.
 3.329  -03 4.229  +00   20.
 3.343  -03 6.494  +00   14.
 3.358  -03 4.973  +00   14.
 3.372  -03 6.075  +00   28.
 3.387  -03 4.837  +00   26.
 3.402  -03 5.928  +00   14.
 3.417  -03 6.671  +00   22.
 3.432  -03 8.351  +00   28.
 3.447  -03 5.742  +00   26.
 3.462  -03 5.670  +00   20.
 3.478  -03 4.331  +00   16.
 3.493  -03 3.878  +00   19.
 3.508  -03 4.483  +00   17.
 3.524  -03 4.602  +00   17.
 3.540  -03 4.821  +00   14.
 3.556  -03 7.021  +00   15.
 3.572  -03 7.676  +00   22.
 3.588  -03 4.731  +00   37.
 3.604  -03 5.133  +00   19.
 3.620  -03 4.499  +00   27.
 3.636  -03 5.236  +00   33.
 3.653  -03 8.714  +00   16.
 3.670  -03 6.226  +00   32.
 3.686  -03 6.028  +00   14.
 3.703  -03 7.655  +00   14.
 3.720  -03 6.062  +00   13.
 3.737  -03 5.315  +00   13.
 3.754  -03 4.953  +00   17.
 3.772  -03 6.516  +00   32.
 3.789  -03 7.958  +00   14.
 3.807  -03 6.122  +00   17.
 3.824  -03 5.005  +00   19.
 3.842  -03 4.688  +00   29.
 3.896  -03 6.634  +00   13.
 3.914  -03 5.331  +00   12.
 3.933  -03 6.154  +00   17.
 3.951  -03 5.984  +00   20.
 3.970  -03 3.707  +00   18.
 3.989  -03 3.639  +00   37.
 4.008  -03 4.593  +00   25.
 4.027  -03 5.796  +00   23.
 4.046  -03 2.440  +00   25.
 4.066  -03 3.896  +00   19.
 4.085  -03 5.240  +00   22.
 4.105  -03 6.145  +00   39.
 4.124  -03 4.717  +00   19.
 4.144  -03 4.901  +00   22.
 4.164  -03 4.968  +00   28.
 4.185  -03 8.804  +00   56.
 4.205  -03 5.201  +00   33.
 4.226  -03 4.657  +00   17.
 4.246  -03 4.030  +00   18.
 4.288  -03 8.001  +00   14.
 4.309  -03 6.114  +00   28.
 4.330  -03 6.398  +00   30.
 4.352  -03 4.891  +00   17.
 4.374  -03 4.606  +00   19.
 4.395  -03 4.170  +00   18.
 4.417  -03 3.927  +00   16.
 4.439  -03 3.390  +00   26.
 4.462  -03 3.608  +00   20.
 4.484  -03 4.432  +00   23.
 4.507  -03 5.165  +00   20.
 4.529  -03 4.801  +00   23.
 4.552  -03 5.486  +00   17.
 4.575  -03 5.033  +00   25.
 4.599  -03 3.769  +00   21.
 4.622  -03 4.775  +00   19.
 4.646  -03 7.239  +00   15.
 4.670  -03 4.920  +00   12.
 4.718  -03 5.406  +00   27.
 4.742  -03 4.241  +00   33.
 4.767  -03 3.618  +00   21.
 4.792  -03 4.714  +00   15.
 4.817  -03 3.572  +00   14.
 4.842  -03 5.915  +00   16.
 4.867  -03 5.145  +00   16.
 4.893  -03 5.535  +00   35.
 4.918  -03 5.418  +00   15.
 4.944  -03 6.665  +00   18.
 4.971  -03 5.127  +00   25.
 4.997  -03 6.151  +00   20.
 5.024  -03 5.461  +00   27.
 5.050  -03 2.999  +00   33.
 5.077  -03 5.088  +00   17.
 5.105  -03 3.716  +00   17.
 5.132  -03 3.008  +00   27.
 5.160  -03 3.898  +00   20.
 5.188  -03 3.172  +00   38.
 5.216  -03 4.922  +00   24.
 5.244  -03 5.738  +00   26.
 5.273  -03 5.333  +00   33.
 5.302  -03 4.777  +00   20.
 5.331  -03 4.185  +00   21.
 5.360  -03 4.096  +00   18.
 5.390  -03 3.652  +00   23.
 5.419  -03 5.549  +00   20.
 5.449  -03 3.878  +00   27.
 5.480  -03 5.153  +00   12.
 5.510  -03 5.047  +00   17.
 5.541  -03 3.954  +00   26.
 5.572  -03 4.233  +00   22.
 5.604  -03 3.659  +00   16.
 5.635  -03 3.643  +00   20.
 5.667  -03 3.519  +00   19.
 5.699  -03 4.151  +00   22.
 5.732  -03 2.999  +00   20.
 5.764  -03 3.542  +00   23.
 5.797  -03 4.088  +00   13.
 5.864  -03 4.822  +00   14.
 5.898  -03 5.054  +00   15.
 5.932  -03 4.681  +00   16.
 5.966  -03 4.335  +00   34.
 6.001  -03 4.715  +00   15.
 6.036  -03 3.866  +00   25.
 6.071  -03 4.631  +00   21.
 6.107  -03 4.949  +00   32.
 6.143  -03 4.261  +00   17.
 6.179  -03 6.013  +00   29.
 6.216  -03 5.877  +00   22.
 6.253  -03 4.387  +00   18.
 6.290  -03 4.183  +00   19.
 6.328  -03 4.639  +00   24.
 6.366  -03 5.186  +00   21.
 6.404  -03 4.915  +00   19.
 6.443  -03 4.828  +00   17.
 6.482  -03 4.377  +00   24.
 6.521  -03 4.590  +00   17.
 6.561  -03 4.457  +00   17.
 6.601  -03 3.989  +00   26.
 6.641  -03 4.957  +00   20.
 6.682  -03 4.313  +00   23.
 6.723  -03 4.359  +00   17.
 6.765  -03 4.181  +00   19.
 6.807  -03 4.107  +00   16.
 6.849  -03 4.265  +00   17.
 6.892  -03 3.635  +00   17.
 6.935  -03 3.953  +00   21.
 6.978  -03 4.020  +00   19.
 7.022  -03 4.197  +00   16.
 7.067  -03 3.754  +00   24.
 7.111  -03 3.814  +00   16.
 7.157  -03 4.193  +00   25.
 7.202  -03 3.569  +00   11.
 7.248  -03 2.990  +00   14.
 7.295  -03 3.154  +00   31.
 7.342  -03 5.515  +00   14.
 7.389  -03 4.706  +00   17.
 7.486  -03 3.712  +00   17.
 7.535  -03 4.384  +00   16.
 7.584  -03 3.543  +00   25.
 7.634  -03 3.134  +00   23.
 7.684  -03 3.273  +00   21.
 7.735  -03 3.589  +00   17.
 7.786  -03 2.848  +00   14.
 7.838  -03 3.275  +00   18.
 7.890  -03 3.431  +00   28.
 7.943  -03 3.875  +00   41.
 7.997  -03 2.720  +00   17.
 8.051  -03 3.064  +00   17.
 8.105  -03 2.827  +00   18.
 8.160  -03 3.804  +00   19.
 8.216  -03 4.801  +00   16.
 8.272  -03 3.486  +00   21.
 8.329  -03 3.726  +00   21.
 8.386  -03 3.319  +00   17.
 8.444  -03 5.687  +00   16.
 8.503  -03 3.958  +00   31.
 8.562  -03 4.198  +00   21.
 8.622  -03 3.393  +00   19.
 8.682  -03 3.337  +00   24.
 8.743  -03 2.831  +00   21.
 8.805  -03 3.640  +00   32.
 8.867  -03 4.055  +00   24.
 8.930  -03 4.063  +00   13.
 8.994  -03 3.912  +00   15.
 9.058  -03 3.224  +00   17.
 9.123  -03 2.647  +00   20.
 9.189  -03 2.742  +00   25.
 9.256  -03 2.748  +00   20.
 9.323  -03 3.621  +00   15.
 9.391  -03 2.493  +00   24.
 9.460  -03 3.826  +00   14.
 9.529  -03 3.390  +00   15.
 9.599  -03 3.415  +00   14.
 9.670  -03 3.434  +00   13.
 9.742  -03 2.839  +00   16.
 9.888  -03 3.047  +00   15.
 9.963  -03 3.882  +00   15.
 9.996  -03 4.385  +00   16.
 1.004  -02 5.083  +00   17.
 1.009  -02 4.619  +00   19.
 1.013  -02 3.579  +00   16.
 1.018  -02 2.816  +00   20.
 1.022  -02 3.967  +00   15.
 1.027  -02 3.013  +00   16.
 1.032  -02 4.241  +00   26.
 1.037  -02 4.625  +00   15.
 1.041  -02 5.120  +00   19.
 1.046  -02 3.818  +00   29.
 1.051  -02 2.964  +00   17.
 1.056  -02 3.544  +00   15.
 1.061  -02 3.953  +00   16.
 1.066  -02 3.300  +00   17.
 1.071  -02 3.673  +00   16.
 1.076  -02 2.798  +00   16.
 1.081  -02 2.935  +00   23.
 1.086  -02 3.908  +00   18.
 1.091  -02 3.222  +00   17.
 1.096  -02 3.186  +00   29.
 1.101  -02 3.876  +00   18.
 1.106  -02 3.195  +00   30.
 1.112  -02 4.301  +00   20.
 1.117  -02 3.808  +00   18.
 1.122  -02 4.718  +00   14.
 1.128  -02 3.179  +00   30.
 1.133  -02 3.682  +00   15.
 1.138  -02 4.897  +00   18.
 1.144  -02 4.020  +00   23.
 1.149  -02 4.738  +00   16.
 1.155  -02 3.964  +00   33.
 1.161  -02 3.804  +00   14.
 1.166  -02 3.640  +00   15.
 1.172  -02 3.769  +00   16.
 1.178  -02 4.056  +00   23.
 1.195  -02 2.176  +00   17.
 1.201  -02 2.191  +00   19.
 1.207  -02 2.139  +00   18.
 1.213  -02 2.730  +00   15.
 1.219  -02 2.515  +00   16.
 1.225  -02 2.645  +00   18.
 1.231  -02 3.321  +00   22.
 1.237  -02 3.957  +00   17.
 1.244  -02 3.897  +00   17.
 1.250  -02 2.995  +00   15.
 1.256  -02 3.546  +00   14.
 1.262  -02 2.759  +00   18.
 1.269  -02 3.074  +00   28.
 1.275  -02 3.185  +00   18.
 1.282  -02 2.837  +00   21.
 1.302  -02 3.395  +00   29.
 1.315  -02 2.333  +00   18.
 1.322  -02 3.028  +00   22.
 1.329  -02 3.479  +00   16.
 1.336  -02 3.269  +00   19.
 1.343  -02 2.700  +00   34.
 1.364  -02 3.070  +00   17.
 1.371  -02 2.825  +00   19.
 1.378  -02 2.407  +00   30.
 1.386  -02 3.473  +00   17.
 1.393  -02 3.958  +00   15.
 1.400  -02 4.927  +00   16.
 1.408  -02 3.779  +00   18.
 1.415  -02 3.996  +00   21.
 1.423  -02 4.157  +00   19.
 1.431  -02 4.298  +00   17.
 1.438  -02 3.926  +00   15.
 1.446  -02 3.140  +00   15.
 1.454  -02 2.869  +00   20.
 1.462  -02 3.814  +00   20.
 1.470  -02 2.866  +00   24.
 1.478  -02 3.273  +00   17.
 1.486  -02 4.431  +00   20.
 1.494  -02 4.188  +00   17.
 1.503  -02 3.684  +00   21.
 1.511  -02 3.826  +00   35.
 1.519  -02 5.223  +00   17.
 1.528  -02 4.263  +00   20.
 1.536  -02 3.015  +00   25.
 1.545  -02 3.414  +00   21.
 1.554  -02 2.843  +00   22.
 1.562  -02 3.577  +00   18.
 1.571  -02 3.762  +00   17.
 1.580  -02 3.989  +00   15.
 1.589  -02 3.141  +00   19.
 1.598  -02 2.663  +00   22.
 1.607  -02 2.594  +00   18.
 1.617  -02 2.299  +00   18.
 1.626  -02 2.516  +00   36.
 1.635  -02 3.286  +00   25.
 1.645  -02 3.939  +00   23.
 1.654  -02 2.984  +00   15.
 1.664  -02 3.243  +00   26.
 1.674  -02 2.860  +00   31.
 1.683  -02 4.236  +00   26.
 1.693  -02 3.852  +00   15.
 1.703  -02 4.157  +00   14.
 1.713  -02 3.283  +00   16.
 1.723  -02 3.661  +00   13.
 1.734  -02 4.373  +00   16.
 1.744  -02 2.922  +00   21.
 1.754  -02 2.860  +00   15.
 1.765  -02 3.372  +00   15.
 1.775  -02 4.124  +00   16.
 1.786  -02 3.054  +00   15.
 1.797  -02 3.109  +00   17.
 1.808  -02 3.106  +00   17.
 1.819  -02 2.743  +00   15.
 1.830  -02 2.694  +00   16.
 1.841  -02 2.781  +00   14.
 1.852  -02 3.389  +00   15.
 1.864  -02 2.298  +00   13.
 1.875  -02 2.599  +00   18.
 1.887  -02 2.263  +00   16.
 1.899  -02 2.315  +00   33.
 1.910  -02 3.322  +00   13.
 1.922  -02 3.309  +00   16.
 1.934  -02 3.754  +00   14.
 1.947  -02 3.591  +00   15.
 1.959  -02 2.954  +00   23.
 1.996  -02 2.955  +00   18.
 2.009  -02 2.840  +00   17.
 2.022  -02 2.855  +00   21.
 2.035  -02 3.376  +00   21.
 2.048  -02 3.982  +00   14.
 2.062  -02 4.233  +00   17.
 2.075  -02 4.797  +00   15.
 2.088  -02 3.973  +00   17.
 2.102  -02 3.327  +00   16.
 2.116  -02 3.251  +00   18.
 2.130  -02 3.895  +00   14.
 2.144  -02 2.757  +00   17.
 2.158  -02 1.950  +00   19.
 2.172  -02 2.276  +00   17.
 2.187  -02 2.174  +00   15.
 2.202  -02 2.633  +00   14.
 2.216  -02 2.584  +00   16.
 2.231  -02 3.048  +00   18.
 2.246  -02 3.036  +00   14.
 2.262  -02 3.026  +00   30.
 2.277  -02 3.062  +00   13.
 2.293  -02 4.619  +00   20.
 2.308  -02 3.598  +00   15.
 2.324  -02 3.770  +00   15.
 2.340  -02 3.198  +00   16.
 2.356  -02 3.033  +00   15.
 2.373  -02 3.335  +00   16.
 2.389  -02 4.120  +00   25.
 2.406  -02 4.938  +00   26.
 2.423  -02 4.516  +00   24.
 2.440  -02 3.825  +00   18.
 2.457  -02 3.334  +00   17.
 2.475  -02 3.813  +00   16.
 2.492  -02 2.914  +00   17.
 2.510  -02 3.453  +00   16.
 2.528  -02 3.371  +00   14.
 2.547  -02 3.528  +00   15.
 2.565  -02 3.563  +00   15.
 2.584  -02 3.464  +00   15.
 2.602  -02 3.597  +00   17.
 2.621  -02 2.611  +00   15.
 2.641  -02 2.682  +00   14.
 2.660  -02 2.956  +00   13.
 2.680  -02 2.448  +00   15.
 2.700  -02 2.888  +00   16.
 2.720  -02 2.785  +00   14.
 2.740  -02 2.455  +00   15.
 2.761  -02 2.344  +00   14.
 2.781  -02 2.232  +00   13.
 2.802  -02 2.186  +00   14.
 2.824  -02 2.409  +00   13.
 2.845  -02 2.628  +00   12.
 2.867  -02 2.489  +00   16.
 2.889  -02 2.255  +00   14.
 2.911  -02 2.250  +00   14.
 2.934  -02 2.853  +00   13.
 2.957  -02 3.160  +00   13.
 2.980  -02 2.583  +00   14.
 3.003  -02 2.561  +00   14.
 3.027  -02 2.892  +00   12.
 3.050  -02 2.928  +00   19.
 3.075  -02 2.521  +00   13.
 3.099  -02 2.442  +00   13.
 3.124  -02 2.081  +00   15.
 3.200  -02 3.273  +00   24.
 3.226  -02 2.708  +00   12.
 3.252  -02 2.467  +00   14.
 3.279  -02 3.164  +00   15.
 3.306  -02 2.934  +00   17.
 3.333  -02 3.195  +00   15.
 3.360  -02 2.928  +00   14.
 3.388  -02 2.806  +00   14.
 3.417  -02 2.524  +00   14.
 3.445  -02 2.264  +00   17.
 3.474  -02 2.308  +00   15.
 3.504  -02 2.607  +00   12.
 3.534  -02 2.278  +00   14.
 3.564  -02 2.491  +00   13.
 3.594  -02 2.631  +00   13.
 3.625  -02 2.734  +00   16.
 3.657  -02 2.693  +00   14.
 3.688  -02 2.768  +00   13.
 3.720  -02 2.761  +00   15.
 3.753  -02 2.910  +00   21.
 3.786  -02 2.866  +00   13.
 3.819  -02 2.800  +00   14.
 3.853  -02 2.894  +00   13.
 3.888  -02 2.670  +00   13.
 3.923  -02 2.972  +00   13.
 3.958  -02 2.735  +00   13.
 3.994  -02 2.508  +00   13.
 4.030  -02 2.808  +00   13.
 4.067  -02 2.520  +00   14.
 4.104  -02 2.778  +00   13.
 4.142  -02 2.633  +00   13.
 4.180  -02 1.998  +00   14.
 4.219  -02 3.200  +00   24.
 4.258  -02 3.191  +00   18.
 4.298  -02 3.009  +00   14.
 4.339  -02 2.506  +00   20.
 4.380  -02 2.849  +00   17.
 4.421  -02 3.145  +00   12.
 4.464  -02 2.714  +00   13.
 4.506  -02 2.674  +00   13.
 4.550  -02 2.357  +00   13.
 4.594  -02 2.194  +00   13.
 4.639  -02 2.310  +00   13.
 4.684  -02 2.565  +00   13.
 4.730  -02 2.538  +00   16.
 4.777  -02 2.235  +00   15.
 4.825  -02 2.469  +00   12.
 4.873  -02 2.615  +00   13.
 4.922  -02 2.210  +00   18.
 4.972  -02 1.980  +00   13.
 5.022  -02 2.077  +00   13.
 5.073  -02 2.259  +00   13.
 5.125  -02 2.315  +00   12.
 5.178  -02 2.375  +00   16.
 5.232  -02 2.075  +00   13.
 5.286  -02 2.117  +00   12.
 5.341  -02 1.997  +00   12.
 5.398  -02 2.015  +00   12.
 5.455  -02 2.242  +00   13.
 5.513  -02 1.989  +00   13.
 5.572  -02 1.868  +00   12.
 5.632  -02 1.869  +00   13.
 5.692  -02 2.074  +00   12.
 5.754  -02 2.232  +00   14.
 6.012  -02 2.116  +00   14.
 6.079  -02 2.063  +00   14.
 6.148  -02 2.123  +00   14.
 6.217  -02 2.163  +00   14.
 6.288  -02 2.343  +00   14.
 6.360  -02 2.685  +00   13.
 6.433  -02 2.659  +00   18.
 6.507  -02 2.399  +00   15.
 6.583  -02 2.418  +00   15.
 6.660  -02 2.296  +00   18.
 6.738  -02 2.329  +00   15.
 6.818  -02 1.875  +00   16.
 6.899  -02 2.547  +00   17.
 6.982  -02 2.668  +00   14.
 7.066  -02 2.200  +00   15.
 7.152  -02 2.826  +00   16.
 7.239  -02 2.809  +00   14.
 7.328  -02 2.634  +00   14.
 7.419  -02 2.639  +00   15.
 7.511  -02 2.637  +00   17.
 7.605  -02 2.810  +00   17.
 7.701  -02 2.207  +00   13.
 7.798  -02 2.225  +00   18.
 7.898  -02 2.392  +00   12.
 7.999  -02 2.328  +00   14.
 8.103  -02 2.410  +00   17.
 8.208  -02 2.786  +00   16.
 8.316  -02 2.522  +00   17.
 8.425  -02 2.634  +00   17.
 8.537  -02 2.837  +00   14.
 8.651  -02 2.719  +00   17.
 8.767  -02 2.974  +00   14.
 8.886  -02 2.403  +00   14.
 9.007  -02 2.582  +00   17.
 9.131  -02 2.434  +00   15.
 9.257  -02 2.638  +00   17.
 9.386  -02 2.737  +00   16.
 9.518  -02 2.371  +00   14.
 9.652  -02 2.042  +00   14.
 9.789  -02 2.034  +00   16.
 9.929  -02 2.177  +00   18.
 1.004  -01 1.991  +00   17.
 1.018  -01 1.933  +00   14.
 1.033  -01 1.973  +00   14.
 1.048  -01 1.948  +00   11.
 1.064  -01 2.094  +00   11.
 1.080  -01 1.861  +00   11.
 1.096  -01 2.021  +00   11.
 1.113  -01 2.057  +00   11.
 1.130  -01 2.025  +00   14.
 1.147  -01 2.199  +00   11.
 1.165  -01 2.389  +00   12.
 1.183  -01 2.164  +00   12.
 1.202  -01 2.319  +00   11.
 1.221  -01 1.974  +00   11.
 1.241  -01 1.964  +00   12.
 1.261  -01 1.644  +00   11.
 1.281  -01 2.123  +00   12.
 1.302  -01 2.118  +00   12.
 1.324  -01 2.149  +00   11.
 1.346  -01 2.021  +00   11.
 1.369  -01 1.997  +00   12.
 1.392  -01 2.129  +00   11.
 1.416  -01 2.137  +00   16.
 1.491  -01 2.222  +00   17.
 1.518  -01 1.837  +00   17.
 1.545  -01 2.182  +00   24.
 1.573  -01 2.089  +00   22.
 3.550  -01 1.502  +00   15.
 3.648  -01 1.729  +00   15.
 3.751  -01 1.723  +00   15.
 3.859  -01 1.750  +00   20.
 3.971  -01 1.751  +00   15.
 4.088  -01 1.603  +00   20.
 4.211  -01 1.553  +00   16.
 4.339  -01 1.522  +00   20.
 4.473  -01 1.601  +00   15.
 4.613  -01 1.492  +00   14.
 4.761  -01 1.541  +00   21.
 4.915  -01 1.301  +00   14.
 5.077  -01 1.317  +00   21.
 5.248  -01 1.396  +00   15.
 5.427  -01 1.495  +00   15.
 5.615  -01 1.314  +00   15.
 5.814  -01 1.413  +00   13.
 6.024  -01 1.229  +00   19.
 6.245  -01 1.383  +00   13.
 6.479  -01 1.456  +00   13.
 6.726  -01 1.535  +00   19.
 6.988  -01 1.325  +00   12.
 7.265  -01 1.344  +00   14.
 8.562  -01 1.506  +00   14.
 8.941  -01 1.562  +00   14.
 9.346  -01 1.653  +00   12.
 9.780  -01 1.688  +00   14.
ENDDATA           2556
ENDSUBENT         2563
SUBENT        12553003     841024
BIB                  5          8
REACTION  1(94-PU-241(N,0),,EN)
          2(94-PU-241(N,EL),,WID/RED,,RM/2G)
          3(94-PU-241(N,F),1,WID,,RM)
          4(94-PU-241(N,F),2,WID,,RM)
ANALYSIS   (MLA) MULTI-LEVEL ANALYSIS
ASSUMED    (ASSUM,94-PU-241(N,G),,WID,,RM)
FLAG       (1.)  WEAK  RESONANCES
HISTORY    (841024A) DATA SORTED.
ENDBIB               8
COMMON               2          3
MOMENTUM L ASSUM
NO-DIM     MILLI-EV
  0.        40.
ENDCOMMON            3
DATA                 5         56
DATA      1DATA      2DATA      3DATA      4FLAG
EV         MILLI-EV   MILLI-EV   MILLI-EV   NO-DIM
 14.73       1.6100                135.
 20.38       0.0300                 10.
 20.70       0.1700                 35.
 21.05       0.0130               -300.
 21.70       0.0000      150.                1.0
 21.85       0.0100                -20.
 22.50       0.0001                200.      1.0
 22.99       0.2450                280.
 23.66       0.1400      450.
 24.04       0.2600                -70.
 24.57       0.0130     -100.
 24.72       0.0040                250.
 25.64       0.0010      -50.                1.0
 26.32       1.0400                270.
 27.27       0.0010                750.      1.0
 27.34       0.0080      300.
 28.68       1.0600      750.
 29.59       0.0880      -50.
 30.05       0.0000                -20.
 30.91       0.4700                220.
 32.38       0.0030                 50.
 33.27       0.0440               -150.
 33.37       0.0100       50.
 33.65       0.0630               -100.
 34.15       0.0200                300.      1.0
 34.72       0.3400     -900.
 36.00       0.0340      500.
 36.65       0.0000      900.                1.0
 37.37       0.0370               -500.
 38.08       0.0900                230.
 38.40       0.0200                 10.      1.0
 38.50       0.0120      400.                1.0
 39.22       0.2500               -160.
 39.80       0.2600                 50.
 40.30       0.0010                -50.      1.0
 40.88       0.3800    -1200.
 42.16       0.0050       50.
 42.57       0.0530               -250.
 43.37       0.0340                 50.
 43.85       0.0000                 20.      1.0
 44.30       0.0070                  5.
 46.38       0.3100     -280.
 47.05       0.0200      300.
 47.95       1.0500                480.
 50.14       0.0900      300.
 50.90       0.0050     -300.                1.0
 51.90       0.0050       50.
 52.60       0.0010     -200.                1.0
 53.40       0.0000                300.      1.0
 54.15       0.0030                500.
 55.40       0.0026      300.
 58.02       0.3200     -700.
 59.18       0.2900      550.
 60.26       0.7200               -160.
 61.30       0.0100       50.                1.0
 62.08       0.8600     -650.
ENDDATA             58
ENDSUBENT           75
ENDENTRY             3
