ENTRY            13135   20220822   20230113   20230110       1500
SUBENT        13135001   20220822   20230113   20230110       1500
BIB                 11         19
INSTITUTE  (1USAANL)
REFERENCE  (J,NP/A,493,267,1989)
           (R,ANL-NDM-106,1988)
AUTHOR     (R.D.Lawson,P.T.Guenther,A.B.Smith)
TITLE      Neutron scattering and the Fermi surface anomaly in
           51V.
FACILITY   (DYNAM,1USAANL) Tandem dynamitron
INC-SOURCE (D-D)
METHOD     (TOF)
SAMPLE     Chemically pure V metal, solid cylinders, 2 cm diam.,
            2 cm long
MONITOR    (1-H-1(N,EL)1-H-1,,SIG)
STATUS     (TABLE) Data received via electronic mail 88/7/11
           (APRVD) A.B.Smith, 88/12/21.
HISTORY    (19881115C)
           (19891106A) Reference update.
           (20220702A) OS. Data format in sub.3 corrected,
            updated ERR-ANALYS, added SAMPLE, converted to lower
            case.
ENDBIB              19
NOCOMMON             0          0
ENDSUBENT           22
SUBENT        13135002   20220822   20230113   20230110       1500
BIB                  3         12
REACTION   (23-V-0(N,EL)23-V-0,,DA)
ERR-ANALYS (ERR-S,1.) Statistical uncertainties varied from < 1%
            in regions of large cross sections, to > 10% at the
            minima of the distributions
           (ERR-SYS,,3.) Systematic uncertainties estimated <= 3%,
            arising primarily from absolute calibration of
            detectors
           (ERR-1,1.) Uncertainty due to correction procedures
            generally <= 1%, except at minima of distributions
            where they may be considerably larger
           (ERR-T) Total uncertainty
COMMENT    Multiple measurements at same angle
ENDBIB              12
NOCOMMON             0          0
DATA                 4        520
EN         ANG        DATA       ERR-T
MEV        ADEG       B/SR       PER-CENT
  4.5000    19.400001   1.570000  3.000000
  4.5000    24.299997   1.320000  3.000000
  4.5000    26.300001   1.260000  3.000000
  4.5000    27.200001   1.170000  3.000000
  4.5000    29.200000   1.100000  3.000000
  4.5000    34.199995    .848000  3.000000
  4.5000    37.199998    .707000  3.000000
  4.5000    42.100000    .487000  3.000000
  4.5000    45.100003    .383000  3.000000
  4.5000    50.100005    .247000  3.000000
  4.5000    53.099990    .183000  3.280000
  4.5000    57.599998    .115000  5.220001
  4.5000    60.599995    .079500  7.550000
  4.5000    65.600002    .046000 13.000000
  4.5000    68.499994    .037300 16.099998
  4.5000    73.000002    .031000 19.400001
  4.5000    75.999999    .032000 18.799999
  4.5000    80.999994    .034800 17.199999
  4.5000    84.000003    .042500 14.100000
  4.5000    88.499999    .049100 12.200001
  4.5000    91.499996    .057700 10.400000
  4.5000    96.500003    .068300  8.780000
  4.5000    99.500000    .072100  8.320000
  4.5000   104.000002    .076300  7.860000
  4.5000   106.999993    .076800  7.810000
  4.5000   111.999989    .075200  7.980000
  4.5000   115.000010    .072300  8.299999
  4.5000   119.000000    .065300  9.190000
  4.5000   122.000009    .064300  9.330000
  4.5000   127.000004    .053300 11.299999
  4.5000   129.999995    .048700 12.300000
  4.5000   134.999990    .042700 14.100000
  4.5000   138.000011    .037900 15.799999
  4.5000   143.000007    .032800 18.300000
  4.5000   145.000011    .031600 19.000000
  4.5000   145.999998    .030500 19.700000
  4.5000   148.000002    .030600 19.599998
  4.5000   152.999997    .032700 18.300000
  4.5000   155.999988    .033300 18.000001
  5.0000    16.400000   1.720000  3.040000
  5.0000    19.400001   1.620000  3.060000
  5.0000    24.299997   1.340000  3.110000
  5.0000    26.300001   1.240000  3.130000
  5.0000    27.200001   1.130000  3.140000
  5.0000    29.200000   1.090000  3.170000
  5.0000    34.199995    .812000  3.260000
  5.0000    37.199998    .648000  3.330000
  5.0000    42.100000    .439000  3.450000
  5.0000    45.100003    .340000  3.540000
  5.0000    50.100005    .213000  3.700000
  5.0000    53.099990    .141000  3.800000
  5.0000    57.599998    .087200  4.590000
  5.0000    60.599995    .059400  6.730000
  5.0000    65.600002    .032300 12.399999
  5.0000    68.499994    .023200 17.199999
  5.0000    73.000002    .020400 19.599998
  5.0000    75.999999    .021400 18.700001
  5.0000    80.999994    .027400 14.600000
  5.0000    84.000003    .034500 11.600001
  5.0000    88.499999    .043400  9.219999
  5.0000    91.499996    .051900  7.710000
  5.0000    96.500003    .058200  6.870000
  5.0000    99.500000    .062300  6.420000
  5.0000   104.000002    .065400  6.120000
  5.0000   106.999993    .066100  6.050000
  5.0000   111.999989    .064100  6.240000
  5.0000   115.000010    .059000  6.780000
  5.0000   119.000000    .051700  7.739999
  5.0000   122.000009    .049500  8.080000
  5.0000   127.000004    .042500  9.410000
  5.0000   129.999995    .036400 10.999998
  5.0000   134.999990    .030900 12.900001
  5.0000   138.000011    .028700 13.900000
  5.0000   143.000007    .024900 16.099998
  5.0000   145.000011    .023800 16.799998
  5.0000   145.999998    .023600 16.900000
  5.0000   148.000002    .023900 16.700000
  5.0000   152.999997    .025300 15.799999
  5.0000   155.999988    .026100 15.300000
  5.5000    17.800000   1.700000  3.000000
  5.5000    20.700002   1.560000  3.000000
  5.5000    25.599998   1.250000  3.000000
  5.5000    27.599996   1.140000  3.000000
  5.5000    28.599995   1.060000  3.000000
  5.5000    30.900002    .962000  3.000000
  5.5000    35.500002    .692000  3.000000
  5.5000    38.499999    .536000  3.000000
  5.5000    43.500006    .354000  3.000000
  5.5000    46.499997    .271000  3.000000
  5.5000    51.499999    .156000  3.000000
  5.5000    54.499996    .106000  3.000000
  5.5000    58.899999    .059800  3.340000
  5.5000    61.900008    .036900  5.420001
  5.5000    66.899991    .018800 10.599999
  5.5000    69.899988    .013500 14.800000
  5.5000    74.399996    .013500 14.800000
  5.5000    77.399993    .017600 11.399999
  5.5000    82.399988    .024400  8.200001
  5.5000    85.399997    .031900  6.270001
  5.5000    89.899993    .037300  5.360000
  5.5000    92.899990    .043500  4.600000
  5.5000    97.899997    .050900  3.930000
  5.5000   100.999993    .050200  3.980000
  5.5000   104.999989    .051700  3.870000
  5.5000   107.999992    .054100  3.700000
  5.5000   113.000005    .049900  4.010000
  5.5000   116.000009    .046500  4.300000
  5.5000   121.000004    .041800  4.780000
  5.5000   123.999995    .037400  5.350001
  5.5000   129.000008    .031800  6.289999
  5.5000   131.999999    .027600  7.250000
  5.5000   135.999978    .025700  7.780000
  5.5000   138.999999    .022400  8.930000
  5.5000   143.999994    .023000  8.700001
  5.5000   145.999998    .022900  8.729999
  5.5000   147.000015    .023000  8.700001
  5.5000   148.999989    .021700  9.219999
  5.5000   153.999984    .025400  7.869999
  5.5000   157.000005    .026400  7.580000
  5.9000    17.300001   1.860000  9.059999
  5.9000    20.299998   1.650000  8.090000
  5.9000    25.199997   1.450000  8.160000
  5.9000    27.200001   1.210000  7.190000
  5.9000    28.200001   1.080000  6.210001
  5.9000    30.100000   1.020000  5.250000
  5.9000    35.099995    .769000  3.360000
  5.9000    38.099998    .545000  3.430000
  5.9000    43.099993    .382000  3.550000
  5.9000    46.000004    .280000  3.620000
  5.9000    50.999999    .167000  3.740000
  5.9000    53.999996    .094600  3.840000
  5.9000    58.500004    .069000  4.030000
  5.9000    61.500001    .042900  4.660000
  5.9000    66.499996    .022800  8.770001
  5.9000    69.500005    .014600 13.700002
  5.9000    74.000001    .012300 16.299999
  5.9000    76.899993    .013900 14.399999
  5.9000    81.899989    .021500  9.299999
  5.9000    84.899998    .025600  7.810000
  5.9000    89.399993    .033300  6.010001
  5.9000    92.399991    .035600  5.620000
  5.9000    97.399998    .045900  4.360000
  5.9000    99.999994    .044700  4.470000
  5.9000   104.999989    .047100  4.250000
  5.9000   107.999992    .047800  4.180000
  5.9000   113.000005    .047600  4.200000
  5.9000   116.000009    .043800  4.570000
  5.9000   120.000005    .040000  5.000000
  5.9000   122.999996    .037100  5.390000
  5.9000   127.999991    .032500  6.150000
  5.9000   130.999982    .027000  7.409999
  5.9000   135.999978    .021000  9.520000
  5.9000   138.999999    .019100 10.499999
  5.9000   143.999994    .019300 10.400000
  5.9000   145.999998    .017400 11.500001
  5.9000   147.000015    .019800 10.099999
  5.9000   148.999989    .019100 10.499999
  5.9000   153.999984    .022200  9.010000
  5.9000   157.000005    .022300  8.970000
  6.5000    17.300001   1.950000  3.110000
  6.5000    20.199999   1.740000  3.160000
  6.5000    25.199997   1.450000  3.270000
  6.5000    27.100003   1.240000  3.320000
  6.5000    28.100002   1.190000  3.350000
  6.5000    30.100000   1.010000  3.420000
  6.5000    35.099995    .752000  3.630000
  6.5000    38.099998    .570000  3.770000
  6.5000    43.000001    .335000  4.040000
  6.5000    46.000004    .235000  4.210000
  6.5000    50.999999    .136000  4.470000
  6.5000    53.999996    .085500  4.570000
  6.5000    58.500004    .051400  4.600000
  6.5000    61.500001    .030200  4.740000
  6.5000    66.499996    .015000  7.279999
  6.5000    69.399989    .012000  8.620001
  6.5000    73.899996    .008800 11.399999
  6.5000    76.899993    .011600  8.690001
  6.5000    81.899989    .016100  6.520001
  6.5000    84.899998    .018500  5.740000
  6.5000    89.399993    .023400  4.529999
  6.5000    92.399991    .029100  3.640000
  6.5000    97.399998    .034500  3.100000
  6.5000   100.999993    .037500  3.040000
  6.5000   104.999989    .040700  3.020000
  6.5000   107.999992    .041700  3.000000
  6.5000   113.000005    .042500  3.000000
  6.5000   116.000009    .040400  3.010000
  6.5000   120.000005    .036400  3.050000
  6.5000   122.999996    .034300  3.100000
  6.5000   127.999991    .030200  3.470000
  6.5000   130.999982    .025000  4.160000
  6.5000   135.999978    .019400  5.250000
  6.5000   138.999999    .018100  5.569999
  6.5000   143.999994    .016700  5.990000
  6.5000   145.999998    .015900  6.300000
  6.5000   147.000015    .016100  6.229999
  6.5000   148.999989    .018300  5.510000
  6.5000   153.999984    .022100  4.680001
  6.5000   157.000005    .025100  4.200000
  7.1400    17.800000   1.820000  9.100001
  7.1400    20.700002   1.540000  8.139999
  7.1400    25.599998   1.240000  7.229999
  7.1400    27.599996   1.090000  6.280000
  7.1400    28.599995   1.010000  5.300000
  7.1400    30.900002    .822000  4.360000
  7.1400    35.500002    .585000  3.510000
  7.1400    38.499999    .436000  3.630000
  7.1400    43.500006    .255000  3.850000
  7.1400    46.499997    .155000  4.000000
  7.1400    51.499999    .090100  4.220001
  7.1400    54.499996    .053100  4.260000
  7.1400    58.899999    .030500  6.560000
  7.1400    61.900008    .019600 10.200000
  7.1400    66.899991    .014900 13.400000
  7.1400    69.899988    .012200 16.400000
  7.1400    74.399996    .010800 18.500000
  7.1400    77.399993    .011000 18.200001
  7.1400    82.399988    .014300 14.000002
  7.1400    85.399997    .017200 11.600001
  7.1400    89.899993    .021500  9.299999
  7.1400    92.899990    .023900  8.370001
  7.1400    97.899997    .030500  6.560000
  7.1400   100.999993    .033700  5.930001
  7.1400   104.999989    .034300  5.829999
  7.1400   107.999992    .036900  5.420001
  7.1400   113.000005    .037700  5.310000
  7.1400   116.000009    .037000  5.410000
  7.1400   121.000004    .032300  6.190000
  7.1400   123.999995    .027700  7.220000
  7.1400   129.000008    .023000  8.700001
  7.1400   131.999999    .019900 10.099999
  7.1400   135.999978    .018100 10.999998
  7.1400   138.999999    .016800 11.900000
  7.1400   143.999994    .018900 10.599999
  7.1400   145.999998    .017100 11.700001
  7.1400   147.000015    .019700 10.200000
  7.1400   148.999989    .018100 10.999998
  7.1400   153.999984    .024200  8.260000
  7.1400   157.000005    .025700  7.780000
  7.5000    16.299999   1.890000  3.300000
  7.5000    24.200001   1.240000  3.630000
  7.5000    26.099998   1.040000  3.730000
  7.5000    27.100003   1.050000  3.790000
  7.5000    29.100001    .919000  3.900000
  7.5000    34.099996    .525000  4.200000
  7.5000    37.099999    .405000  4.399999
  7.5000    41.999996    .238000  4.710000
  7.5000    44.999999    .175000  4.880000
  7.5000    50.000000    .077200  5.080000
  7.5000    52.999997    .051200  5.120000
  7.5000    57.500005    .030500  6.560000
  7.5000    60.500002    .020800  9.620001
  7.5000    65.499997    .011800 16.900000
  7.5000    68.399990    .011200 17.900002
  7.5000    72.899997    .010600 18.900001
  7.5000    75.899994    .011800 16.900000
  7.5000    80.899990    .013100 15.300000
  7.5000    83.899999    .015200 13.200003
  7.5000    88.399994    .019800 10.099999
  7.5000    91.399992    .023100  8.659999
  7.5000    96.399999    .026500  7.550000
  7.5000    99.399996    .030900  6.470001
  7.5000   104.000002    .032300  6.190000
  7.5000   105.999988    .035000  5.710000
  7.5000   110.999984    .032800  6.100000
  7.5000   114.000005    .031900  6.270001
  7.5000   119.000000    .029800  6.710000
  7.5000   122.000009    .027900  7.170000
  7.5000   127.000004    .019900 10.099999
  7.5000   130.999982    .018400 10.900000
  7.5000   134.000003    .015600 12.799999
  7.5000   136.999995    .015300 13.099998
  7.5000   142.000020    .015500 12.900001
  7.5000   143.999994    .017100 11.700001
  7.5000   145.999998    .018500 10.799999
  7.5000   147.000015    .020700  9.660000
  7.5000   152.999997    .024800  8.060000
  8.0300    16.599998   1.910000  9.090000
  8.0300    19.499999   1.690000  9.129999
  8.0300    24.499997   1.300000  8.230000
  8.0300    26.400006   1.100000  7.270000
  8.0300    27.400005   1.060000  6.300000
  8.0300    29.400003    .891000  5.350001
  8.0300    34.399998    .589000  4.529999
  8.0300    37.400001    .432000  3.650000
  8.0300    42.300004    .218000  3.870000
  8.0300    45.300007    .146000  3.990000
  8.0300    50.300002    .076100  4.010000
  8.0300    53.299999    .049000  4.080000
  8.0300    57.800007    .027700  7.220000
  8.0300    60.800004    .019300 10.400000
  8.0300    65.799999    .013700 14.600000
  8.0300    68.699992    .011400 17.500001
  8.0300    73.199999    .010600 19.999999
  8.0300    76.199996    .010900 18.300000
  8.0300    81.199992    .011400 17.500001
  8.0300    84.200001    .013500 14.800000
  8.0300    88.699996    .015200 13.200003
  8.0300    91.699994    .019900 10.099999
  8.0300    96.700001    .023900  8.370001
  8.0300    99.699998    .027500  7.270000
  8.0300   104.000002    .029400  6.800001
  8.0300   106.999993    .031700  6.310000
  8.0300   111.999989    .033000  6.060001
  8.0300   115.000010    .031400  6.370000
  8.0300   120.000005    .025600  7.810000
  8.0300   122.999996    .022300  8.970000
  8.0300   127.999991    .018000 11.100001
  8.0300   130.999982    .015200 13.200003
  8.0300   134.999990    .013000 15.399998
  8.0300   138.000011    .013700 14.600000
  8.0300   143.000007    .015500 12.900001
  8.0300   145.000011    .017400 11.500001
  8.0300   145.999998    .018300 10.900000
  8.0300   148.000002    .020900  9.570000
  8.0300   152.999997    .030400  6.580000
  8.0300   155.999988    .033300  6.010001
  8.4000    18.900001   1.690000  9.000000
  8.4000    21.799999   1.440000  8.000000
  8.4000    26.700002   1.020000  7.000000
  8.4000    28.700000    .878000  6.000000
  8.4000    29.700005    .783000  5.000000
  8.4000    31.999999    .671000  4.000000
  8.4000    36.699998    .396000  3.000000
  8.4000    39.600003    .271000  3.000000
  8.4000    44.599998    .152000  3.000000
  8.4000    47.600001    .093600  3.000000
  8.4000    52.600002    .044300  4.510000
  8.4000    55.599999    .028600  6.990000
  8.4000    60.100007    .016200 12.300000
  8.4000    63.099992    .012600 15.899998
  8.4000    67.999995    .010900 18.300000
  8.4000    71.000004    .009800 20.400000
  8.4000    75.999999    .011200 17.900002
  8.4000    78.499997    .011800 16.900000
  8.4000    83.500004    .014400 13.900000
  8.4000    86.500001    .016200 12.300000
  8.4000    90.999997    .018200 10.999998
  8.4000    94.000006    .020700  9.660000
  8.4000    99.000001    .024900  8.030001
  8.4000   101.999998    .026600  7.520001
  8.4000   105.999988    .029000  6.899999
  8.4000   109.999985    .029400  6.800001
  8.4000   114.000005    .029000  6.899999
  8.4000   117.000014    .025200  7.939999
  8.4000   122.000009    .022600  8.850000
  8.4000   125.000000    .017800 11.200002
  8.4000   129.999995    .015300 13.099998
  8.4000   132.999986    .012900 15.500000
  8.4000   136.999995    .012100 16.500002
  8.4000   140.000015    .014300 14.000002
  8.4000   145.000011    .016700 12.000000
  8.4000   147.000015    .022600  8.850000
  8.4000   148.000002    .022900  8.729999
  8.4000   150.000006    .028200  7.090000
  8.4000   155.000001    .035300  5.670000
  9.0600    17.099997   1.760000  9.000000
  9.0600    17.900002   1.750000  8.329999
  9.0600    20.099998   1.510000  7.000000
  9.0600    20.800000   1.420000  6.430000
  9.0600    25.000000   1.060000  6.000000
  9.0600    25.700003   1.000000  6.660000
  9.0600    26.999998    .872000  6.000000
  9.0600    27.700001    .860000  6.760000
  9.0600    28.000003    .811000  6.000000
  9.0600    28.700000    .742000  6.819999
  9.0600    30.299997    .668000  6.000000
  9.0600    31.000000    .612000  6.949999
  9.0600    34.900004    .388000  5.000000
  9.0600    35.699999    .376000  4.260000
  9.0600    37.900001    .268000  3.000000
  9.0600    38.599998    .243000  4.460000
  9.0600    42.900002    .136000  3.000000
  9.0600    43.599999    .122000  4.790000
  9.0600    45.899999    .079200  3.000000
  9.0600    46.599996    .073600  4.920000
  9.0600    50.800002    .038900  5.140001
  9.0600    51.600003    .037100  5.580000
  9.0600    53.799999    .025900  7.720001
  9.0600    54.600000    .023400  8.549999
  9.0600    58.299994    .015900 12.599999
  9.0600    59.099996    .018000 11.100001
  9.0600    61.099994    .013600 14.700001
  9.0600    66.299999    .010900 18.300000
  9.0600    66.999996    .012600 15.899998
  9.0600    69.300008    .010800 18.500000
  9.0600    70.000005    .011400 17.500001
  9.0600    74.300003    .010300 19.400001
  9.0600    75.000000    .011500 17.400002
  9.0600    76.800001    .009500 21.099997
  9.0600    77.499998    .010900 18.300000
  9.0600    81.800008    .013100 15.300000
  9.0600    82.500005    .012900 15.500000
  9.0600    84.800005    .013900 14.399999
  9.0600    85.500002    .013900 14.399999
  9.0600    89.199996    .016500 12.100000
  9.0600    89.999998    .015200 13.200003
  9.0600    92.199993    .018900 10.599999
  9.0600    92.999995    .017200 11.700001
  9.0600    97.200000    .022900  8.729999
  9.0600    98.000002    .021800  9.620001
  9.0600    99.999994    .024500  8.160000
  9.0600   100.999993    .023100  8.970000
  9.0600   104.999989    .026500  7.550000
  9.0600   108.999997    .026200  7.630000
  9.0600   113.000005    .022700  8.809999
  9.0600   113.000005    .025600  7.830000
  9.0600   116.000009    .020700  9.660000
  9.0600   116.000009    .023500  8.510001
  9.0600   120.000005    .017900 11.200002
  9.0600   121.000004    .019600 10.200000
  9.0600   122.999996    .015900 12.599999
  9.0600   123.999995    .016800 11.900000
  9.0600   127.999991    .012400 16.099998
  9.0600   129.000008    .012000 16.700000
  9.0600   130.999982    .010300 19.400001
  9.0600   131.999999    .010600 18.900001
  9.0600   135.999978    .011900 16.799998
  9.0600   138.999999    .014100 14.200002
  9.0600   143.999994    .014800 13.499999
  9.0600   143.999994    .017900 11.200002
  9.0600   145.999998    .018400 10.900000
  9.0600   145.999998    .019200 10.400000
  9.0600   147.000015    .018100 10.999998
  9.0600   148.000002    .021000  9.520000
  9.0600   148.999989    .023400  8.590000
  9.0600   153.999984    .028700  7.200000
  9.5000    17.900002   1.550000  3.330000
  9.5000    20.800000   1.320000  3.440000
  9.5000    25.700003    .900000  3.670000
  9.5000    27.700001    .753000  3.780000
  9.5000    28.700000    .651000  3.840000
  9.5000    31.000000    .566000  3.980000
  9.5000    35.699999    .329000  4.320000
  9.5000    38.599998    .214000  4.540000
  9.5000    43.599999    .101000  4.880000
  9.5000    46.599996    .064400  4.930000
  9.5000    51.600003    .031400  6.050000
  9.5000    54.600000    .023400  7.079999
  9.5000    59.099996    .017700  8.850000
  9.5000    62.100005    .015200 10.900000
  9.5000    66.999996    .013000 13.099998
  9.5000    70.000005    .012400 13.900000
  9.5000    74.500000    .010000 18.200001
  9.5000    77.499998    .010600 16.599998
  9.5000    82.500005    .012000 14.800000
  9.5000    85.500002    .012400 15.300000
  9.5000    89.999998    .015200 13.299999
  9.5000    92.999995    .016900 12.300000
  9.5000    98.000002    .020200 10.300000
  9.5000   100.999993    .020500 10.099999
  9.5000   104.999989    .027300  7.840000
  9.5000   108.999997    .026100  7.970001
  9.5000   113.000005    .022100  9.240000
  9.5000   116.000009    .019900 10.300000
  9.5000   121.000004    .015800 12.000000
  9.5000   123.999995    .014500 13.400000
  9.5000   129.000008    .010900 17.000002
  9.5000   131.999999    .010300 17.099997
  9.5000   135.999978    .010200 17.099997
  9.5000   138.999999    .012100 15.500000
  9.5000   143.999994    .018100 10.700002
  9.5000   145.999998    .017200 11.500001
  9.5000   147.000015    .021300  9.469999
  9.5000   148.999989    .018800 10.799999
  9.5000   153.999984    .026400  7.930000
  9.5000   157.000005    .031500  7.149999
  9.9900    22.200003   1.050000  9.000000
  9.9900    27.599996    .715000  8.000000
  9.9900    27.700001    .697000  7.000000
  9.9900    28.700000    .673000  7.000000
  9.9900    31.000000    .494000  6.000000
  9.9900    32.099998    .478000  5.000000
  9.9900    35.699999    .263000  4.100000
  9.9900    37.599999    .242000  3.780000
  9.9900    42.500001    .123000  3.910000
  9.9900    43.599999    .104000  3.880000
  9.9900    46.599996    .067500  3.670000
  9.9900    51.600003    .035400  4.240000
  9.9900    54.600000    .025900  5.790000
  9.9900    58.000004    .020100  6.740000
  9.9900    59.099996    .017300  8.670000
  9.9900    62.100005    .013700 10.900000
  9.9900    63.499999    .012600 10.200000
  9.9900    66.999996    .010100 14.899999
  9.9900    68.899989    .010100 13.200003
  9.9900    70.000005    .009400 15.899998
  9.9900    74.000001    .009900 13.200003
  9.9900    77.999997    .010700 12.599999
  9.9900    83.500004    .013700 10.099999
  9.9900    85.500002    .015800  9.490000
  9.9900    88.899994    .017200  8.750000
  9.9900    89.999998    .018600  8.060000
  9.9900    92.999995    .021800  6.880000
  9.9900    94.399989    .019400  7.890000
  9.9900    98.000002    .025200  5.950000
  9.9900    99.999994    .023500  6.470001
  9.9900   100.999993    .025700  5.840000
  9.9900   104.000002    .024600  6.100000
  9.9900   104.999989    .025100  5.979999
  9.9900   108.999997    .023000  6.520001
  9.9900   109.999985    .020800  7.240000
  9.9900   113.000005    .020400  7.350000
  9.9900   115.000010    .018400  8.350000
  9.9900   116.000009    .016600  9.040000
  9.9900   121.000004    .013600 10.999998
  9.9900   123.999995    .010900 13.799998
  9.9900   125.000000    .011000 13.400000
  9.9900   129.000008    .007400 20.199999
  9.9900   131.999999    .006800 22.100002
  9.9900   134.999990    .009300 15.099999
  9.9900   135.999978    .010100 14.899999
  9.9900   140.000015    .011500 12.599999
  9.9900   143.999994    .015600  9.620001
  9.9900   145.000011    .016200  9.059999
  9.9900   145.999998    .015100  9.799999
  9.9900   145.999998    .018600  8.060000
  9.9900   147.000015    .018500  8.110001
  9.9900   150.000006    .022000  7.170000
  9.9900   155.000001    .030500  5.620000
ENDDATA            522
ENDSUBENT          539
SUBENT        13135003   20220822   20230113   20230110       1500
BIB                  3          3
REACTION   (23-V-0(N,INL)23-V-0,PAR,SIG)
ERR-ANALYS (DATA-ERR) No information on sources of uncertainties
HISTORY    (20220702A) Data format corrected
ENDBIB               3
COMMON               2          3
E-LVL-MIN  E-LVL-MAX
MEV        MEV
 1.6        1.85
ENDCOMMON            3
DATA                 3         12
EN         DATA       DATA-ERR
MEV        B          B
  .4500E+01  .2090E+00  .2090E-01
  .5000E+01  .1450E+00  .1450E-01
  .5500E+01  .1080E+00  .1080E-01
  .5900E+01  .0960E+00  .0960E-01
  .6500E+01  .0639E+00  .0639E-01
  .7100E+01  .0620E+00  .0620E-01
  .7500E+01  .0465E+00  .0465E-01
  .8000E+01  .0441E+00  .0441E-01
  .8400E+01  .0448E+00  .0448E-01
  .9060E+01  .0406E+00  .0406E-01
  .9500E+01  .0316E+00  .0316E-01
  .9999E+01  .0332E+00  .0332E-01
ENDDATA             14
ENDSUBENT           26
ENDENTRY             3
