ENTRY            40418     850329              20050926       0000
SUBENT        40418001     850329              20050926       0000
BIB                  9         14
INSTITUTE  (4CCPRI)
REFERENCE  (C,73KIEV,4,138,7305) PRELIMINARY DATA
           (C,77KIEV,3,197,7704) CURVE IS GIVEN UNTIL 10 MEV
           (P,YFI-25,43,7712)    DATA FOR  0.015 - 2.14 MEV
AUTHOR     (M.V.BLINOV,V.A.VITENKO,V.T.TUZ,N.M.KAZARINOV,
           I.T.KRISJUK)
TITLE       MEASUREMENT OF NEUTRON SPECTRUM FROM SPONTANEOUS
            FISSION OF CF-252 IN A BROAD ENERGY RANGE
METHOD     (TOF)  TIME-OF-FLIGHT
DETECTOR   (SOLST)  LI-J CRYSTAL WIT EU - LIJ(EU)
           (IOCH)   IONIZATION CHAMBER WITH U-235 FILMS
MONITOR     NO INFORMATION
HISTORY    (790208C)
ERR-ANALYS (DATA-ERR)  STATISTICAL ERROR
ENDBIB              14
NOCOMMON             0          0
ENDSUBENT           17
SUBENT        40418002     850329              20050926       0000
BIB                  2          4
REACTION   (98-CF-252(0,F),,DE,N,REL) REFERENCE QUANTITY NOT GIVEN
INC-SPECT   ENERGY SPECTRUM IS PRACTICALLI MAXWELLIAN WITH
            TEMPERATURE 1.38 MEV+-7.PERCENT FOR LIJ DETECTOR
            AND 1.41+-0.03MEV FORIONIZATION CHAMBER DETECTOR
ENDBIB               4
NOCOMMON             0          0
DATA                 3         29
E          DATA       DATA-ERR
MEV        ARB-UNITS  ARB-UNITS
 1.5000E-02 1.1400E+02 2.0000E+01
 2.5000E-02 1.5200E+02 1.8000E+01
 4.0000E-02 1.9300E+02 1.6000E+01
 6.7000E-02 2.4000E+02 1.6000E+01
 9.0000E-02 2.6500E+02 1.7000E+01
 1.1300E-01 2.9000E+02 1.7000E+01
 1.2700E-01 3.4000E+02 1.5000E+01
 1.6300E-01 3.5600E+02 1.3000E+01
 1.9700E-01 3.8300E+02 1.2000E+01
 2.4300E-01 3.9000E+02 8.0000E+00
 2.6000E-01 4.0200E+02 8.0000E+00
 2.8800E-01 4.3000E+02 9.0000E+00
 3.1700E-01 4.6200E+02 1.0000E+01
 3.5200E-01 4.6000E+02 1.2000E+01
 3.9200E-01 4.9600E+02 1.4000E+01
 4.3800E-01 5.0800E+02 1.6000E+01
 4.9700E-01 4.9500E+02 1.5000E+01
 5.7000E-01 5.0500E+02 1.5000E+01
 6.5000E-01 5.2300E+02 1.4000E+01
 7.4200E-01 5.2900E+02 1.4000E+01
 8.4600E-01 5.0400E+02 1.3000E+01
 9.7000E-01 5.0200E+02 1.3000E+01
 1.1200E+00 4.7500E+02 1.2000E+01
 1.2200E+00 4.6600E+02 1.1000E+01
 1.3500E+00 4.4000E+02 1.0000E+01
 1.5000E+00 4.2800E+02 9.0000E+00
 1.6800E+00 3.8100E+02 8.0000E+00
 1.8800E+00 3.6100E+02 7.0000E+00
 2.1400E+00 3.3000E+02 6.0000E+00
ENDDATA             31
ENDSUBENT           40
ENDENTRY             2
