ENTRY            A1026   19990319   19990505
SUBENT        A1026001   19990319   19990505
BIB                  9         20
INSTITUTE  (2UK MAN,2FR SAC)
REFERENCE  (J,NP/A,107,(3),624,196801)
AUTHOR     (G.S.MANI,A.TARRATTS)
TITLE      Elastic scattering of deuterons by alpha particles
FACILITY   (VDGT,2FR SAC)
SAMPLE     The gas target
DETECTOR   (CSICR)
           (SCIN)
           (SOLST)
ERR-ANALYS (DATA-ERR) Graph bars (where they were given) and
           digitizing errors.
           (ERR-1) The angle-independent errors
           (DATA-ERR1) Errors from background subtraction and
           statistics of counts in the forward angles
           (DATA-ERR2) Errors from background subtraction and
           statistics of counts in the some backward angles
           (ERR-T) The total error on the average
           (DATA-ERR3) The total error in the few cases
HISTORY    (19810309C) Compilation produced by Arzamas RFNC-VNIIEF
           (19990115U)CNPD: corrected 4-dig. year and lower cases.
ENDBIB              20
COMMON               5          3
ERR-1      DATA-ERR1  DATA-ERR2  ERR-T      DATA-ERR3
PER-CENT   PER-CENT   PER-CENT   PER-CENT   PER-CENT
  2.2        1.0        5.0        5.3        7.5
ENDCOMMON            3
ENDSUBENT           27
SUBENT        A1026002   19990319   19990505
BIB                  3          3
REACTION   (2-HE-4(D,EL)2-HE-4,,DA,,,EXP)
ERR-ANALYS (EN-ERR) Digitizing error
STATUS     (CURVE) Fig 2
ENDBIB               3
COMMON               1          3
EN-ERR
MEV
 0.1
ENDCOMMON            3
DATA                 4        954
EN         ANG-CM     DATA-CM    DATA-ERR
MEV        ADEG       MB/SR      MB/SR
     3.038    137.5      118.2        7.072
     3.075     47.15     106.9        1.028
     3.091    160.6      102.         2.336
     3.121     50.36      98.84       2.327
     3.128    164.5      100.4        2.327
     3.133     64.23      80.23       3.48
     3.14      98.78      62.8        3.48
     3.145    120.1       81.39       2.317
     3.16      47.15      98.27       1.028
     3.16      93.18      66.28       1.17
     3.165     69.9       73.25       3.487
     3.165    129.3       82.55       1.162
     3.176     87.23      64.13       0.0072
     3.178    133.6       93.02       2.333
     3.181    115.1       84.89       1.162
     3.222    137.5      108.8        4.712
     3.243    115.1       79.09       1.162
     3.256    160.6      118.4        9.39
     3.282    129.3       80.24       4.65
     3.291    109.8       47.21       0.78
     3.298    164.5      109.8        7.003
     3.317     98.78      58.17       1.162
     3.321    120.1       77.92       1.162
     3.333     47.15      99.99       1.028
     3.337     93.18      61.66       1.162
     3.342     69.9       69.79       2.325
     3.346    133.6      100.         5.821
     3.354     50.36      96.55       3.488
     3.355     87.23      57.64       1.086
     3.359    115.1       79.1        1.162
     3.359    160.6      139.5        7.039
     3.367     64.23      76.77       2.325
     3.395    129.3       84.91       3.488
     3.402    164.5      128.5        2.342
     3.449    129.3       89.57       4.658
     3.456    137.5      112.4        3.52
     3.46     133.6      102.4        6.991
     3.464    109.8       43.04       0.78
     3.471     50.36      94.24       4.651
     3.473    115.1       81.44       1.162
     3.476     87.23      50.04       1.086
     3.497    120.1       75.62       1.162
     3.505    164.5      149.5        9.338
     3.507     47.15     105.2        1.028
     3.523     69.9       59.35       2.325
     3.544     64.23      72.15       2.317
     3.55     109.8       43.03       0.78
     3.551     98.78      54.71       1.162
     3.566    137.5      123.         7.056
     3.57      93.18      60.52       1.162
     3.583    160.6      155.9        7.031
     3.585    164.5      199.7       11.68
     3.587     50.36      94.26       6.977
     3.619    129.3       94.24       2.333
     3.637     69.9       61.69       4.649
     3.65      87.23      50.06       1.086
     3.661     64.23      69.84       4.65
     3.661     98.78      46.59       1.162
     3.669    120.1       77.97       1.162
     3.672    160.6      194.6       11.72
     3.673     98.78      62.87       2.333
     3.68      47.15     108.6        1.028
     3.69     133.6      104.7        9.301
     3.691     93.18      53.56       1.162
     3.703    115.1       82.64       1.162
     3.723    109.8       38.86       0.78
     3.731    137.5      139.5        9.408
     3.756     50.36     101.3        4.659
     3.766    160.6      226.3       14.08
     3.768     47.15     118.9        1.028
     3.777     64.23      69.85       3.495
     3.785    120.1       76.82       1.162
     3.785    129.3      104.7        3.496
     3.786     98.78      51.26       1.162
     3.792    164.5      238.2       15.18
     3.812     93.18      46.61       1.162
     3.813     69.9       59.39       1.16
     3.817    115.1       84.98       1.162
     3.829     87.23      43.57       1.086
     3.835    137.5      158.3       10.58
     3.893     64.23      69.87       5.82
     3.896    109.8       40.24       0.78
     3.908     75.51      46.76       1.11
     3.909    133.6      121.         6.968
     3.934    115.1       83.83       1.162
     3.938     50.36      89.65      24.43
     3.941     47.15     124.1        1.028
     3.954    120.1       83.82       1.162
     3.959    129.3      104.8        4.65
     3.968    164.5      279.1       15.17
     3.983    109.8       44.4        0.78
     3.987     69.9       58.25      15.11
     3.998    164.5      318.8       17.52
     4.004     87.23      41.42       1.086
     4.013    120.1       81.5        1.162
     4.013    133.6      137.3        4.65
     4.039     50.36     109.4        5.822
     4.045     93.18      44.31       1.162
     4.055    160.6      313.        16.42
     4.063    137.5      170.1        9.408
     4.066     87.23      37.08       1.086
     4.068    109.8       37.46       0.78
     4.07      64.23      65.24       2.325
     4.07     109.8       45.79       0.78
     4.086     75.51      42.34       1.11
     4.103     69.9       58.27       1.16
     4.108    115.1       83.85       1.162
     4.115     47.15     129.3        1.028
     4.121    129.3      119.9        4.643
     4.127    120.1       83.84       1.162
     4.138     98.78      44.33       1.162
     4.144     50.36     123.4        3.504
     4.155    109.8       40.23       0.78
     4.171    137.5      184.2        7.056
     4.179    133.6      147.8        5.813
     4.2       75.51      43.47       1.11
     4.217     93.18      46.66       1.162
     4.228    133.6      159.4        5.829
     4.235    129.3      122.2        4.658
     4.236     69.9       35.04       1.16
     4.239     64.23      71.08       1.162
     4.245    120.1       81.53       1.162
     4.273     93.18      48.99       1.162
     4.28     115.1       86.2        1.162
     4.281    137.5      194.8       10.58
     4.283    160.6      324.8       18.75
     4.288     47.15     137.9        1.028
     4.291    164.5      359.7       23.33
     4.294     87.23      41.45       1.086
     4.312     98.78      44.35       1.162
     4.329    109.8       43.         0.78
     4.372     75.51      45.71       1.11
     4.375     47.15     139.6        1.028
     4.377     50.36     122.3        4.651
     4.383    160.6      348.2       18.75
     4.385     93.18      53.66       1.162
     4.396    137.5      198.4        9.424
     4.401    115.1       79.24       1.162
     4.401    133.6      160.6       11.63
     4.402    129.3      131.6        6.976
     4.408     87.23      43.64       1.086
     4.408    164.5      362.1       18.68
     4.415    109.8       44.38       0.78
     4.417     64.23      65.29       6.967
     4.453     69.9       54.83       3.487
     4.485     98.78      44.37       1.162
     4.497    160.6      354.1       17.59
     4.503    109.8       51.33       0.78
     4.513    115.1       83.91       1.162
     4.515    137.5      198.4       11.78
     4.524    164.5      364.4       23.34
     4.525     87.23      41.48       1.086
     4.531    120.1       86.22       1.162
     4.533     64.23      65.3        4.65
     4.544     75.51      49.07       1.11
     4.548     47.15     137.9        1.028
     4.551     50.36     122.3        4.651
     4.559     93.18      53.68       1.162
     4.569    115.1       86.24       1.162
     4.576    129.3      131.6        3.48
     4.58     133.6      153.7        6.983
     4.589    109.8       45.77       0.78
     4.599     98.78      47.88       3.488
     4.637    129.3      126.9        4.666
     4.638    160.6      324.8       16.41
     4.643    164.5      364.4       18.68
     4.648    120.1       85.07       1.162
     4.66      75.51      47.97       1.11
     4.676    115.1       97.88       2.333
     4.685     69.9       53.7        3.502
     4.69      87.23      52.37       1.086
     4.698    133.6      150.2        5.813
     4.708     64.23      64.17       1.162
     4.708     98.78      56.03       1.162
     4.72      47.15     127.5        1.028
     4.726     50.36     120.         6.977
     4.754    163.       323.5       12.8
     4.761    109.8       47.15       0.78
     4.762    109.8       42.98       0.78
     4.764    137.5      181.9        7.064
     4.77     164.5      352.8       17.51
     4.776     75.51      47.99       1.11
     4.819    120.1       88.58       1.162
     4.826    120.1       79.28       1.162
     4.828     98.78      51.39       1.162
     4.831     64.23      53.72       1.162
     4.841     93.18      63.02       1.162
     4.845     50.36     115.4        4.651
     4.848    109.8       47.14       0.78
     4.85     115.1       97.91       1.163
     4.865     87.23      51.3        1.086
     4.871    156.3      260.7       11.63
     4.872    129.3      122.3        1.162
     4.877    129.3      115.3        4.65
     4.883    137.5      180.8        5.896
     4.883    160.6      313.2       16.41
     4.888    144.7      207.1       10.24
     4.892     47.15     122.3        1.028
     4.898     93.18      64.19       1.162
     4.914    148.1      214.2        8.14
     4.918     69.9       52.56       1.16
     4.927    133.6      153.7        6.976
     4.944     64.23      58.38       2.34
     4.944    163.       307.2       12.79
     4.948     75.51      50.23       1.11
     4.97     164.5      322.4       17.51
     4.978     87.23      54.58       1.086
     4.979     47.15     118.9        1.028
     4.989    129.3      121.2        3.496
     5.005    137.5      174.9        7.072
     5.005    156.3      253.7        6.976
     5.01     160.6      301.5       12.89
     5.021    109.8       45.75       0.78
     5.021    109.8       47.14       0.78
     5.033     69.9       52.58       1.16
     5.054    156.3      239.8        4.666
     5.056    120.1       80.48       1.162
     5.057     98.78      54.91       1.162
     5.057    133.6      135.1        5.813
     5.058     75.51      56.91       1.11
     5.075    163.       289.8       13.96
     5.076     93.18      58.4        1.162
     5.082     50.36     108.4        5.799
     5.104    148.1      198.        10.47
     5.122     75.51      50.25       1.11
     5.127    156.3      235.1       16.29
     5.135    160.6      292.1       16.41
     5.143     50.36     103.8        1.163
     5.145    115.1       89.81       3.488
     5.147    164.5      322.5       17.51
     5.15      69.9       51.43       1.16
     5.151     47.15     115.4        1.028
     5.168     98.78      60.74       1.162
     5.17      98.78      58.42       1.162
     5.176    120.1       74.68       1.162
     5.178    133.6      128.2        8.146
     5.179     64.23      53.77       1.162
     5.192     93.18      58.42       1.162
     5.193    109.8       40.19       0.78
     5.209    115.1       81.68       2.325
     5.238     47.15     112.         1.028
     5.239     75.51      48.04       1.11
     5.25     137.5      164.4        7.056
     5.263     50.36      99.13       6.969
     5.268    144.7      174.2        7.956
     5.284    148.1      194.5        9.302
     5.295    133.6      125.9        4.65
     5.298    148.1      175.9       11.63
     5.319    160.6      283.9       14.05
     5.326    144.7      175.3        4.561
     5.328     69.9       45.64       1.16
     5.328     87.23      51.36       1.086
     5.342    129.3      113.1        2.325
     5.348    120.1       77.03       1.162
     5.367    109.8       44.34       0.78
     5.372    137.5      159.7        8.248
     5.388    115.1       74.72       6.968
     5.412     64.23      51.47       1.162
     5.417    133.6      117.7        5.813
     5.424     93.18      58.45       1.162
     5.44      50.36      94.5        3.496
     5.458     87.23      33.99       1.086
     5.466    129.3      102.6        5.813
     5.472     75.51      45.85       1.11
     5.485    164.5      267.7       11.67
     5.497     47.15     106.8        1.028
     5.497    137.5      150.3        5.888
     5.502     69.9       45.67       1.16
     5.515     98.78      60.79       1.162
     5.515    160.6      259.3       14.06
     5.53      64.23      49.16       1.162
     5.53      75.51      45.86       1.11
     5.539     93.18      59.62       1.162
     5.539    109.8       44.34       0.78
     5.54     109.8       40.17       0.78
     5.559     50.36      89.88       4.651
     5.561    156.3      208.5       11.63
     5.574    144.7      161.7        6.819
     5.582    120.1       73.57       3.48
     5.603    148.1      163.1        6.977
     5.618    115.1       77.08       4.65
     5.651    133.6      114.3        4.65
     5.652    133.6      113.1        5.813
     5.662    164.5      267.7        8.171
     5.669     47.15     105.1        1.028
     5.674     87.23      52.49       1.086
     5.675     50.36      89.87       5.814
     5.692     98.78      56.16       1.162
     5.698    163.       248.        13.95
     5.7      129.3       99.17       5.798
     5.704     64.23      48.02       1.162
     5.714     93.18      57.32       1.162
     5.733     69.9       45.7        1.16
     5.739    156.3      207.3       10.46
     5.757    160.6      252.3       11.72
     5.759    120.1       70.11       4.65
     5.792    115.1       77.1        2.325
     5.796    148.1      143.4       29.07
     5.799    109.8       40.16       0.78
     5.803    137.5      136.2        5.888
     5.81     144.7      161.8        7.956
     5.812    129.3      103.8        4.666
     5.821     75.51      43.67       1.11
     5.826    163.       235.3       16.28
     5.839    164.5      267.7       15.17
     5.842     47.15      99.89       1.028
     5.849     87.23      51.43       1.086
     5.851     69.9       43.39       1.16
     5.868     98.78      53.86       1.162
     5.884     64.23      39.91       1.162
     5.888     93.18      57.35       1.162
     5.888    133.6      107.3        2.325
     5.907     87.23      51.43       1.086
     5.924    156.3      198.         9.309
     5.939    144.7      148.1       10.24
     5.989    120.1       72.46       1.162
     5.994    129.3       92.23       1.162
     6.       160.6      243.        11.72
     6.012    133.6       96.89       6.976
     6.017    148.1      163.2        8.14
     6.027     50.36      82.95       3.488
     6.028    115.1       70.16       1.162
     6.043    137.5      131.5        3.52
     6.044    137.5      130.4        7.056
     6.049    129.3       96.89       1.162
     6.055     75.51      41.48       1.11
     6.059    109.8       44.31       0.78
     6.067    163.       229.5       13.96
     6.086     69.9       38.77       1.16
     6.101     47.15      98.16       1.028
     6.101     98.78      51.56       1.162
     6.114     64.23      42.26       1.162
     6.118     93.18      59.7        1.162
     6.13     160.6      227.8        9.375
     6.15     164.5      247.9        9.338
     6.17      75.51      41.5        1.11
     6.223    156.3      193.4        9.301
     6.232    120.1       56.22       1.162
     6.249    144.7      130.         3.41
     6.253    148.1      164.4        6.984
     6.257     87.23      48.22       1.086
     6.262    115.1       67.86       1.162
     6.281    120.1       67.85       1.162
     6.286    137.5      123.3        5.888
     6.293    129.3       80.65       1.162
     6.309    133.6       86.47       4.658
     6.317     69.9       39.96       3.487
     6.318     50.36      80.67       3.327
     6.318    109.8       44.3        0.78
     6.321    109.8       37.36       0.78
     6.333     98.78      51.6        1.162
     6.351     93.18      57.41       1.162
     6.36      47.15      92.98       1.028
     6.375    163.       213.2       10.47
     6.382    160.6      206.7        8.211
     6.393    164.5      239.8       11.67
     6.403    129.3       87.64       1.162
     6.405     64.23      39.98       1.162
     6.411    129.3       77.17       1.162
     6.43     144.7      125.5        4.554
     6.444     98.78      57.42       1.162
     6.47     137.5      114.         7.064
     6.47     156.3      179.5       13.95
     6.491    109.8       42.91       0.78
     6.497    115.1       63.24       1.162
     6.499     50.36      71.39       1.163
     6.512    148.1      134.2        9.287
     6.52      75.51      38.21       1.11
     6.52     120.1       58.59       2.317
     6.528    129.3       74.86       1.162
     6.544    133.6       81.85       4.658
     6.545     87.23      50.43       1.086
     6.551     69.9       36.51       1.16
     6.56     115.1       56.28       1.162
     6.568    163.       192.3        9.317
     6.581     64.23      36.51       1.162
     6.582     93.18      58.6        1.162
     6.594    129.3       64.41       1.162
     6.62      47.15      89.52       1.028
     6.622     98.78      51.63       1.162
     6.682    160.6      200.9       11.73
     6.695    120.1       56.28       1.162
     6.697    164.5      228.1        9.338
     6.715    156.3      167.9        6.976
     6.72     133.6       78.38       1.162
     6.722    144.7      130.         6.827
     6.727    115.1       65.6        1.162
     6.733     50.36      67.93       1.163
     6.751    109.8       44.28       0.78
     6.773    137.5      104.6        7.056
     6.812    148.1      129.6        6.977
     6.813     93.18      58.63       1.162
     6.814     64.23      34.22       1.162
     6.82     129.3       72.58       1.162
     6.832     87.23      52.64       1.086
     6.842     69.9       34.22       1.16
     6.854     98.78      51.66       1.162
     6.868    163.       187.7        9.309
     6.926    160.6      191.5       10.55
     6.93     120.1       52.83       1.162
     6.942    164.5      217.6       10.51
     6.958    156.3      159.8        5.813
     6.959    115.1       64.47       1.162
     6.965     47.15      80.89       1.028
     6.976    144.7      107.3        6.812
     6.984     75.51      37.16       1.11
     6.997    148.1      119.1        5.814
     7.009    109.8       37.33       0.78
     7.016    137.5       96.39       3.536
     7.02     133.6       64.47       1.162
     7.031    144.7      113.         1.136
     7.049     64.23      29.6        1.162
     7.061    129.3       59.82       1.162
     7.085     50.36      62.16       1.163
     7.099     93.18      63.32       1.162
     7.116    163.       171.5        9.309
     7.123     87.23      50.5        1.086
     7.131     69.9       34.26       1.16
     7.144     98.78      50.54       1.162
     7.162    120.1       51.7        1.162
     7.176    163.       170.3        8.139
     7.191    115.1       63.34       1.162
     7.194    164.5      196.7       10.51
     7.211    156.3      137.7        4.65
     7.224     47.15      75.71       1.028
     7.235    160.6      174.         9.375
     7.245    148.1      104.         2.31
     7.251     69.9       29.63       1.16
     7.259    133.6       55.2        1.162
     7.269    109.8       37.32       0.78
     7.276     93.18      58.69       1.162
     7.278    144.7       98.29       7.956
     7.282     64.23      28.47       1.162
     7.295     87.23      52.69       1.086
     7.296    129.3       55.2        1.162
     7.322     50.36      55.22       1.163
     7.331     75.51      38.31       1.11
     7.365     69.9       31.97       1.16
     7.371     98.78      56.38       1.162
     7.381    164.5      183.9        8.178
     7.395    120.1       49.4        1.162
     7.396     47.15      72.25       1.028
     7.407    144.7       84.66       1.136
     7.432    115.1       50.58       1.162
     7.476    129.3       47.08       1.162
     7.478    160.6      164.7        7.031
     7.488    148.1       94.77       5.799
     7.505     75.51      37.22       1.11
     7.508     93.18      58.72       1.162
     7.516    156.3      126.2        5.805
     7.517     64.23      23.85       1.162
     7.527     87.23      52.72       1.086
     7.529    109.8       40.08       0.78
     7.53     129.3       51.74       1.162
     7.543    115.1       57.57       1.162
     7.551    133.6       51.75       1.162
     7.564    137.5       75.29       1.174
     7.603     98.78      56.42       1.162
     7.616     50.36      48.28       1.163
     7.627    120.1       49.43       1.162
     7.633     64.23      23.87       1.162
     7.655     47.15      65.34       1.028
     7.655     69.9       30.84       1.16
     7.666    163.       148.3        6.976
     7.675    148.1       83.17       1.163
     7.701    109.8       37.3        0.78
     7.716     98.78      59.92       1.162
     7.756    156.3      121.5        6.976
     7.76     144.7       86.98       1.136
     7.768    129.3       42.47       1.162
     7.779    115.1       51.79       1.162
     7.786    133.6       45.97       1.162
     7.795     75.51      37.26       1.11
     7.802    137.5       72.97       4.704
     7.815     87.23      54.93       1.086
     7.83      69.9       28.54       1.16
     7.831     98.78      61.1        1.162
     7.849     50.36      47.15       1.163
     7.911     93.18      61.1        1.162
     7.914     47.15      60.16       1.028
     7.933    156.3      121.6        6.983
     7.947    144.7       75.64       1.136
     7.954    115.1       50.65       1.162
     7.96     163.       150.7       10.46
     7.961    109.8       37.29       0.78
     7.968    148.1       86.7        1.163
     7.978    120.1       44.83       1.162
     7.997    129.3       45.99       1.162
     8.028     75.51      35.07       1.11
     8.032     93.18      54.14       1.162
     8.045    137.5       63.59       1.174
     8.06     129.3       40.19       1.162
     8.064     98.78      58.8        1.162
     8.065     69.9       25.09       1.16
     8.081    133.6       39.03       1.162
     8.082     50.36      44.85       1.163
     8.092    148.1       78.57       1.163
     8.097     64.23      21.6        1.162
     8.106     87.23      52.79       1.086
     8.129    144.7       68.84       1.136
     8.15     163.       134.4        9.302
     8.173     47.15      56.7        1.028
     8.21     120.1       43.7        1.162
     8.22     109.8       37.28       0.78
     8.232    129.3       41.37       1.162
     8.239    156.3      107.6        3.48
     8.244    115.1       49.52       1.162
     8.26      75.51      35.1        1.11
     8.298     98.78      56.51       1.162
     8.315    133.6       35.57       1.162
     8.318     50.36      39.07       1.163
     8.318     93.18      58.83       1.162
     8.329    148.1       78.6        1.163
     8.331     64.23      19.31       1.162
     8.339     87.23      50.65       1.086
     8.343    137.5       61.28       1.174
     8.393    109.8       34.49       0.78
     8.393    163.       125.1        8.139
     8.395    148.1       69.31       1.163
     8.412     69.9       25.13       1.16
     8.418    156.3      105.3        4.635
     8.433     47.15      53.25       1.028
     8.443    120.1       41.4        1.162
     8.468    129.3       35.59       1.162
     8.472    115.1       50.72       1.162
     8.475    115.1       54.21       1.162
     8.491     75.51      35.13       1.11
     8.491    144.7       59.79       1.136
     8.5      120.1       42.57       1.162
     8.521    137.5       60.13       1.174
     8.551     93.18      57.7        1.162
     8.553     50.36      34.45       1.163
     8.564     64.23      17.02       1.162
     8.569     87.23      52.85       1.086
     8.584    129.3       35.6        1.162
     8.587     69.9       22.83       1.16
     8.587     98.78      56.55       1.162
     8.607    133.6       32.12       1.162
     8.675    120.1       41.43       1.162
     8.692     47.15      51.51       1.028
     8.697    148.1       60.04       1.163
     8.708    115.1       48.42       1.162
     8.714    156.3      105.4        4.658
     8.722    144.7       66.64       1.136
     8.73     144.7       56.42       1.136
     8.739    109.8       35.87       0.78
     8.78     133.6       33.31       1.162
     8.788    120.1       44.94       1.162
     8.795     64.23      18.21       1.162
     8.802     87.23      50.71       1.086
     8.813    129.3       36.8        1.162
     8.815    129.3       39.12       1.162
     8.819     69.9       22.86       1.16
     8.824    115.1       47.28       1.162
     8.827    137.5       46.05       1.174
     8.84      75.51      32.95       1.11
     8.844     50.36      32.16       1.163
     8.877     98.78      55.42       1.162
     8.882     69.9       15.9        1.16
     8.897     93.18      58.91       1.162
     8.907    156.3       84.48       2.341
     8.933    163.       115.9        8.147
     8.934    148.1       60.07       1.163
     8.951     47.15      46.33       1.028
     8.971    144.7       50.76       1.136
     8.99     129.3       34.5        1.162
     8.993    129.3       31.01       1.162
     8.998    109.8       34.47       0.78
     9.023    120.1       40.32       1.162
     9.029     64.23      14.75       1.162
     9.033     87.23      51.82       1.086
     9.063    137.5       47.26       1.174
     9.071    133.6       31.02       1.162
     9.072     75.51      32.98       1.11
     9.108     98.78      56.62       1.162
     9.11      69.9       20.58       1.16
     9.121    163.       100.8        8.139
     9.124     47.15      46.32       1.028
     9.134     93.18      51.97       1.162
     9.135     50.36      29.87       1.163
     9.171    109.8       34.46       0.78
     9.172    115.1       47.32       1.162
     9.173    148.1       56.62       1.163
     9.209    144.7       48.52       1.136
     9.249    133.6       25.23       1.162
     9.256    120.1       39.19       1.162
     9.263    156.3       83.36       4.65
     9.281    129.3       32.21       1.162
     9.302    137.5       43.76       1.174
     9.304     75.51      31.9        1.11
     9.318     64.23      14.79       1.162
     9.342     69.9       20.61       1.16
     9.36      93.18      58.97       1.162
     9.37      50.36      25.25       1.163
     9.383     47.15      41.14       1.028
     9.383     87.23      48.61       1.086
     9.397     98.78      56.66       1.162
     9.405    115.1       45.03       1.162
     9.414    148.1       50.83       1.163
     9.421    163.        95.03       4.651
     9.443    156.3       79.9        1.162
     9.448    144.7       45.14       1.136
     9.461     69.9       15.97       1.16
     9.487    120.1       39.22       1.162
     9.513    129.3       32.24       1.162
     9.517    109.8       33.05       0.78
     9.543    133.6       19.46       1.162
     9.595     75.51      30.83       1.11
     9.595     93.18      54.35       1.162
     9.598    137.5       43.8        1.174
     9.601    163.        92.73       2.341
     9.603     50.36      24.12       1.163
     9.61      64.23      11.34       1.162
     9.613     87.23      50.81       1.086
     9.626     98.78      60.17       1.162
     9.684    144.7       46.31       1.136
     9.69     109.8       33.05       0.78
     9.691     69.9       18.33       1.16
     9.719    120.1       39.25       1.162
     9.727     64.23      10.2        1.162
     9.747    156.3       68.31       1.162
     9.752    115.1       45.08       1.162
     9.753    115.1       43.91       1.162
     9.768     75.51      30.85       1.11
     9.772    148.1       46.23       1.163
     9.777     50.36      22.98       1.163
     9.779    137.5       37.95       1.174
     9.802     98.78      57.87       1.162
     9.807    129.3       26.47       1.162
     9.815     47.15      39.4        1.028
     9.827     93.18      54.38       1.162
     9.831    133.6       21.82       1.162
     9.846     87.23      48.66       1.086
     9.849    163.        76.48       5.829
     9.923    144.7       48.62       1.136
     9.949    120.1       40.44       1.162
     9.95     109.8       33.03       0.78
     9.954    120.1       34.63       1.162
     9.978    129.3       29.98       1.162
     9.978    144.7       42.93       1.136
     9.982    115.1       47.43       1.162
     9.984    156.3       68.34       1.162
     9.988     47.15      35.95       1.028
    10.        75.51      30.88       1.11
    10.01     148.1       50.91       1.163
    10.03      98.78      56.74       1.162
    10.04      69.9       14.89       1.16
    10.06     133.6       24.18       1.162
    10.07      50.36      18.37       1.163
    10.07      64.23      11.4        1.162
    10.08     137.5       37.99       1.174
    10.12      93.18      49.77       1.162
    10.14      87.23      48.7        1.086
    10.14     163.        78.84       1.163
    10.16     144.7       40.68       1.136
    10.18     120.1       34.66       1.162
    10.19     120.1       38.15       1.162
    10.21     109.8       33.02       0.78
    10.22     115.1       42.81       1.162
    10.22     156.3       62.56       1.162
    10.24     133.6       19.55       1.162
    10.24     148.1       47.45       1.163
    10.25      47.15      34.21       1.028
    10.27      69.9       13.76       1.16
    10.27     129.3       25.37       1.162
    10.29      93.18      53.28       1.162
    10.31      87.23      48.72       1.086
    10.35      75.51      32.03       1.11
    10.36      50.36      17.24       1.163
    10.37     137.5       35.67       1.174
    10.38      98.78      54.46       1.162
    10.4      144.7       40.72       1.136
    10.42      47.15      32.48       1.028
    10.42      64.23      11.45       1.162
    10.42     120.1       34.69       1.162
    10.42     148.1       46.31       1.163
    10.44     129.3       25.39       1.162
    10.44     163.        74.23       1.163
    10.45      69.9       13.78       1.16
    10.45     115.1       42.84       1.162
    10.46     156.3       61.43       1.162
    10.47     109.8       31.62       0.78
    10.5      129.3       24.23       1.162
    10.52      93.18      54.48       1.162
    10.52     133.6       26.57       1.162
    10.54      87.23      47.66       1.086
    10.55     137.5       34.52       1.174
    10.58      75.51      28.73       1.11
    10.59      50.36      16.11       1.163
    10.59      64.23      11.47       1.162
    10.64     109.8       30.23       0.78
    10.65     120.1       38.21       1.162
    10.67      98.78      54.5        1.162
    10.68     115.1       42.87       1.162
    10.68     163.        74.26       1.163
    10.7      156.3       66.11       1.162
    10.73     129.3       24.26       1.162
    10.73     148.1       37.05       1.163
    10.76     133.6       19.62       1.162
    10.76     144.7       35.08       1.136
    10.77      47.15      34.19       1.028
    10.79     137.5       33.38       1.174
    10.81      75.51      29.87       1.11
    10.83      64.23      11.5        1.162
    10.83      87.23      48.79       1.086
    10.85      69.9       13.84       1.16
    10.87      93.18      47.55       1.162
    10.88      50.36      16.15       1.163
    10.88     120.1       35.92       1.162
    10.9       98.78      54.53       1.162
    10.9      109.8       30.21       0.78
    10.91     115.1       45.23       1.162
    10.91     129.3       24.29       1.162
    10.92     163.        69.64       1.163
    10.94     120.1       33.6        1.162
    10.94     156.3       54.52       1.162
    10.96     148.1       35.92       1.163
    10.99     109.8       32.99       0.78
    10.99     133.6       23.14       1.162
    11.       144.7       29.43       1.136
    11.02      47.15      29.01       1.028
    11.02     129.3       26.63       1.162
    11.04      75.51      28.79       1.11
    11.06      50.36      13.85       1.163
    11.06      64.23       9.211      1.162
    11.08      98.78      51.07       1.162
    11.08     137.5       35.77       1.174
    11.09      69.9       11.54       1.16
    11.1       93.18      53.39       1.162
    11.12      87.23      46.65       1.086
    11.16     163.        68.51       1.163
    11.2       47.15      29.01       1.028
    11.2       98.78      47.59       1.162
    11.2      115.1       41.78       1.162
    11.2      129.3       24.33       1.162
    11.22     133.6       19.68       1.162
    11.23     120.1       33.64       1.162
    11.24     156.3       53.39       1.162
    11.25     109.8       28.81       0.78
    11.26     137.5       29.91       1.174
    11.28      75.51      28.82       1.11
    11.29     144.7       29.46       1.136
    11.32      69.9       12.73       1.16
    11.32     148.1       34.8        1.163
    11.34      93.18      46.45       1.162
    11.35      50.36      15.05       1.163
    11.35      64.23      10.41       1.162
    11.35      87.23      46.68       1.086
    11.35     120.1       29.         1.162
    11.4      163.        59.24       1.163
    11.42     109.8       32.97       0.78
    11.43     129.3       20.87       1.162
    11.43     129.3       24.36       1.162
    11.44     115.1       39.49       1.162
    11.45     133.6       20.88       1.162
    11.46      47.15      29.         1.028
    11.46     120.1       31.34       1.162
    11.47     144.7       26.08       1.136
    11.48     156.3       46.45       1.162
    11.5      148.1       27.85       1.163
    11.51      75.51      26.63       1.11
    11.51     109.8       28.8        0.78
    11.54      98.78      52.29       1.162
    11.55      69.9        6.954      1.16
    11.56     137.5       27.6        1.174
    11.57      93.18      45.32       1.162
    11.58      50.36      13.92       1.163
    11.58      64.23      10.44       1.162
    11.59      87.23      42.36       1.086
    11.61     115.1       41.83       1.162
    11.66      98.78      47.66       1.162
    11.66     156.3       40.66       1.162
    11.68     109.8       30.18       0.78
    11.68     148.1       29.03       1.163
    11.69     120.1       34.86       1.162
    11.69     163.        66.25       1.163
    11.71     144.7       26.11       1.136
    11.72      47.15      27.26       1.028
    11.72     129.3       24.4        1.162
    11.74     133.6       20.92       1.162
    11.74     137.5       28.8        1.174
    11.78      69.9       11.63       1.16
    11.8       75.51      26.66       1.11
    11.8       93.18      43.02       1.162
    11.81      50.36      12.79       1.163
    11.81     120.1       30.23       1.162
    11.82      87.23      45.65       1.086
    11.87      64.23      10.48       1.162
    11.88     163.        52.33       1.163
    11.9      115.1       40.71       1.162
    11.9      115.1       43.04       1.162
    11.9      129.3       19.77       1.162
    11.91     148.1       27.9        1.163
    11.91     148.1       33.72       1.163
    11.92     120.1       32.57       1.162
    11.94     109.8       30.17       0.78
    11.94     144.7       30.68       1.136
    11.95      69.9       13.98       1.16
    11.95     129.3       23.26       1.162
    11.96     156.3       41.86       1.162
    11.97      75.51      28.91       1.11
    11.98      47.15      27.25       1.028
    11.98      64.23      11.66       1.162
    11.98     133.6       16.3        1.162
    12.03     137.5       27.66       1.174
    12.05      87.23      43.51       1.086
    12.1       50.36      15.15       1.163
    12.13      98.78      46.55       1.162
    12.13     115.1       40.74       1.162
    12.15      93.18      41.91       1.162
    12.17     163.        51.2        1.163
    12.19     129.3       18.64       1.162
    12.19     156.3       41.89       1.162
    12.2      109.8       25.99       0.78
    12.21     120.1       30.28       1.162
    12.21     133.6       19.81       1.162
    12.21     148.1       31.43       1.163
    12.24      47.15      23.8        1.028
    12.24     144.7       26.17       1.136
    12.28      87.23      44.62       1.086
    12.32      75.51      26.73       1.11
    12.33      64.23      10.54       1.162
    12.33     137.5       25.35       1.174
    12.34      50.36       8.205      1.163
    12.36      98.78      45.42       1.162
    12.39      93.18      36.12       1.162
    12.41     163.        50.07       1.163
    12.42     115.1       33.8        1.162
    12.42     129.3       22.16       1.162
    12.44     133.6       18.68       1.162
    12.45     120.1       31.47       1.162
    12.45     148.1       27.97       1.163
    12.46     109.8       27.37       0.78
    12.48     144.7       26.2        1.136
    12.48     156.3       46.58       1.162
    12.49      47.15      25.51       1.028
    12.51      87.23      46.82       1.086
    12.51     137.5       21.84       1.174
    12.55      75.51      28.98       1.11
    12.56      64.23       9.411      1.162
    12.57      50.36      10.56       1.163
    12.59      98.78      43.13       1.162
    12.62      93.18      41.97       1.162
    12.63     109.8       30.14       0.78
    12.64     129.3       29.17       1.162
    12.65     115.1       37.32       1.162
    12.65     163.        46.61       1.163
    12.67     133.6       19.88       1.162
    12.68     120.1       33.83       1.162
    12.73     156.3       39.63       1.162
    12.74      64.23       9.435      1.162
    12.75      87.23      42.51       1.086
    12.75     148.1       23.36       1.163
    12.76      47.15      25.5        1.028
    12.78     144.7       22.83       1.136
    12.81     137.5       21.88       1.174
    12.85      50.36      11.76       1.163
    12.85      93.18      36.19       1.162
    12.88      98.78      47.82       1.162
    12.89     109.8       27.35       0.78
    12.89     115.1       35.03       1.162
    12.89     163.        48.97       1.163
    12.9       75.51      25.69       1.11
    12.91     120.1       30.37       1.162
    12.94     129.3       23.4        1.162
    12.96      93.18      40.85       1.162
    12.96     133.6       11.78       1.162
    12.97      64.23       9.466      1.162
    12.97     156.3       35.01       1.162
    12.98      87.23      42.53       1.086
    13.01      47.15      23.77       1.028
    13.01      75.51      29.04       1.11
    13.01     144.7       21.73       1.136
    13.04     148.1       23.4        1.163
    13.05      98.78      43.19       1.162
    13.09      50.36      10.63       1.163
    13.09      87.23      42.55       1.086
    13.1      137.5       24.27       1.174
    13.14     120.1       30.4        1.162
    13.14     133.6       12.96       1.162
    13.15     109.8       23.17       0.78
    13.17     115.1       39.72       1.162
    13.17     129.3       22.26       1.162
    13.19     163.        42.03       1.163
    13.22     148.1       23.42       1.163
    13.25     144.7       21.76       1.136
    13.26     156.3       32.73       1.162
    13.27      47.15      22.03       1.028
    13.28      69.9       15.32       1.16
    13.31      93.18      40.9        1.162
    13.32      50.36      10.66       1.163
    13.32      64.23      11.84       1.162
    13.34      98.78      47.88       1.162
    13.34     137.5       17.25       1.174
    13.36      75.51      29.08       1.11
    13.37     120.1       30.44       1.162
    13.37     163.        38.57       1.163
    13.4      129.3       22.29       1.162
    13.41     109.8       24.55       0.78
    13.41     115.1       37.42       1.162
    13.46     148.1       21.13       1.163
    13.48     133.6       15.33       1.162
    13.49     120.1       26.96       1.162
    13.49     144.7       22.92       1.136
    13.5      156.3       36.25       1.162
    13.53      47.15      23.75       1.028
    13.53      75.51      27.99       1.11
    13.54      93.18      45.58       1.162
    13.55      64.23      11.87       1.162
    13.56      87.23      43.69       1.086
    13.58     109.8       24.55       0.78
    13.58     115.1       36.28       1.162
    13.58     129.3       18.83       1.162
    13.58     137.5       20.81       1.174
    13.61      50.36      10.7        1.163
    13.63      98.78      44.43       1.162
    13.64     115.1       29.32       1.162
    13.66     120.1       29.31       1.162
    13.66     163.        44.42       1.163
    13.67     109.8       24.54       0.78
    13.67     144.7       20.67       1.136
    13.69     129.3       25.82       1.162
    13.69     148.1       24.65       1.163
    13.72     133.6       14.2        1.162
    13.74     156.3       32.79       1.162
    13.75      98.78      38.63       1.162
    13.77      93.18      40.96       1.162
    13.78      50.36       8.398      1.163
    13.78      64.23      10.74       1.162
    13.79      47.15      23.74       1.028
    13.79      87.23      42.64       1.086
    13.8       69.9       16.55       1.16
    13.81     137.5       19.66       1.174
    13.81     148.1       18.85       1.163
    13.82      75.51      29.14       1.11
    13.87     115.1       31.67       1.162
    13.87     129.3       15.38       1.162
    13.89     120.1       31.67       1.162
    13.89     133.6       18.88       1.162
    13.9      144.7       18.43       1.136
    13.9      163.        38.64       1.163
    13.93     109.8       21.75       0.78
    14.        75.51      30.28       1.11
    14.        93.18      43.32       1.17
    14.01      64.23      11.93       1.162
    14.02      87.23      42.66       1.086
    14.03     156.3       30.5        1.162
    14.05      47.15      22.         1.028
    14.05     137.5       13.81       1.174
    14.05     148.1       18.88       1.163
    14.07      50.36       8.437      1.163
    14.08     144.7       13.91       1.136
    14.09      69.9       16.59       1.16
    14.1       98.78      42.17       1.162
ENDDATA            956
ENDSUBENT          968
SUBENT        A1026003   19990319   19990505
BIB                  3          3
REACTION   (2-HE-4(D,EL)2-HE-4,,DA,,,EXP)
ERR-ANALYS (ANG-ERR) Digitizing error
STATUS     (CURVE) FIG 8
ENDBIB               3
COMMON               2          3
EN         ANG-ERR
MEV        ADEG
  8.500     0.7
ENDCOMMON            3
DATA                 3         18
ANG-CM     DATA-CM    DATA-ERR
ADEG       MB/SR      MB/SR
    30.14     196.5        8.525
    45.86      63.19       2.195
    63.        20.84       0.1778
    82.61      51.1        1.756
    94.66      66.13       1.683
   115.2       51.5        2.682
   119.2       44.24       1.528
   124.4       44.29       1.522
   129.5       45.1        1.558
   135.4       46.73       1.615
   139.4       58.33       1.505
   140.8       60.89       2.104
   144.9       69.82       2.4
   146.8       82.79       1.433
   150.3       92.53       3.98
   152.3      100.8        4.39
   154.5      102.6        3.544
   158.4      132.5        4.625
ENDDATA             20
ENDSUBENT           32
ENDENTRY             3
