ENTRY            A1062   19990319   19990505
SUBENT        A1062001   19990319   19990505
BIB                 10         15
INSTITUTE  (1USAWAU)
REFERENCE  (J,NP/A,184,(1),97,197204)
AUTHOR     (M.P.BAKER,J.M.CAMERON,N.S.CHANT,N.F.MANGELSON)
TITLE      A search for high-lying levels in the MASS A=5 nuclei
FACILITY   (VDGT)
SAMPLE     The target was a 1.62 cm diam.,1.91 cm high gas cell
           containing 99.9% pure 3He gas at a pressure of 30cm Hg
METHOD     (PHD)
           (EDE)
DETECTOR   (TELES) Telescope of silicon semiconductors
ERR-ANALYS (EN-ERR) Digitizing error
           (DATA-ERR) Digitizing error
           (ERR-T) Total error
HISTORY    (19810326C) Compilation produced by Arzamas RFNC-VNIIEF
           (19990205U)CNPD: corrected 4-dig. year and lower cases.
ENDBIB              15
COMMON               2          3
EN-ERR     ERR-T
MEV        PER-CENT
 0.05        5.
ENDCOMMON            3
ENDSUBENT           22
SUBENT        A1062002   19990319   19990505
BIB                  2          2
REACTION   (2-HE-3(D,EL)2-HE-3,,DA,,,EXP)
STATUS     (CURVE) Fig 6
ENDBIB               2
NOCOMMON
DATA                 4        190
EN         ANG-CM     DATA-CM    DATA-ERR
MEV        ADEG       MB/SR      MB/SR
     9.417     90.2       80.22       0.4569
     9.792     32.6      418.4        2.298
     9.819     25.5      583.9        2.298
     9.826     90.2       78.62       0.4569
     9.836     45.2      181.5        2.298
    10.21      90.2       76.12       0.4569
    10.22      32.6      401.1        2.298
    10.22      45.2      155.1        2.298
    10.23      25.5      575.9        2.298
    10.6      149.4       82.76       0.4544
    10.61      25.5      565.6        2.298
    10.61      32.6      386.3        2.298
    10.61      45.2      160.9        2.298
    10.62      90.2       73.15       0.4569
    10.99      32.6      385.2        2.298
    10.99      45.2      157.5        2.298
    11.        25.5      573.7        2.298
    11.03      90.2       70.63       0.4569
    11.03     149.4       77.07       0.4544
    11.4       45.2      151.8        2.298
    11.41      25.5      556.5        2.298
    11.41      32.6      388.6        2.298
    11.41      90.2       67.68       0.4569
    11.41     140.8       27.76       0.4544
    11.41     149.4       69.13       0.4544
    11.79      45.2      148.4        2.298
    11.8      111.9       56.94       0.4569
    11.8      140.8       25.72       0.4544
    11.81     149.4       63.         0.4544
    11.82      90.2       66.08       0.4569
    12.02      90.2       65.05       0.4569
    12.03     111.9       56.82       0.4569
    12.18      32.6      391.         2.298
    12.19      25.5      575.         2.298
    12.19     111.9       56.27       0.4569
    12.19     125.3       25.19       0.4569
    12.19     149.4       56.42       0.4544
    12.2       45.2      140.4        2.298
    12.2       90.2       64.04       0.4569
    12.21     140.8       22.77       0.4544
    12.41      90.2       62.55       0.4569
    12.42     111.9       56.14       0.4569
    12.57      45.2      146.2        2.298
    12.59      32.6      385.3        2.298
    12.59     140.8       20.74       0.4544
    12.59     149.4       51.2        0.4544
    12.6       25.5      555.4        2.298
    12.6      111.9       54.67       0.4569
    12.6      125.3       25.88       0.4569
    12.61      90.2       61.52       0.4569
    12.79      90.2       60.05       0.4569
    12.8       45.2      141.         2.298
    12.81     111.9       54.1        0.4569
    12.81     125.3       25.76       0.4569
    12.82      25.5      543.3        2.298
    12.82      32.6      366.3        2.298
    12.82     140.8       19.25       0.4544
    12.82     149.4       48.35       0.4544
    13.        45.2      135.8        2.298
    13.01      25.5      545.1        2.298
    13.01     111.9       53.99       0.4569
    13.01     125.3       24.73       0.4569
    13.02      32.6      365.7        2.298
    13.02      90.2       59.92       0.4569
    13.02     140.8       18.23       0.4544
    13.02     149.4       46.42       0.4544
    13.19     111.9       52.52       0.4569
    13.2       90.2       58.         0.4569
    13.37     111.9       51.5        0.4569
    13.38     125.3       25.44       0.4569
    13.38     149.4       43.49       0.4544
    13.39      32.6      373.9        2.298
    13.39      45.2      134.7        2.298
    13.39     140.8       17.57       0.4544
    13.4       25.5      567.         2.298
    13.4       90.2       56.97       0.4569
    13.58     111.9       51.84       0.4569
    13.59      90.2       56.41       0.4569
    13.76     149.4       39.19       0.4544
    13.78     111.9       49.9        0.4569
    13.79      90.2       54.93       0.4569
    13.79     140.8       15.53       0.4544
    13.8       32.6      365.8        2.298
    13.8       45.2      131.3        2.298
    13.81      25.5      540.6        2.298
    13.81     125.3       24.29       0.4569
    13.99     111.9       49.33       0.4569
    14.02      90.2       53.88       0.4569
    14.17     149.4       36.23       0.4544
    14.18     140.8       14.86       0.4544
    14.19     111.9       48.76       0.4569
    14.2       25.5      544.1        2.298
    14.2      125.3       24.07       0.4569
    14.21      32.6      364.7        2.298
    14.21      45.2      127.9        2.298
    14.21      90.2       46.01       0.4569
    14.37     111.9       47.74       0.4569
    14.39      90.2       44.99       0.4569
    14.52      25.5      527.8        2.298
    14.57      32.6      354.5        2.298
    14.57      45.2      126.8        2.298
    14.57     125.3       24.32       0.4569
    14.57     149.4       32.83       0.4544
    14.58      90.2       51.28       0.4569
    14.58     111.9       48.54       0.4569
    14.59     140.8       13.72       0.4544
    14.78     111.9       46.6        0.4569
    14.79      90.2       51.17       0.4569
    14.96     149.4       30.34       0.4544
    14.97      25.5      532.7        2.298
    14.97     111.9       46.5        0.4569
    14.98      32.6      351.         2.298
    14.98     140.8       12.6        0.4544
    14.99      90.2       49.68       0.4569
    15.       125.3       23.17       0.4569
    15.01      45.2      123.3        2.298
    15.11      90.2       48.87       0.4569
    15.16     149.4       28.41       0.4544
    15.17      25.5      516.         2.298
    15.17      45.2      120.6        2.298
    15.17     111.9       45.93       0.4569
    15.18     140.8       12.48       0.4544
    15.19      32.6      343.5        2.298
    15.21     125.3       23.97       0.4569
    15.34     149.4       27.4        0.4544
    15.37      32.6      345.3        2.298
    15.37      45.2      117.7        2.298
    15.37     140.8       12.38       0.4544
    15.38      25.5      522.4        2.298
    15.38      90.2       48.55       0.4569
    15.38     111.9       44.9        0.4569
    15.39     125.3       22.95       0.4569
    15.58     111.9       43.87       0.4569
    15.59      90.2       47.53       0.4569
    15.75     149.4       26.26       0.4544
    15.76     111.9       43.77       0.4569
    15.77     125.3       21.37       0.4569
    15.78      32.6      341.9        2.298
    15.78      45.2      114.2        2.298
    15.79      25.5      521.2        2.298
    15.79      90.2       46.96       0.4569
    15.8      140.8       12.14       0.4544
    15.97     111.9       42.74       0.4569
    15.99      90.2       45.47       0.4569
    16.15      25.5      513.3        2.298
    16.17      90.2       44.46       0.4569
    16.17     111.9       42.17       0.4569
    16.18     149.4       23.75       0.4544
    16.19      32.6      336.1        2.298
    16.19     125.3       22.51       0.4569
    16.19     140.8       11.02       0.4544
    16.22      45.2      113.         2.298
    16.35     111.9       41.61       0.4569
    16.37     125.3       22.41       0.4569
    16.37     140.8       11.37       0.4544
    16.37     149.4       23.19       0.4544
    16.38      25.5      503.5        2.298
    16.38      45.2      112.6        2.298
    16.38      90.2       43.43       0.4569
    16.39      32.6      331.         2.298
    16.52      25.5      508.5        2.298
    16.57     149.4       22.17       0.4544
    16.58      32.6      330.5        2.298
    16.58      45.2      109.7        2.298
    16.58      90.2       43.31       0.4569
    16.58     111.9       41.23       0.4569
    16.58     125.3       22.29       0.4569
    16.6      140.8       11.7        0.4544
    16.76     111.9       40.01       0.4569
    16.79      90.2       42.74       0.4569
    16.96      90.2       41.42       0.4569
    16.96     111.9       39.68       0.4569
    16.96     125.3       21.62       0.4569
    16.96     149.4       20.59       0.4544
    16.97      45.2      106.3        2.298
    16.98      32.6      285.6        2.298
    16.99      25.5      494.8        2.298
    16.99     140.8       11.03       0.4544
    17.34     149.4       19.47       0.4544
    17.35     140.8       10.83       0.4544
    17.37     125.3       21.39       0.4569
    17.38      25.5      500.6        2.298
    17.38      45.2      105.2        2.298
    17.39      32.6      284.5        2.298
    17.77      45.2      101.8        2.298
    17.78      32.6      315.6        2.298
    17.78     125.3       20.25       0.4569
    17.78     149.4       18.32       0.4544
    17.79      25.5      490.3        2.298
    17.79     140.8        9.679      0.4544
ENDDATA            192
ENDSUBENT          199
SUBENT        A1062003   19990319   19990505
BIB                  2          2
REACTION   (2-HE-3(D,P)2-HE-4,,DA,A,,EXP)
STATUS     (CURVE) Fig 7
ENDBIB               2
COMMON               1          3
DATA-ERR
MB/SR
 0.03
ENDCOMMON            3
DATA                 3         90
EN         ANG        DATA-CM
MEV        ADEG       MB/SR
     9.784     19.6        4.47
     9.807     15.3        4.712
    10.18      27.3        3.305
    10.2       15.3        4.379
    10.2       19.6        4.064
    10.57      27.3        3.286
    10.59      15.3        4.287
    10.59      19.6        3.876
    10.98      15.3        4.099
    10.99      27.3        3.147
    11.01      19.6        3.736
    11.4       15.3        3.959
    11.4       19.6        3.645
    11.4       27.3        2.912
    11.77      27.3        2.941
    11.79      15.3        3.578
    11.79      19.6        3.457
    12.18      15.3        3.534
    12.18      27.3        2.85
    12.21      19.6        3.414
    12.6       15.3        3.395
    12.6       19.6        3.105
    12.6       27.3        2.687
    12.77      15.3        3.228
    12.77      27.3        2.617
    12.79      19.6        2.865
    12.99      15.3        3.182
    12.99      27.3        2.692
    13.01      19.6        2.965
    13.35      15.3        3.139
    13.36      44.9        1.324
    13.38      19.6        2.897
    13.38      27.3        2.456
    13.58      44.9        1.375
    13.77      15.3        2.878
    13.77      19.6        2.782
    13.77      27.3        2.582
    13.78      44.9        1.377
    13.97      44.9        1.332
    14.19      15.3        2.715
    14.19      19.6        2.521
    14.19      27.3        2.515
    14.19      44.9        1.407
    14.36      44.9        1.361
    14.58      27.3        2.496
    14.58      44.9        1.34
    14.6       15.3        2.575
    14.6       19.6        2.527
    14.78      44.9        1.318
    14.99      15.3        2.508
    14.99      19.6        2.362
    14.99      27.3        2.478
    15.        44.9        1.345
    15.19      27.3        2.432
    15.19      44.9        1.3
    15.21      15.3        2.414
    15.21      19.6        2.269
    15.38      15.3        2.319
    15.38      27.3        2.483
    15.39      44.9        1.303
    15.41      19.6        2.247
    15.58      44.9        1.305
    15.77      15.3        2.325
    15.77      27.3        2.392
    15.78      44.9        1.235
    15.8       15.3        2.035
    15.8       19.6        2.156
    16.        44.9        1.262
    16.17      44.9        1.241
    16.19      19.6        1.556
    16.19      27.3        2.397
    16.34      44.9        1.219
    16.38      27.3        1.894
    16.39      15.3        1.607
    16.39      19.6        1.583
    16.58      15.3        1.972
    16.58      19.6        2.021
    16.58      44.9        1.222
    16.6       27.3        1.873
    16.78      44.9        1.249
    16.97      27.3        2.287
    17.        15.3        1.833
    17.        19.6        1.833
    17.        44.9        0.8662
    17.36      27.3        2.22
    17.39      15.3        1.693
    17.39      19.6        1.911
    17.77      27.3        2.153
    17.78      19.6        1.771
    17.8       15.3        1.723
ENDDATA             92
ENDSUBENT          103
ENDENTRY             3
