ENTRY            13640   20211005   20220609   20220609       1493
SUBENT        13640001   20211005   20220609   20220609       1493
BIB                  8         13
TITLE      Neutron resonances in 166Ho
AUTHOR     (P.R.Huffman,C.M.Frankle,C.R.Gould,D.G.Haase,
           J.A.Harvey,N.R.Roberson,L.W.Weston)
REFERENCE  (J,PR/C,54,2051,1996)
           #doi:10.1103/PhysRevC.54.2051
INSTITUTE  (1USAORL,1USADKE,1USANCA,1USATNL,1USALAS)
FACILITY   (LINAC,1USAORL) ORELA.
INC-SOURCE (PHOTO) Electrons on water-cooled tantalum target.
COMMENT    Compiler's comment: Authors discuss neutron capture
           measurement without giving any plots or numerical data.
HISTORY    (19961226C)
           (20211005A) BP: Updated entry, added doi,
                       digitized data.
ENDBIB              13
NOCOMMON             0          0
ENDSUBENT           16
SUBENT        13640002   20211005   20220609   20220609       1493
BIB                  8         16
REACTION   (67-HO-165(N,TOT),,TRN)
SAMPLE     The 165Ho samples were obtained in the form of solid
           metal. The transmission sample had a thickness of
           0.10 atoms/b and mass of 560 g. A chemical assay was
           provided for the 165Ho and indicated that the only
           significant impurity was 0.03% of 181Ta.
DETECTOR   (GLASD,FISCH) Neutrons were detected with a 12.7-mm
           thick, 12.7-cm-diam NE912 6Li loaded glass
           scintillator. The beam intensity was monitored by a
           235U fission chamber located in the neutron
           production target room.
METHOD     (TOF) 79.710-m flight path.
MONITOR    Beam intensity monitored by 235U fission chamber.
CORRECTION Corrected for background and dead-time losses.
STATUS     (CURVE) Fig. 1, page 2052.
HISTORY    (20211005A) BP: corrected REACTION, digitized data.
ENDBIB              16
COMMON               1          3
THICKNESS
ATOMS/B
       0.10
ENDCOMMON            3
DATA                 2       1142
EN         DATA
EV         NO-DIM
      8.076      0.015
      8.754      0.231
      8.947      0.252
      9.722      0.248
     10.110      0.224
     10.110      0.073
     10.400      0.180
     10.788      0.152
     11.078      0.111
     11.078      0.073
     11.563      0.032
     11.853      0.014
     13.791      0.011
     14.178      0.045
     14.372      0.073
     14.565      0.097
     14.856      0.124
     15.147      0.148
     15.631      0.172
     15.922      0.203
     16.406      0.220
     16.890      0.230
     17.181      0.217
     17.665      0.141
     17.762      0.028
     18.440      0.017
     18.634      0.100
     18.634      0.199
     19.118      0.247
     19.409      0.271
     19.990      0.278
     20.184      0.254
     20.377      0.240
     20.474      0.196
     20.958      0.013
     21.540      0.216
     21.637      0.268
     22.024      0.292
     22.411      0.312
     22.799      0.329
     23.380      0.340
     23.671      0.178
     23.961      0.333
     24.155      0.357
     24.542      0.339
     24.736      0.226
     25.027      0.343
     25.124      0.360
     25.899      0.367
     26.092      0.346
     26.577      0.380
     27.255      0.387
     27.836      0.387
     28.417      0.391
     28.901      0.387
     29.192      0.404
     29.773      0.397
     30.257      0.411
     30.839      0.418
     31.710      0.421
     32.195      0.428
     32.873      0.418
     33.260      0.411
     33.745      0.397
     34.035      0.345
     34.035      0.380
     34.326      0.325
     34.519      0.273
     34.810      0.170
     34.810      0.026
     35.876      0.053
     36.263      0.166
     36.360      0.218
     36.747      0.238
     36.844      0.204
     37.038      0.029
     37.425      0.029
     37.716      0.245
     37.910      0.231
     38.103      0.221
     38.394      0.197
     38.394      0.173
     38.394      0.094
     38.975      0.015
     39.847      0.056
     40.331      0.018
     41.397      0.166
     41.784      0.224
     42.850      0.293
     43.140      0.313
     43.625      0.327
     44.206      0.334
     44.690      0.327
     45.078      0.320
     45.368      0.310
     45.562      0.286
     45.949      0.237
     46.240      0.193
     46.434      0.138
     46.531      0.059
     46.821      0.017
     48.274      0.010
     48.565      0.048
     48.952      0.089
     49.243      0.124
     49.437      0.144
     49.727      0.127
     50.211      0.086
     50.502      0.027
     52.633      0.010
     53.602      0.044
     53.989      0.013
     54.764      0.020
     54.958      0.109
     55.830      0.185
     56.314      0.202
     56.798      0.226
     57.186      0.250
     57.961      0.274
     58.832      0.291
     59.704      0.308
     60.382      0.325
     61.060      0.346
     61.932      0.352
     62.513      0.328
     62.998      0.294
     63.385      0.308
     63.579      0.280
     63.676      0.249
     63.869      0.132
     63.966      0.198
     64.257      0.029
     65.807      0.039
     66.000      0.098
     66.485      0.139
     66.775      0.170
     66.969      0.214
     67.260      0.252
     67.647      0.269
     67.841      0.290
     68.325      0.238
     68.325      0.063
     68.519      0.008
     69.100      0.159
     69.294      0.269
     69.584      0.293
     70.262      0.293
     70.553      0.245
     70.650      0.272
     71.037      0.173
     71.037      0.073
     71.425      0.004
     72.393      0.014
     73.071      0.083
     73.459      0.138
     73.846      0.186
     74.524      0.241
     74.815      0.227
     74.912      0.172
     75.299      0.251
     75.299      0.299
     75.687      0.323
     76.365      0.334
     76.655      0.310
     76.655      0.292
     77.237      0.347
     77.527      0.337
     77.915      0.378
     78.496      0.385
     78.593      0.361
     79.174      0.385
     79.368      0.364
     80.046      0.010
     80.336      0.165
     80.627      0.007
     80.627      0.337
     80.821      0.361
     80.917      0.378
     81.208      0.402
     81.499      0.412
     82.080      0.405
     82.564      0.391
     82.661      0.350
     82.758      0.288
     83.048      0.223
     83.242      0.116
     83.436      0.003
     86.632      0.009
     87.988      0.126
     88.376      0.143
     88.570      0.164
     88.860      0.181
     89.248      0.202
     89.732      0.202
     90.313      0.236
     90.894      0.229
     90.991      0.219
     91.088      0.208
     91.282      0.198
     91.572      0.177
     91.669      0.153
     92.541      0.002
     94.963      0.005
     95.931      0.043
     97.481      0.153
     98.256      0.166
     98.450      0.183
     98.837      0.163
     98.934      0.125
     99.322      0.066
     99.612      0.156
     99.709      0.218
    100.110      0.243
    100.499      0.264
    100.788      0.239
    100.980      0.212
    101.173      0.188
    101.265      0.104
    101.357      0.011
    102.714      0.021
    103.399      0.143
    103.594      0.157
    103.885      0.174
    103.984      0.202
    104.275      0.216
    104.664      0.240
    105.051      0.220
    105.146      0.199
    105.242      0.168
    105.725      0.154
    105.816      0.032
    106.784      0.022
    106.788      0.099
    107.179      0.161
    107.666      0.199
    107.764      0.224
    108.055      0.238
    108.444      0.248
    108.638      0.258
    109.124      0.286
    109.900      0.300
    110.579      0.314
    111.064      0.328
    111.937      0.342
    112.519      0.346
    113.295      0.363
    113.780      0.377
    114.265      0.391
    114.650      0.336
    114.651      0.367
    115.033      0.256
    115.425      0.340
    115.621      0.378
    116.106      0.388
    116.493      0.371
    116.686      0.354
    117.161      0.191
    117.346      0.031
    118.218      0.032
    118.415      0.084
    118.615      0.188
    118.811      0.236
    119.103      0.264
    119.393      0.240
    119.486      0.184
    119.578      0.084
    119.867      0.060
    120.061      0.049
    120.350      0.025
    121.126      0.036
    121.233      0.230
    121.334      0.299
    121.626      0.324
    121.821      0.351
    122.210      0.372
    122.502      0.393
    122.792      0.379
    123.178      0.362
    123.369      0.314
    123.371      0.338
    123.560      0.248
    123.844      0.140
    124.032      0.029
    125.873      0.023
    127.617      0.030
    128.877      0.023
    129.754      0.117
    130.046      0.138
    130.338      0.162
    130.823      0.180
    131.212      0.201
    131.600      0.211
    132.086      0.236
    132.571      0.243
    133.153      0.260
    133.832      0.278
    134.511      0.281
    135.287      0.299
    135.772      0.306
    136.157      0.264
    136.838      0.316
    137.324      0.334
    138.001      0.313
    138.290      0.292
    138.386      0.265
    138.769      0.185
    139.452      0.279
    139.553      0.348
    140.135      0.348
    140.522      0.338
    140.810      0.296
    140.998      0.189
    141.183      0.033
    141.574      0.095
    141.681      0.269
    142.364      0.356
    143.043      0.370
    143.818      0.377
    144.594      0.380
    145.176      0.405
    146.048      0.405
    146.727      0.405
    147.016      0.381
    147.599      0.405
    147.889      0.388
    148.372      0.371
    148.564      0.343
    148.747      0.142
    149.226      0.031
    149.522      0.142
    149.914      0.222
    150.298      0.146
    150.389      0.042
    152.036      0.028
    153.401      0.198
    153.791      0.226
    153.889      0.257
    154.278      0.282
    155.152      0.310
    155.928      0.327
    156.510      0.352
    157.189      0.366
    157.771      0.376
    158.547      0.387
    159.226      0.397
    159.614      0.411
    160.487      0.422
    161.359      0.412
    161.649      0.412
    162.327      0.394
    162.610      0.266
    162.616      0.363
    162.695      0.048
    163.665      0.051
    164.730      0.041
    165.810      0.295
    166.101      0.315
    166.490      0.340
    166.879      0.368
    167.074      0.385
    167.462      0.395
    168.141      0.403
    168.528      0.392
    168.624      0.371
    168.803      0.108
    168.814      0.309
    170.059      0.039
    170.940      0.205
    171.135      0.223
    171.234      0.254
    171.429      0.275
    171.818      0.306
    172.110      0.331
    172.692      0.351
    173.081      0.362
    173.372      0.379
    173.758      0.348
    173.954      0.379
    174.144      0.324
    174.227      0.060
    174.323      0.036
    174.332      0.206
    174.433      0.282
    175.102      0.109
    175.498      0.269
    176.080      0.286
    176.279      0.373
    176.669      0.418
    177.250      0.422
    177.736      0.436
    178.124      0.443
    178.705      0.439
    179.093      0.450
    179.286      0.429
    179.669      0.360
    179.672      0.408
    180.150      0.291
    180.238      0.117
    180.330      0.034
    181.880      0.031
    181.883      0.072
    182.176      0.128
    182.373      0.177
    182.473      0.239
    183.057      0.284
    183.446      0.309
    183.835      0.333
    184.127      0.357
    184.612      0.375
    185.000      0.378
    185.582      0.392
    186.164      0.406
    186.842      0.403
    187.420      0.337
    187.698      0.108
    187.702      0.178
    188.084      0.067
    188.373      0.032
    189.633      0.046
    189.637      0.119
    189.936      0.272
    190.126      0.209
    190.520      0.317
    190.715      0.345
    191.006      0.359
    191.686      0.383
    191.975      0.359
    192.152      0.043
    192.163      0.248
    193.024      0.037
    193.420      0.186
    193.619      0.297
    194.010      0.359
    194.298      0.307
    194.489      0.245
    194.773      0.124
    194.962      0.040
    195.742      0.120
    195.945      0.301
    196.047      0.391
    196.436      0.412
    196.728      0.440
    197.213      0.457
    197.990      0.478
    198.667      0.471
    199.345      0.461
    199.634      0.423
    199.635      0.444
    200.291      0.366
    200.678      0.273
    200.969      0.096
    201.163      0.188
    201.260      0.067
    201.357      0.004
    203.004      0.004
    203.779      0.036
    203.973      0.092
    204.457      0.082
    204.554      0.018
    205.620      0.060
    206.008      0.170
    206.298      0.199
    206.492      0.227
    206.686      0.249
    206.880      0.266
    207.364      0.291
    207.946      0.309
    208.430      0.302
    208.721      0.330
    209.109      0.351
    209.593      0.373
    210.174      0.366
    210.271      0.348
    210.368      0.302
    210.756      0.231
    211.143      0.337
    211.628      0.398
    212.112      0.419
    212.500      0.405
    212.888      0.380
    213.178      0.341
    213.469      0.284
    213.760      0.167
    213.760      0.021
    215.891      0.018
    215.988      0.075
    216.473      0.131
    216.570      0.174
    217.151      0.227
    217.636      0.259
    218.314      0.305
    218.798      0.316
    219.380      0.295
    219.767      0.181
    219.767      0.060
    219.961      0.011
    221.318      0.018
    221.609      0.092
    221.899      0.195
    221.899      0.149
    222.481      0.220
    222.771      0.256
    223.353      0.280
    223.837      0.305
    224.516      0.320
    224.903      0.298
    225.194      0.327
    225.581      0.359
    226.357      0.351
    227.035      0.348
    227.229      0.295
    227.519      0.195
    227.810      0.160
    228.004      0.213
    228.101      0.312
    228.198      0.376
    228.585      0.383
    229.264      0.362
    229.264      0.323
    229.457      0.213
    229.457      0.043
    229.651      0.018
    230.911      0.099
    231.008      0.259
    231.395      0.330
    231.783      0.217
    232.171      0.089
    232.171      0.025
    232.946      0.011
    233.236      0.067
    233.527      0.227
    233.624      0.312
    234.109      0.359
    234.884      0.401
    235.368      0.312
    235.368      0.206
    235.465      0.366
    235.853      0.160
    236.143      0.217
    236.434      0.422
    237.209      0.422
    237.984      0.408
    238.178      0.401
    238.566      0.280
    238.566      0.224
    238.566      0.032
    239.050      0.007
    240.019      0.011
    240.407      0.078
    240.504      0.167
    241.182      0.238
    242.054      0.344
    243.411      0.398
    243.992      0.387
    244.477      0.405
    244.961      0.422
    246.124      0.451
    246.318      0.433
    247.287      0.451
    247.965      0.383
    248.062      0.316
    248.450      0.270
    248.934      0.337
    249.128      0.430
    250.000      0.522
    251.066      0.536
    251.066      0.518
    251.841      0.490
    251.938      0.515
    252.229      0.451
    252.229      0.398
    252.616      0.351
    252.810      0.273
    252.907      0.174
    253.295      0.057
    253.682      0.011
    255.523      0.011
    256.492      0.089
    257.752      0.192
    258.915      0.263
    259.496      0.277
    259.981      0.277
    260.174      0.170
    260.174      0.092
    260.562      0.011
    261.919      0.021
    262.016      0.053
    262.209      0.110
    262.791      0.163
    263.275      0.181
    263.760      0.245
    264.147      0.241
    264.438      0.188
    264.632      0.103
    264.729      0.071
    265.407      0.174
    265.698      0.330
    266.279      0.330
    266.667      0.337
    267.345      0.351
    267.636      0.359
    268.508      0.348
    269.186      0.369
    269.864      0.394
    270.736      0.408
    271.512      0.383
    271.802      0.327
    271.996      0.224
    272.093      0.053
    272.287      0.014
    273.159      0.050
    273.740      0.011
    274.709      0.014
    274.806      0.153
    275.291      0.252
    275.678      0.305
    276.357      0.181
    276.357      0.028
    277.616      0.028
    278.101      0.149
    278.101      0.252
    278.488      0.316
    279.167      0.334
    279.554      0.316
    280.233      0.202
    280.329      0.046
    281.880      0.036
    282.074      0.174
    282.364      0.266
    283.236      0.348
    283.430      0.383
    284.205      0.387
    284.884      0.405
    285.368      0.401
    285.950      0.426
    286.434      0.430
    286.822      0.344
    286.822      0.156
    287.209      0.028
    288.178      0.021
    288.275      0.174
    288.857      0.369
    289.050      0.398
    289.729      0.412
    290.116      0.220
    290.407      0.050
    291.957      0.025
    292.054      0.107
    292.345      0.238
    292.636      0.160
    292.733      0.288
    292.926      0.355
    293.702      0.394
    294.186      0.433
    294.961      0.451
    295.833      0.469
    296.027      0.440
    296.124      0.362
    296.318      0.075
    296.512      0.007
    297.674      0.018
    297.674      0.103
    297.965      0.245
    298.159      0.309
    298.450      0.249
    298.547      0.178
    298.740      0.060
    299.128      0.025
    301.452      0.007
    303.479      0.214
    303.963      0.243
    304.543      0.264
    305.124      0.268
    305.608      0.254
    305.997      0.196
    306.194      0.054
    306.582      0.014
    307.065      0.071
    307.449      0.200
    307.930      0.311
    308.316      0.343
    308.993      0.357
    309.477      0.379
    310.154      0.400
    310.541      0.418
    311.218      0.429
    311.606      0.411
    312.091      0.368
    312.190      0.279
    312.292      0.079
    312.584      0.018
    313.456      0.011
    313.550      0.096
    313.836      0.254
    314.028      0.332
    314.608      0.361
    315.091      0.389
    315.865      0.407
    316.155      0.439
    316.639      0.425
    316.929      0.468
    317.607      0.450
    318.090      0.479
    318.380      0.496
    318.865      0.464
    319.157      0.407
    319.253      0.443
    319.545      0.354
    319.549      0.225
    319.649      0.096
    319.845      0.011
    320.716      0.021
    321.196      0.179
    321.385      0.343
    321.480      0.404
    321.963      0.457
    321.964      0.425
    322.448      0.396
    322.546      0.354
    322.549      0.261
    322.748      0.046
    323.136      0.011
    324.685      0.014
    324.778      0.143
    325.357      0.225
    325.646      0.279
    326.226      0.304
    326.418      0.357
    326.419      0.321
    326.709      0.346
    327.001      0.307
    327.102      0.143
    327.395      0.032
    327.973      0.154
    328.259      0.293
    328.355      0.332
    328.552      0.196
    328.648      0.257
    329.038      0.129
    329.420      0.343
    329.520      0.225
    329.612      0.396
    329.997      0.496
    329.998      0.436
    330.290      0.368
    330.388      0.332
    330.781      0.118
    331.074      0.018
    332.913      0.025
    333.104      0.121
    333.198      0.250
    333.679      0.339
    333.775      0.389
    333.968      0.421
    334.354      0.454
    335.031      0.471
    335.226      0.429
    335.515      0.489
    335.613      0.418
    336.289      0.493
    336.774      0.461
    336.871      0.443
    337.162      0.425
    337.260      0.379
    337.358      0.350
    337.455      0.314
    337.650      0.279
    337.652      0.207
    337.750      0.150
    338.140      0.039
    342.303      0.018
    342.785      0.104
    342.786      0.071
    342.881      0.132
    343.171      0.164
    343.654      0.193
    344.137      0.225
    344.621      0.250
    345.007      0.279
    345.393      0.325
    345.394      0.296
    345.972      0.389
    346.361      0.343
    346.457      0.364
    347.134      0.386
    347.424      0.418
    347.617      0.443
    348.100      0.461
    348.198      0.418
    348.392      0.400
    348.586      0.375
    348.588      0.293
    348.684      0.332
    348.977      0.225
    349.368      0.082
    349.467      0.018
    352.855      0.007
    354.791      0.018
    355.950      0.129
    356.143      0.146
    356.627      0.164
    357.304      0.186
    357.691      0.182
    358.176      0.157
    358.274      0.104
    358.372      0.050
    358.857      0.018
    359.434      0.150
    359.437      0.057
    359.723      0.214
    360.207      0.236
    360.496      0.264
    360.689      0.282
    361.464      0.279
    362.141      0.286
    362.819      0.304
    363.593      0.300
    363.980      0.318
    364.560      0.332
    365.142      0.307
    365.435      0.218
    365.730      0.046
    366.021      0.014
    367.086      0.014
    367.278      0.046
    367.663      0.150
    368.048      0.236
    368.336      0.307
    368.337      0.275
    368.918      0.296
    369.207      0.325
    369.788      0.336
    370.079      0.321
    370.466      0.304
    371.048      0.268
    371.917      0.336
    372.013      0.396
    372.208      0.346
    372.497      0.400
    373.078      0.371
    373.467      0.325
    373.471      0.161
    373.668      0.046
    374.056      0.004
    375.508      0.014
    376.182      0.139
    376.472      0.161
    377.050      0.246
    377.727      0.271
    378.405      0.282
    378.985      0.296
    379.085      0.200
    379.667      0.154
    380.149      0.232
    380.532      0.371
    381.015      0.429
    381.112      0.404
    381.402      0.429
    382.079      0.461
    382.079      0.439
    382.660      0.446
    382.952      0.368
    383.245      0.289
    383.637      0.093
    383.833      0.018
    386.834      0.011
    387.316      0.093
    387.508      0.161
    388.379      0.171
    389.056      0.189
    389.442      0.214
    389.829      0.246
    390.506      0.271
    391.183      0.296
    391.667      0.296
    392.343      0.336
    392.635      0.275
    393.118      0.321
    393.215      0.307
    393.408      0.354
    394.085      0.382
    394.086      0.336
    394.763      0.357
    394.956      0.382
    395.634      0.361
    395.730      0.386
    396.021      0.371
    396.117      0.418
    396.505      0.389
    397.085      0.393
    397.570      0.364
    397.860      0.396
    398.343      0.443
    398.440      0.421
    398.441      0.393
    399.118      0.418
    399.213      0.454
    399.699      0.400
    400.214      0.375
    400.403      0.286
    400.679      0.034
    400.783      0.157
    401.259      0.010
    401.842      0.051
    402.046      0.245
    402.048      0.283
    402.138      0.160
    402.534      0.310
    402.726      0.290
    403.305      0.249
    403.398      0.181
    403.590      0.147
    403.876      0.072
    404.067      0.031
    406.584      0.020
    407.361      0.082
    407.947      0.167
    408.918      0.225
    409.500      0.235
    409.888      0.249
    410.179      0.269
    410.374      0.290
    410.763      0.320
    411.248      0.344
    411.927      0.358
    412.313      0.344
    412.314      0.368
    412.316      0.399
    412.794      0.297
    412.882      0.133
    413.362      0.051
    413.555      0.048
    414.136      0.055
    414.715      0.020
    417.426      0.027
    417.623      0.078
    417.722      0.130
    418.209      0.184
    418.502      0.232
    418.794      0.249
    419.085      0.273
    419.281      0.300
    419.669      0.317
    420.057      0.337
    420.442      0.303
    420.542      0.351
    420.831      0.331
    421.314      0.314
    421.408      0.259
    421.689      0.092
    422.073      0.027
    423.234      0.024
    423.237      0.075
    423.729      0.211
    423.732      0.280
    423.927      0.290
    423.928      0.320
    424.317      0.341
    424.608      0.355
    424.803      0.382
    425.482      0.412
    425.577      0.382
    425.675      0.399
    426.255      0.382
    426.451      0.433
    426.643      0.402
    427.227      0.450
    427.417      0.395
    427.607      0.324
    427.705      0.344
    427.896      0.293
    427.900      0.372
    428.182      0.215
    428.184      0.259
    428.567      0.170
    428.756      0.095
    428.947      0.051
    429.236      0.017
    431.850      0.020
    432.433      0.055
    433.399      0.027
    434.272      0.055
    434.275      0.106
    434.665      0.160
    435.152      0.211
    435.343      0.167
    435.531      0.072
    435.916      0.020
    437.369      0.051
    438.723      0.024
    439.210      0.082
    439.213      0.136
    439.796      0.170
    440.282      0.211
    441.155      0.245
    441.350      0.269
    442.020      0.116
    442.025      0.222
    442.209      0.048
    442.692      0.017
    443.757      0.027
    443.952      0.055
    444.246      0.109
    444.443      0.174
    444.831      0.191
    445.023      0.157
    445.601      0.106
    445.990      0.136
    446.381      0.215
    447.160      0.300
    447.646      0.327
    448.034      0.344
    448.419      0.303
    448.712      0.344
    449.194      0.307
    449.570      0.112
    449.672      0.211
    449.856      0.034
    451.888      0.020
    452.377      0.106
    453.155      0.174
    453.445      0.160
    453.826      0.048
    454.987      0.031
    455.965      0.218
    456.644      0.249
    457.517      0.280
    457.613      0.263
    458.196      0.293
    458.290      0.249
    458.969      0.273
    459.164      0.293
    459.744      0.273
    460.133      0.307
    460.702      0.092
    461.182      0.034
    461.667      0.048
    461.865      0.116
    462.453      0.259
    462.841      0.273
    462.939      0.293
    463.424      0.300
    463.811      0.310
    464.391      0.286
    464.776      0.252
    465.360      0.300
    465.650      0.300
    466.040      0.355
    466.327      0.293
    466.523      0.320
    466.910      0.324
    467.102      0.293
    467.586      0.297
    468.266      0.337
    468.655      0.378
    469.041      0.344
    469.623      0.375
    469.815      0.341
    470.301      0.375
    470.491      0.307
    470.589      0.341
    471.460      0.324
    471.655      0.351
    472.137      0.314
    472.140      0.378
    472.235      0.337
    472.624      0.365
    473.110      0.402
    473.786      0.385
    473.979      0.365
    474.077      0.392
    474.267      0.327
    474.549      0.177
    474.554      0.263
    475.317      0.058
    475.709      0.140
    476.201      0.283
    476.302      0.355
    476.397      0.320
    476.883      0.355
    476.982      0.399
    477.273      0.409
    478.241      0.406
    478.433      0.378
    478.725      0.416
    479.014      0.385
    479.594      0.378
    479.687      0.307
    480.368      0.358
    480.757      0.395
    481.049      0.419
    481.437      0.440
    481.630      0.430
    481.822      0.399
    482.211      0.440
    482.213      0.464
    482.983      0.389
    483.373      0.436
    483.375      0.481
    484.049      0.416
    484.530      0.358
    484.619      0.215
    484.999      0.078
    485.190      0.027
    485.868      0.044
    485.970      0.126
    486.265      0.218
    486.366      0.286
    486.845      0.201
    486.935      0.075
    487.126      0.031
    488.288      0.041
    488.584      0.140
    488.687      0.245
    489.275      0.385
    489.857      0.399
    490.632      0.412
    490.923      0.416
    491.218      0.501
    491.892      0.443
    491.895      0.491
    492.090      0.515
    492.279      0.436
    492.475      0.470
    492.765      0.464
    492.860      0.436
    492.955      0.399
    493.048      0.331
    493.430      0.239
    493.811      0.133
    493.904      0.058
    496.032      0.034
    496.619      0.143
    497.205      0.242
    497.886      0.290
    498.081      0.324
    498.565      0.314
    498.761      0.372
    498.953      0.337
    498.956      0.389
    499.245      0.365
    500.021      0.385
ENDDATA           1144
ENDSUBENT         1169
SUBENT        13640003   20211005   20220609   20220609       1493
BIB                  6         24
REACTION  1(67-HO-165(N,0),,EN)
          2(67-HO-165(N,EL),,WID,,2G)
REL-REF    (R,,S.F.Mughabghab,B,NEUT.CS 1A,,,1984)
ANALYSIS   (MLA) Analyzed with program Sammy which uses a Reich-
           Moore approximation of the R-matrix formalism. Where
           parameters are not given for a resonance, parameters
           are taken from the Mughabghab evaluation, (see
           comment for reference). Authors report that the
           10.32-eV resonance reported in Mughabghab, neutron
           cross sections, vol. 1 (1984) belongs to 181Ta.
ERR-ANALYS (ERR-T) Statistical and systematic uncertainties
           summed in quadrature.
           (ERR-S) Typical statistical errors in the widths
           were of order 2% or less.
           (ERR-SYS,5.,20.) Based on the deviations of the fits
           off resonance, we estimate systematic uncertainties to
           be typically 5%, approaching 20% at the higher energies
            near the largest s-wave resonances.
STATUS     (DEP,13640002)
           (TABLE) Table I, page 2053.
           (COREL,10531002) Capture data used to confirm
           assignment of resonances to 166Ho.
HISTORY    (20211005A) BP: Updated uncertainties and STATUS. Added
                       REL-REF.
ENDBIB              24
COMMON               1          3
ERR-S
PER-CENT
        2.0
ENDCOMMON            3
DATA                 4        109
DATA      1ERR-T     1DATA      2ERR-T     2
EV         EV         MILLI-EV   MILLI-EV
       8.17       0.01      0.131      0.008
      12.64       0.01       11.4        0.6
      18.24       0.01       0.83       0.04
      21.15       0.01       0.56       0.03
      24.79       0.01     0.0147     0.0007
      35.53       0.01        8.0        0.4
      37.36       0.01       0.55       0.03
      39.67       0.01       18.9        0.9
      47.80       0.01        29.         1.
      51.55       0.01        47.         2.
      54.42       0.01        2.6        0.1
      65.15       0.01        20.         1.
      68.91       0.01       1.24       0.06
      71.93       0.01        24.         1.
      75.08       0.01      0.083      0.004
      80.10       0.02       1.74       0.09
      83.80       0.02
      84.73       0.02
      85.80       0.02
      93.63       0.02        84.         4.
     102.03       0.02        21.         1.
     106.44       0.02        9.3        0.5
     117.99       0.02       16.2        0.8
     119.98       0.02       0.80       0.04
     120.78       0.02        6.6        0.3
     124.92       0.02        37.         2.
     126.90       0.02        47.         2.
     128.46       0.02        21.         1.
     139.03       0.02       0.30       0.01
     141.42       0.02       1.52       0.08
     149.32       0.03        2.8        0.1
     151.22       0.03        47.         2.
     152.49       0.03       0.97       0.05
     163.22       0.03        3.7        0.2
     164.36       0.03        20.         1.
     169.77       0.03        23.         1.
     174.74       0.03        5.0        0.3
     181.03       0.03        40.         2.
     187.94       0.03       0.81       0.04
     188.89       0.03        20.         1.
     192.74       0.03        9.9        0.5
     195.33       0.03        3.5        0.2
     202.24       0.03        88.         9.
     205.08       0.04        9.2        0.9
     210.86       0.04       0.36       0.07
     214.81       0.04        68.         7.
     220.63       0.04        34.         3.
     227.88       0.04       0.77       0.04
     230.22       0.04        9.4        0.5
     232.82       0.04        7.1        0.4
     235.95       0.05        1.0        0.2
     239.61       0.05        36.         2.
     248.60       0.05       0.58       0.03
     254.64       0.05       131.        13.
     261.24       0.06        37.         3.
     264.98       0.06        1.8        0.2
     272.63       0.06        6.5        0.7
     274.09       0.06        27.         3.
     277.17       0.06       15.4        0.8
     281.13       0.06        25.         1.
     287.62       0.06       12.6        0.6
     290.51       0.06        4.1        0.2
     291.40       0.06        22.         2.
     297.09       0.07        21.         2.
     300.02       0.07       112.         9.
     306.60       0.07        5.5        0.4
     312.99       0.07        17.         1.
     320.42       0.07       15.8        0.9
     323.91       0.07        66.         3.
     327.63       0.07        4.0        0.2
     329.12       0.07        2.2        0.2
     331.65       0.07
     332.57       0.08
     339.47       0.08       219.        20.
     341.95       0.08        6.6        0.7
     350.17       0.08
     351.90       0.08
     351.96       0.08
     354.12       0.08
     358.90       0.08        6.3        0.5
     366.62       0.08        34.         2.
     371.21       0.08       0.75       0.05
     374.80       0.08        87.         7.
     379.66       0.08       1.81       0.09
     384.60       0.09       127.         9.
     386.35       0.09        5.2        0.4
     388.87       0.09       0.32       0.05
     401.25       0.09       10.5        0.5
     405.26       0.09       195.         8.
     413.56       0.09        5.6        0.1
     414.95       0.09        27.         1.
     416.51       0.09        63.         3.
     422.64       0.09        29.         1.
     430.46       0.09       205.        10.
     433.64       0.09       13.3        0.6
     436.41       0.09       51.0        2.0
     438.33       0.09       31.0        1.0
     443.10       0.09       37.4        2.0
     445.83       0.09        2.6        0.1
      450.9        0.1      105.0        5.0
      454.7        0.1       14.9        0.7
      461.3        0.1        8.4        0.7
      464.9        0.1       1.05        0.2
      467.6        0.1       0.62        0.2
      475.2        0.1        5.1        0.5
      479.6        0.1       0.88       0.09
      485.4        0.1       12.0        0.3
      487.7        0.1        24.         1.
      495.1        0.1       116.         8.
ENDDATA            111
ENDSUBENT          144
ENDENTRY             3
