ENTRY            13359     891122
SUBENT        13359001     891122
BIB                 10         13
INSTITUTE  (1USAUI )
REFERENCE  (J,NIM/B,147,487,7712)
           (T,DIIORIO,77) PH.D THESIS, UNIV. OF ILLINOIS, URBANA
AUTHOR     (G.DIIORIO,B.W.WEHRING)
TITLE      DIRECT PHYSICAL MEASUREMENT OF MASS YIELDS FOR 235U
            (N(TH),F)
FACILITY   (REAC) TRIGA
INC-SOURCE THRU NEUTRON BEAM PORT
SAMPLE     FOIL ENRICED TO 93.4% 235U
METHOD     (ASEP) HIAWATHA
STATUS     (RIDER) REFERENCE 76DII1
            DATA TAKEN FROM THESIS
HISTORY    (891121C) VM
ENDBIB              13
COMMON               1          3
EN-DUMMY
EV
0.0253
ENDCOMMON            3
ENDSUBENT           20
SUBENT        13359002     891122
BIB                  4          7
REACTION   (92-U-235(N,F)MASS,CHN,FY,,MXW)
MONITOR    DATA FOR HEAVY MASS PEAK NORMALIZED TO MEEK AND RIDER,
            NEDO-12154-1 (1974)
CORRECTION ADJUSTED FOR DELAYED NEUTRONS FOR A = 84-98, 133-145
           CORRECTED FOR BACKGROUND, MISIDENTIFIED CHARGE STATES
ERR-ANALYS (DATA-ERR) STANDARD UNCERTAINTY BASED ON COUNTING
             STATISTICS
ENDBIB               7
NOCOMMON             0          0
DATA                 3         64
MASS       DATA       DATA-ERR
NO-DIM     PC/FIS     PC/FIS
 77.         0.0082      .001
 78.         0.0216      .002
 79.         0.0439      .003
 80.         0.130       .006
 81.         0.190       .007
 82.         0.321       .009
 83.         0.560       .012
 84.         1.03        .019
 85.         1.34       0.022
 86.         1.99        .023
 87.         2.60        .029
 88.         3.63        .043
 89.         4.84        .064
 90.         5.88        .045
 91.         6.01        .041
 92.         6.01        .043
 93.         6.34        .050
 94.         6.43        .049
 95.         6.61        .042
 96.         6.35        .040
 97.         6.01        .098
 98.         5.60        .097
 99.         6.04        .038
100.         6.17        .038
101.         5.14        .035
102.         4.26        .032
103.         2.94        .027
104.         1.87        .021
105.         0.957       .015
106.         0.436       .010
107.         0.139       .006
108.         0.067       .004
109.         0.038       .003
110.         0.033       .003
125.         0.0294      .005
126.         0.0585      .007
127.         0.1233      .009
128.         0.3600      .011
129.         0.8039      .016
130.         1.8124      .023
131.         2.925       .040
132.         4.203       .048
133.         6.555       .060
134.         7.651       .064
135.         6.557       .060
136.         6.223       .067
137.         6.458      0.076
138.         6.811       .077
139.         6.321       .076
140.         6.070       .063
141.         6.019       .053
142.         5.639       .051
143.         6.087       .052
144.         5.595       .049
145.         4.131      0.041
146.         3.000       .035
147.         2.295       .031
148.         1.645       .026
149.         0.967       .047
150.         0.667       .018
151.         0.417       .015
152.         0.275       .013
153.         0.105       .011
154.         0.056       .009
ENDDATA             66
ENDSUBENT           78
ENDENTRY             2
