ENTRY            C0827   20080521   20080801   20080801       C086
SUBENT        C0827001   20080521   20080801   20080801       C086
BIB                 11         22
INSTITUTE  (1USANOT,3MEXINI,1USAHPE)
REFERENCE  (J,NP/A,429,218,1984)
AUTHOR     (S.E.Darden,S.Sen,G.Murillo,M.Fernandez,J.Ramirez,
           A.Galindo,P.L.Jolivette,B.P.Hichwa)
TITLE      15N(p(pol),p0)15N and the levels of 16O for E(x) =
            14.8-18.6 MeV
FACILITY   (ACCEL,1USANOT) Notre Dame tandem accelerator.
SAMPLE     Two targets used:
           1) Nitrogen gas target, enriched to 99% 15N, with havar
             entrance and exit windows. Gas pressure 0.3 atm.
             In most cases, about 0.25 atm. of 4He added for use
             in measuring beam polarization.
           2) Solid melamine (C3H6N6) target; areal density 175
             microg/cm3.
DETECTOR   (SOLST) 14 solid state detectors.
MONITOR    (54-XE-0(P,EL)54-XE-0,,DA) Normalization using gas
            target. Melamine data normalized to gas target data.
ERR-ANALYS (EN-ERR) Center of target energy uncertainty.
STATUS     (APRVD) Approved by S. Darden, 18 May 2002.
HISTORY    (20020515C) VM
           (20080520A) SD: digitized curves from figs.1-5 to
           Subents 002, 003,005 were added.
ENDBIB              22
COMMON               2          3
EN-ERR     EN-NRM
KEV        MEV
  8.         4.0
ENDCOMMON            3
ENDSUBENT           29
SUBENT        C0827002   20080521   20080801   20080801       C086
BIB                  3          7
REACTION   (7-N-15(P,EL)7-N-15,,DA)
ERR-ANALYS (ERR-S) Error bars given on curves are statistical
            uncertainties, and do not include normalization
            incertainty (estimated 8%).
           (EN-ERR-DIG)  Digitizing error
           (ERR-DIG)    Digitizing error
STATUS     (CURVE) SD: Data from figs. 1,2 were digitized at NDS.
ENDBIB               7
COMMON               2          3
EN-ERR-DIG ERR-DIG
MEV        MB/SR
 0.005      0.2
ENDCOMMON            3
DATA                 4        417
ANG        EN         DATA       ERR-S
ADEG       MEV        MB/SR      MB/SR
       98.8     2.8784     117.87     6.1347
       98.8      2.896     114.68      5.227
       98.8     2.9179     110.36     5.4543
       98.8     2.9397      104.9     6.1361
       98.8     2.9613     97.162     4.7738
       98.8     2.9782     88.294     4.5452
       98.8     3.0001     83.287      4.318
       98.8     3.0174     77.827     3.8648
       98.8     3.0408     86.229      5.227
       98.8     3.0632     85.313     5.6815
       98.8     3.0862     90.079     5.0011
       98.8     3.0958     95.076     4.5439
       98.8      3.122     88.477      5.227
       98.8     3.1392     82.336     5.4543
       98.8     3.1616     82.102     5.4543
       98.8     3.1784      71.87      4.318
       98.8     3.2001     65.499     3.4089
       98.8     3.2089      64.36     3.4116
       98.8     3.2365     69.579     3.8634
       98.8     3.2554     77.073     4.7725
       98.8     3.2711     95.932     6.1374
       98.8     3.2948     106.38      5.227
       98.8     3.3172     105.92     4.7725
       98.8     3.3389       100.     4.5452
       98.8     3.3565     96.133     4.5452
       98.8     3.3833     95.443      3.183
       98.8     3.4056     93.846      4.318
       98.8     3.4229     88.159     4.5452
       98.8     3.4459      92.47     4.9997
       98.8     3.4628     84.056     3.4103
       98.8     3.4859     89.049      5.227
       98.8     3.5081     87.224      5.227
       98.8     3.5267     91.991     5.6829
       98.8     3.5534     89.937     4.7725
       98.8     3.5717     93.114     4.7738
       98.8     3.5943     93.789     4.0907
       98.8     3.6163     90.146     4.9997
       98.8      3.634     87.868      5.227
       98.8     3.6564     87.406     3.1817
       98.8     3.6743     86.719     4.3193
       98.8     3.6966     85.803     3.6362
       98.8     3.7191     85.569      4.318
       98.8     3.7415     85.335     5.2257
       98.8     3.7548     83.967     3.1817
       98.8     3.7773     84.188      2.953
       98.8     3.7814      80.55     2.9544
       98.8     3.7992     79.181     2.7271
       98.8     3.8165     74.176     4.0893
       98.8     3.8342     71.444     2.2726
       98.8     3.8653     68.934     4.0921
       98.8     3.8835     70.747      2.274
       98.8     3.8965     66.652     2.2726
       98.8     3.9176     55.055     2.2726
       98.8     3.9361      59.14     1.8181
       98.8     3.9585     58.679      2.274
       98.8     3.9717     56.629     1.3636
       98.8     3.9939      54.35     2.5012
       98.8     4.0166     56.388     2.0467
       98.8     4.0385     51.609     2.4999
       98.8     4.0608     50.466     1.3636
       98.8     4.0919     47.275     1.8167
       98.8     4.1145     48.859     1.3649
       98.8     4.1278     46.809     2.0453
       98.8     4.1547     46.801     1.1363
       98.8     4.1679      44.07     1.3649
       98.8     4.1949     44.744     1.3636
       98.8     4.2126     42.466      2.044
       98.8      4.253     42.226     1.8181
       98.8     4.3024     42.211     1.8181
       98.8     4.3426     40.381     1.8181
       98.8       4.36      35.83     2.0453
       98.8      4.387     35.595     1.8181
       98.8     4.4047     33.317     1.8181
       98.8     4.4178     30.585     1.8181
       98.8     4.4312     29.672     1.5908
       98.8     4.4536     29.438     2.2726
       98.8     4.4671     29.207     1.8195
       98.8     4.4941     30.108     1.3649
       98.8     4.5167     30.783     1.5908
       98.8     4.5306     34.415     2.2726
       98.8     4.5488     36.227     2.2726
       98.8     4.5712     36.221     1.8181
       98.8     4.5937     35.987     2.0453
       98.8     4.6158      33.48     1.8181
       98.8     4.6383     33.246     1.8181
       98.8     4.6741     32.553     1.3649
       98.8     4.6875      31.64     1.3649
       98.8     4.7099     31.633     1.3622
       98.8      4.728     32.764     1.1349
       98.8     4.7506     33.439     1.1363
       98.8     4.7775     33.204     1.1363
       98.8     4.8045     33.195     1.1363
       98.8      4.818     33.419     1.1363
       98.8     4.8404     32.957     1.1363
       98.8     4.8584     33.634    0.90905
       98.8     4.8854     33.625     1.5908
       98.8     4.9035     35.211     1.8181
       98.8     4.9305     35.657     1.3636
       98.8     4.9486     36.334     1.8181
       98.8      4.971     36.327     1.5908
       98.8     4.9891     37.458     1.5922
       98.8     5.0027     38.135     1.8181
       98.8     5.0298     39.491     1.8195
       98.8     5.0523     39.484     1.8181
       98.8     5.0747      39.25     1.8195
       98.8     5.0884     41.518     1.8181
       98.8     5.1111     43.102     1.5908
       98.8     5.1336     43.323      2.274
       98.8     5.1471        44.     2.0453
       98.8      5.161     46.951     2.5012
       98.8     5.1789     46.945      2.274
       98.8     5.2017     49.893     2.9558
       98.8     5.2243     50.568     2.4999
       98.8      5.238     52.609     3.4089
       98.8     5.2605     52.602     2.2726
       98.8     5.2688     47.145     2.0453
       98.8     5.2863     42.822     2.9544
       98.8     5.3086     42.133     2.7271
       98.8     5.3263     39.628     2.4999
       98.8     5.3489      40.53     2.7271
       98.8     5.3669     40.752     2.2726
       98.8     5.3846     38.474     3.1817
       98.8     5.3984     41.424     2.4999
       98.8     5.4162     40.283     2.7285
       98.8     5.4382     35.731     2.7258
       98.8     5.4599     30.042     1.3622
       98.8     5.4819     25.945     1.5908
       98.8      5.495     22.986     1.3636
       98.8     5.5219     22.524     1.5922
       98.8     5.5404     26.382     1.3636
       98.8     5.5632     29.784     1.3636
       98.8     5.5859     31.595     1.3636
       98.8     5.6037     30.453     1.8181
       98.8     5.6263     31.583     1.3636
       98.8     5.6488     31.576     1.3636
       98.8     5.6806     34.975     1.5936
       98.8     5.6942     35.653     1.8181
       98.8     5.7124     37.238     2.2726
       98.8      5.726     38.371     2.0453
       98.8     5.7486     39.727     2.0467
       98.8     5.7714     43.129     1.3649
       98.8     5.7942      45.85     2.9571
       98.8     5.8124     47.208     2.0453
       98.8     5.8264     52.204     1.8195
       98.8     5.8537     54.695     2.0467
       98.8     5.8584     56.285     2.9558
       98.8     5.8715     53.781     2.2713
       98.8     5.8851     54.686     2.0467
       98.8     5.9117      51.95     2.0467
       98.8     5.9388     53.079     2.4999
       98.8     5.9659     53.752     2.2726
       98.8     5.9841     55.792     2.7271
       98.8     6.0024     59.195     2.7258
       98.8     6.0291     56.233     2.2726
       98.8     6.0514      55.09     3.1817
       98.8     6.0781     53.491     2.7258
       98.8     6.0957     49.622     3.6348
       98.8     6.1226     49.614     2.7271
       98.8     6.1398     43.472     2.0453
       98.8     6.1578     43.467     2.0453
       98.8     6.1847     43.231      2.274
       98.8     6.2027     42.771     2.0453
       98.8     6.2251     42.765      2.274
       98.8      6.243     42.305     2.0454
       98.8     6.2608     40.481      2.044
       98.8     6.2831     39.338     1.8181
       98.8     6.3058     41.377     2.7271
       98.8     6.3153     45.919     2.2726
       98.8     6.3161     52.282     2.4999
       98.8     6.3346     57.049      2.274
       98.8      6.357     56.815     2.0454
       98.8     6.3753     58.855     3.1817
       98.8     6.3889     60.215     2.7285
       98.8     6.4068     59.755     2.5012
       98.8      6.425     62.022     2.4999
       98.8     6.4474     61.106      2.953
       98.8     6.4654     61.782     3.4089
       98.8     6.4792     64.278     2.7285
       98.8     6.5012     60.181     2.9558
       98.8     6.5239     62.219     2.7285
       98.8     6.5464     62.212     2.7285
       98.8     6.5638     58.116      2.274
       98.8     6.5911     60.835      3.183
       98.8     6.6137      61.51     2.2726
       98.8     6.6356     57.185     2.7258
       98.8     6.6537     57.862     2.7285
       98.8     6.6761     57.628     2.7271
       98.8      6.694     57.168     2.5012
       98.8      6.712     57.162     2.7271
       98.8     6.7345     57.837     3.1817
       98.8     6.7568     56.012     2.9544
       98.8     6.7789     53.278     2.4999
       98.8     6.7965     50.319     2.4999
       98.8     6.8148     52.813     2.2726
       98.8     6.8379      58.26     2.7271
       98.8     6.8549     50.074     2.7285
       98.8     6.8731     52.568     2.7258
       98.8     6.8952     49.152     2.4985
       98.8     6.9134     50.965     2.2712
       98.8     6.9356     48.913     2.0467
       98.8     6.9584     52.088     3.4089
      156.6     2.6859      111.2     2.6011
      156.6      2.854     99.847     1.7353
      156.6     2.8718     91.163     2.1691
      156.6     2.8901     90.722     1.7353
      156.6     2.8989     84.211     1.7353
      156.6     2.9124     81.168     1.7372
      156.6     2.9258     74.221     1.7353
      156.6     2.9301     68.579      2.603
      156.6     2.9432      56.86     2.6049
      156.6     2.9565     48.612      2.603
      156.6     2.9652     40.799     2.6049
      156.6     2.9788     38.624     1.3015
      156.6     2.9836     44.262     7.3751
      156.6      2.998     59.874     3.0368
      156.6     3.0031      69.85     3.0349
      156.6     3.0217     77.652      2.603
      156.6     3.0266     85.458     2.1691
      156.6      3.036     91.962      2.603
      156.6     3.0544     96.727     1.7353
      156.6     3.0728     100.19      2.603
      156.6     3.0868     107.12     3.4725
      156.6     3.0923     126.65     2.1672
      156.6     3.1013     124.91     1.7334
      156.6     3.1106     127.51     3.4706
      156.6     3.1149     123.17     3.0368
      156.6     3.1291     133.57      2.603
      156.6      3.143     138.77     3.0368
      156.6     3.1523     143.11     2.1691
      156.6     3.1663     148.74     2.1711
      156.6     3.1757     156.54     3.9025
      156.6     3.1854     169.12     3.9025
      156.6     3.1953     184.74     3.0349
      156.6     3.2098     203.38     3.9044
      156.6     3.2196      217.7     3.4706
      156.6     3.2247     228.97     3.9044
      156.6      3.243     230.27     4.7721
      156.6     3.2515     218.12     6.0736
      156.6     3.2628     165.19     3.4706
      156.6     3.2641     194.69      4.774
      156.6     3.2797     137.41     3.4706
      156.6      3.292     107.47     4.3402
      156.6     3.3001     84.476      2.603
      156.6     3.3006     96.189     4.3383
      156.6     3.3226     78.393     3.0349
      156.6     3.3313     70.146     2.1691
      156.6     3.3587     70.569     2.1691
      156.6     3.3816     72.728     1.7353
      156.6     3.4136     76.186     1.7353
      156.6     3.4275     79.217     2.1711
      156.6     3.4459      82.68     1.7353
      156.6     3.4689     87.876     1.7353
      156.6     3.4916     86.565     1.7353
      156.6     3.5142     80.916     1.7334
      156.6     3.5368     77.869     3.0387
      156.6      3.555     76.126     2.6011
      156.6     3.5777     74.381     2.1691
      156.6     3.6049     71.767     1.7353
      156.6     3.6368     71.754     1.7353
      156.6     3.6595     69.575     3.0387
      156.6     3.6868     67.828     3.0368
      156.6     3.7097     70.422     2.1672
      156.6     3.7326     73.883     2.1691
      156.6     3.7598     69.967     2.6049
      156.6     3.7689     68.661     2.1672
      156.6     3.7962      68.65     2.1691
      156.6     3.8189      65.17     3.0368
      156.6     3.8418     67.329     2.1691
      156.6     3.8644     63.415     2.1691
      156.6     3.9099     62.962     2.1691
      156.6     3.9464     62.079     1.7353
      156.6     3.9691     60.335     1.3015
      156.6     3.9917     56.421     2.1691
      156.6     4.0327     56.837     2.1711
      156.6     4.0554     54.658     1.7353
      156.6     4.0828     55.515     2.1691
      156.6     4.1193     54.632     2.6049
      156.6     4.1466     54.186     2.1672
      156.6      4.165     57.649      2.171
      156.6     4.1879     59.375     1.7353
      156.6     4.2287     54.586      2.603
      156.6     4.2561     55.442      2.603
      156.6     4.2971     56.292     2.1691
      156.6       4.32     58.018     3.0406
      156.6     4.3475     61.477     1.7353
      156.6     4.3749       61.9     1.7353
      156.6     4.4113     61.884      2.603
      156.6     4.4478     61.001     3.0368
      156.6     4.4752     62.725     2.6049
      156.6     4.5028     67.052      2.603
      156.6     4.5257     70.079     1.7353
      156.6     4.5487     75.276     3.9044
      156.6     4.5672     80.474     1.7372
      156.6     4.5902     83.935     2.1691
      156.6     4.6088      92.17     3.0368
      156.6     4.6272     96.501     3.0368
      156.6     4.6547     99.092     2.1691
      156.6     4.6731     102.56     2.6049
      156.6     4.7004     102.11     3.0368
      156.6     4.7143     107.31     2.1691
      156.6     4.7373     110.77      2.603
      156.6     4.7558     115.97     2.1691
      156.6     4.7876     115.09     2.1672
      156.6     4.8151     118.11      2.603
      156.6     4.8425     117.67      2.171
      156.6     4.8744     118.96     2.1691
      156.6     4.8839     126.33     2.1691
      156.6     4.9112     125.01      2.603
      156.6     4.9296     128.48     1.7353
      156.6     4.9476     124.57      2.603
      156.6     4.9612     121.52     2.1691
      156.6     4.9796     125.42     2.1691
      156.6     4.9935     129.75     2.1672
      156.6     5.0165     134.95     2.1691
      156.6     5.0304     139.72      2.603
      156.6     5.0485     136.24      2.603
      156.6     5.0664     128.85     1.7353
      156.6     5.0798     124.08     2.1672
      156.6      5.107     121.46     2.6011
      156.6     5.1297     119.28     1.7353
      156.6     5.1432     114.94     2.1691
      156.6     5.1658     111.03      2.603
      156.6      5.193     106.24      2.603
      156.6     5.2153     97.122     2.1711
      156.6     5.2331     88.004      2.603
      156.6     5.2602     82.786      2.603
      156.6     5.2782     77.573     2.6049
      156.6     5.3008     73.225      2.603
      156.6     5.3275     59.331     3.0368
      156.6     5.3592     53.244     2.1691
      156.6     5.3821     56.271     1.7353
      156.6     5.3872     67.549      2.603
      156.6     5.4057     74.049     2.6049
      156.6     5.4196     79.249     2.1691
      156.6     5.4327     66.228      2.603
      156.6     5.4514     75.765     2.1691
      156.6     5.4695     73.588      2.171
      156.6      5.483     70.112     1.7372
      156.6     5.5014     72.273     2.1691
      156.6     5.5286     70.093     1.7353
      156.6     5.5425     73.991      2.603
      156.6     5.5565     80.493      2.171
      156.6     5.5748     83.522     2.1691
      156.6     5.5931     84.816     3.0368
      156.6     5.6027     94.356      2.603
      156.6     5.6211     98.687     5.1944
      156.6     5.6488     106.05     5.1925
      156.6     5.6811     113.85       0.86
      156.6     5.6992      112.1     8.6689
      156.6      5.718     123.37     4.3459
      156.6     5.7359     116.43     5.6264
      156.6     5.7682     124.66     6.5227
      156.6     5.8045      120.3     4.3478
      156.6      5.827     113.78     5.2136
      156.6     5.8451     110.74     3.4783
      156.6      5.863     104.66     1.7257
      156.6     5.8949     103.78      11.28
      156.6     5.8955     117.23     2.1615
      156.6      5.914     122.43     2.5972
      156.6     5.9279     127.63     9.5537
      156.6     5.9549     120.24     3.4783
      156.6     5.9731      118.5     7.3827
      156.6     5.9911     114.15     9.1142
      156.6     5.9997     102.43     2.1787
      156.6     6.0268     97.649     9.9876
      156.6      6.049     85.059     3.9121
      156.6     6.0717     83.314     6.5093
      156.6     6.0761      78.54     6.5131
      156.6     6.0893     69.857    0.87339
      156.6     6.1029     67.249     6.0774
      156.6     6.1118      63.34     2.5953
      156.6     6.1307     76.781     1.7353
      156.6     6.1309     81.987     3.0349
      156.6      6.135     70.706     2.6049
      156.6     6.1357     87.191     3.0291
      156.6     6.1542     92.823      1.311
      156.6     6.1771     94.115     5.6474
      156.6     6.1952     90.637     3.0502
      156.6      6.227      90.19     3.0502
      156.6     6.2544     89.745     11.706
      156.6     6.2734     105.79     7.8032
      156.6     6.2875     116.19      5.204
      156.6     6.2924       124. 7.6447E-03
      156.6     6.3062      126.6     9.9818
      156.6     6.3147     113.58     6.9451
      156.6     6.3237     109.24     4.7797
      156.6     6.3416     101.86     8.6842
      156.6     6.3505     97.079     11.289
      156.6     6.3728      87.96     4.7797
      156.6     6.3953     80.575     3.0425
      156.6     6.4133     74.928      1.311
      156.6     6.4361     75.786     9.9933
      156.6     6.4722     67.961     5.2212
      156.6     6.5085     64.476    0.42427
      156.6     6.5269     67.505     1.2919
      156.6     6.5453     70.968    0.87913
      156.6     6.5725     67.486     4.7664
      156.6     6.5819     74.857     5.6493
      156.6     6.6091     70.507     3.4649
      156.6      6.623     76.575     4.3478
      156.6     6.6457      74.83     3.9159
      156.6     6.6685     73.085     1.7449
      156.6     6.6867     73.511     6.9508
      156.6     6.7048     69.599     9.9857
      156.6     6.7272     61.347     11.723
      156.6     6.7449     51.361     7.3865
      156.6     6.7721     46.144    0.87913
      156.6     6.7952     53.076     32.967
      156.6     6.8059     88.646      1.311
      156.6     6.8243     91.675     4.3478
      156.6     6.8471     91.231     11.287
      156.6     6.8604     83.417     2.6144
      156.6     6.8878     84.707     12.155
      156.6     6.9099     69.079     8.6689
      156.6     6.9287     81.219     8.2485
      156.6     6.9376     76.443      6.947
      156.6     6.9507     65.158     316.54
ENDDATA            419
ENDSUBENT          435
SUBENT        C0827003   20080521   20080801   20080801       C086
BIB                  3          7
REACTION   (7-N-15(P,EL)7-N-15,,POL/DA,,ANA)
ERR-ANALYS (ERR-S) Error bars given on curves are statistical
            uncertainties, and do not include normalization
            incertainty (estimated 8%).
           (EN-ERR-DIG)  Digitizing error
           (ERR-DIG)    Digitizing error
STATUS     (CURVE) SD: Data from figs. 1,2 were digitized at NDS.
ENDBIB               7
COMMON               2          3
EN-ERR-DIG ERR-DIG
MEV        NO-DIM
 0.005      0.002
ENDCOMMON            3
DATA                 4        427
ANG        EN         DATA       ERR-S
ADEG       MEV        NO-DIM     NO-DIM
       98.8     2.8408    0.29585 1.8326E-02
       98.8      2.872    0.25442 2.2908E-02
       98.8     2.8944    0.24512 1.8354E-02
       98.8     2.9172    0.30454 1.8326E-02
       98.8     2.9355    0.35482 2.2908E-02
       98.8     2.9535    0.35471 2.2908E-02
       98.8     2.9619    0.25844 8.6993E-02
       98.8     2.9743 8.4259E-02    0.10538
       98.8     2.9958-7.1654E-02 2.2908E-02
       98.8     3.0142-3.0438E-03 2.7489E-02
       98.8     3.0283 9.3084E-02 3.6652E-02
       98.8     3.0507 9.7525E-02 2.7489E-02
       98.8     3.0732 9.2803E-02 3.2071E-02
       98.8     3.0956 8.3499E-02 2.7489E-02
       98.8     3.1193    0.28495 4.5815E-02
       98.8     3.1413     0.2115 4.1262E-02
       98.8     3.1544    0.15644 3.6624E-02
       98.8     3.1727    0.21589 3.6652E-02
       98.8     3.1997    0.21114 3.6652E-02
       98.8     3.2125    0.10109 4.1262E-02
       98.8     3.2339-7.7726E-02 3.6652E-02
       98.8     3.2556   -0.20615 4.5815E-02
       98.8     3.2741   -0.11005 4.1234E-02
       98.8     3.2967-8.7283E-02 3.6652E-02
       98.8     3.3152 4.2351E-03 2.2908E-02
       98.8     3.3338    0.10492 3.6652E-02
       98.8     3.3564    0.12768 2.7489E-02
       98.8     3.3652 9.0975E-02 3.2071E-02
       98.8     3.3829 4.5047E-02 4.1262E-02
       98.8     3.4105      0.164 3.6652E-02
       98.8     3.4239    0.15475 3.6652E-02
       98.8     3.4417    0.11799 3.2099E-02
       98.8     3.4638 6.7449E-02 4.1262E-02
       98.8     3.4825    0.18187 3.6652E-02
       98.8     3.5051    0.20006 3.6652E-02
       98.8     3.5278    0.24574 3.2071E-02
       98.8     3.5504    0.25934 5.0397E-02
       98.8     3.5684    0.27297 3.2071E-02
       98.8     3.5865    0.30035 3.2071E-02
       98.8     3.6091    0.30937 4.1234E-02
       98.8      3.636    0.31378 4.1206E-02
       98.8     3.6535     0.2312 4.1206E-02
       98.8      3.672    0.32272 3.6652E-02
       98.8     3.6896    0.26305 4.5815E-02
       98.8     3.7078    0.29043 4.5844E-02
       98.8     3.7349    0.31775 2.2908E-02
       98.8     3.7798    0.31288 1.8326E-02
       98.8     3.8022    0.31274 2.2880E-02
       98.8     3.8203    0.32637 2.7489E-02
       98.8     3.8386    0.38582 3.2099E-02
       98.8     3.8609    0.35819 3.2099E-02
       98.8     3.8878    0.35344 3.2071E-02
       98.8     3.9014     0.3671 2.2908E-02
       98.8     3.9145    0.31204 2.7489E-02
       98.8     3.9332    0.42188 3.6624E-02
       98.8     3.9553    0.37135 3.6652E-02
       98.8     3.9689    0.38043 2.7517E-02
       98.8     3.9824    0.39409 1.8354E-02
       98.8      3.996    0.40775 1.8326E-02
       98.8     4.0094    0.40766 1.8326E-02
       98.8     4.0319    0.40752 1.8326E-02
       98.8     4.0503    0.47155 3.2099E-02
       98.8     4.0816    0.46219 2.2908E-02
       98.8      4.104    0.43914 2.7517E-02
       98.8      4.122    0.45736 2.7489E-02
       98.8     4.1445    0.45721 2.7489E-02
       98.8     4.1624    0.43878 2.2908E-02
       98.8     4.1851    0.48445 1.8326E-02
       98.8     4.2075    0.47057 1.8298E-02
       98.8     4.2385    0.39706 2.2908E-02
       98.8     4.2971    0.43793 2.2936E-02
       98.8     4.3332    0.45603 3.2071E-02
       98.8     4.3551    0.37343 3.2071E-02
       98.8     4.3778    0.41452 5.0397E-02
       98.8     4.3864    0.33658 4.1234E-02
       98.8     4.3949    0.26322 5.0425E-02
       98.8      4.413    0.28143 5.0425E-02
       98.8      4.427    0.36381 4.5844E-02
       98.8     4.4441    0.23542 3.2071E-02
       98.8     4.4669    0.28567 3.6652E-02
       98.8     4.4755    0.22606 4.1262E-02
       98.8     4.4896    0.32677 4.1234E-02
       98.8     4.5077    0.34956 4.1234E-02
       98.8     4.5259     0.3861 3.2043E-02
       98.8     4.5486    0.42719 4.1234E-02
       98.8     4.5622    0.45002 3.2071E-02
       98.8     4.5843    0.37657 3.6652E-02
       98.8     4.5927    0.29405 4.1234E-02
       98.8      4.606    0.26189 4.5844E-02
       98.8     4.6241    0.27553 4.1234E-02
       98.8     4.6468    0.31204 2.7489E-02
       98.8     4.6602    0.30279 2.7489E-02
       98.8     4.6826    0.29349 4.1234E-02
       98.8     4.7006    0.29796 2.2880E-02
       98.8     4.7227    0.24742 2.2908E-02
       98.8     4.7492    0.16936 3.2071E-02
       98.8     4.7717    0.16922 2.7461E-02
       98.8     4.7936 8.6614E-02 2.7517E-02
       98.8     4.8115 6.8175E-02 2.7489E-02
       98.8      4.834 6.8035E-02 2.7489E-02
       98.8     4.8518 4.0433E-02 3.2099E-02
       98.8     4.8697 3.1157E-02 2.7489E-02
       98.8     4.8828-2.3906E-02 3.2043E-02
       98.8      4.896-7.8969E-02 3.6652E-02
       98.8     4.9228-9.2882E-02 4.5815E-02
       98.8     4.9501-4.2654E-02 2.7489E-02
       98.8     4.9728-6.1419E-03 5.0425E-02
       98.8     4.9822 7.6270E-02 3.2071E-02
       98.8     5.0092 7.1519E-02 5.9532E-02
       98.8     5.0172-8.8891E-02 4.1206E-02
       98.8     5.0298   -0.22642 3.2071E-02
       98.8     5.0475   -0.28609 4.5844E-02
       98.8     5.0702     -0.245 3.2099E-02
       98.8     5.0837   -0.22676 3.2071E-02
       98.8     5.1064   -0.19025 2.7489E-02
       98.8     5.1243   -0.20869 4.1234E-02
       98.8     5.1516   -0.14929 3.6652E-02
       98.8     5.1648   -0.18603 3.6652E-02
       98.8     5.1872   -0.20908 4.5815E-02
       98.8     5.1965   -0.15874 2.7489E-02
       98.8     5.2233   -0.18182 2.2908E-02
       98.8     5.2366   -0.20939 3.6652E-02
       98.8     5.2505   -0.13159 2.7489E-02
       98.8     5.2642   -0.10418 3.2071E-02
       98.8     5.2906   -0.18682 3.2071E-02
       98.8     5.2956-9.9798E-02 3.2071E-02
       98.8     5.3008 1.4713E-02 3.6652E-02
       98.8      5.311    0.22083 4.5787E-02
       98.8     5.3255    0.37651 2.7489E-02
       98.8      5.335    0.46809 2.2908E-02
       98.8      5.362     0.4725 2.2908E-02
       98.8      5.375    0.40369 3.2099E-02
       98.8     5.3931    0.41733 3.2071E-02
       98.8     5.4067    0.44473 4.1234E-02
       98.8      5.434    0.49038 3.2099E-02
       98.8     5.4555    0.33905 2.7517E-02
       98.8     5.4735     0.3481 2.2908E-02
       98.8     5.4991    0.11885 4.5844E-02
       98.8     5.5111   -0.11947 4.5815E-02
       98.8     5.5292   -0.10584 3.2071E-02
       98.8     5.5556   -0.19764 4.1234E-02
       98.8     5.5737   -0.17026 3.6652E-02
       98.8     5.6002    -0.2529 4.1234E-02
       98.8     5.6098   -0.15216 3.2071E-02
       98.8     5.6361   -0.25771 3.6652E-02
       98.8     5.6586   -0.25785 4.1234E-02
       98.8     5.6803   -0.37253 4.1234E-02
       98.8     5.6805   -0.33587 3.2071E-02
       98.8     5.7117   -0.38189 2.2908E-02
       98.8     5.7297   -0.37742 4.1262E-02
       98.8      5.743   -0.41415 2.7489E-02
       98.8     5.7701   -0.39142 3.2071E-02
       98.8      5.788   -0.38695 3.2071E-02
       98.8     5.8102   -0.43748 4.1234E-02
       98.8     5.8145   -0.46958 3.2071E-02
       98.8     5.8319   -0.56591 3.6652E-02
       98.8     5.8498   -0.57518 3.2071E-02
       98.8     5.8628   -0.65774 2.7489E-02
       98.8     5.8765     -0.612 2.7517E-02
       98.8     5.8947   -0.58463 2.7489E-02
       98.8     5.9084   -0.54348 2.7517E-02
       98.8     5.9402   -0.48412 3.2071E-02
       98.8     5.9623    -0.5484 3.2071E-02
       98.8      5.985   -0.50272 3.2071E-02
       98.8     6.0079   -0.42498 3.2071E-02
       98.8     6.0304   -0.42054 3.2071E-02
       98.8     6.0578    -0.3474 2.7517E-02
       98.8     6.0758   -0.33835 2.7517E-02
       98.8     6.0941   -0.28348 2.2908E-02
       98.8     6.1169   -0.23781 2.7517E-02
       98.8     6.1394   -0.22879 2.2908E-02
       98.8     6.1574   -0.22432 2.7489E-02
       98.8     6.1657   -0.33891 3.6680E-02
       98.8     6.1832   -0.41233 3.6652E-02
       98.8     6.2011   -0.42619 4.1234E-02
       98.8     6.2191    -0.4263 3.6652E-02
       98.8     6.2371   -0.41267 3.2099E-02
       98.8     6.2598   -0.37157 2.7489E-02
       98.8     6.2778    -0.3671 3.2071E-02
       98.8     6.2915   -0.33054 3.6624E-02
       98.8     6.3137   -0.36733 3.2071E-02
       98.8     6.3401   -0.45913 4.1262E-02
       98.8     6.3579   -0.49131 3.6652E-02
       98.8     6.3759   -0.49142 3.6652E-02
       98.8     6.3846   -0.54188 3.2071E-02
       98.8     6.4066   -0.60616 2.7461E-02
       98.8      6.429   -0.62005 3.6680E-02
       98.8     6.4469   -0.62932 3.6652E-02
       98.8      6.465   -0.62027 2.7489E-02
       98.8      6.483    -0.6158 2.7489E-02
       98.8     6.5011   -0.57926 2.2880E-02
       98.8      6.524   -0.51526 2.7489E-02
       98.8      6.542   -0.50163 2.7489E-02
       98.8     6.5646   -0.47886 3.2043E-02
       98.8     6.5962   -0.46531 2.7489E-02
       98.8       6.61   -0.41042 2.7489E-02
       98.8     6.6367   -0.44724 2.2908E-02
       98.8     6.6548   -0.42903 2.7489E-02
       98.8     6.6771   -0.45207 3.6652E-02
       98.8     6.6953   -0.40637 3.2071E-02
       98.8     6.7089   -0.38813 2.7489E-02
       98.8     6.7274   -0.31036 2.7489E-02
       98.8      6.742    -0.1226 2.7489E-02
       98.8     6.7698 1.9262E-02 2.7489E-02
       98.8     6.7955   -0.17791 3.6680E-02
       98.8     6.8164    -0.4392 1.8326E-02
       98.8     6.8301   -0.41638 1.8298E-02
       98.8     6.8612   -0.46697 2.7489E-02
       98.8     6.8793   -0.44418 5.4894E-02
       98.8     6.9152    -0.4444 2.7461E-02
       98.8     6.9374   -0.49952 2.2880E-02
       98.8     6.9553   -0.50422 2.7461E-02
      156.6     2.6891    0.17287 2.6767E-02
      156.6     2.8624    0.19453 2.6784E-02
      156.6     2.8855    0.25694 2.2320E-02
      156.6     2.9037    0.26134 1.7874E-02
      156.6     2.9178    0.36843 2.6784E-02
      156.6     2.9407    0.39512 2.2320E-02
      156.6     2.9726    0.38607 2.2338E-02
      156.6     2.9886     -0.172 2.2303E-02
      156.6     2.9895 4.2272E-02    0.11607
      156.6     3.0162   -0.10961 2.6784E-02
      156.6     3.0347-4.7183E-02 2.2320E-02
      156.6     3.0396 4.6546E-02 1.7856E-02
      156.6     3.0576-7.0922E-03 3.1249E-02
      156.6     3.0672    0.10001 3.1266E-02
      156.6     3.0944 7.3123E-02 2.6784E-02
      156.6     3.1173 8.6429E-02 2.6802E-02
      156.6     3.1358    0.16671 3.1231E-02
      156.6      3.163    0.12197 2.6784E-02
      156.6     3.1904    0.12633 2.2320E-02
      156.6     3.2084 7.2691E-02 2.6784E-02
      156.6     3.2264 2.3517E-02 2.6802E-02
      156.6     3.2399-3.9032E-02 3.1249E-02
      156.6     3.2533-9.2652E-02 2.6784E-02
      156.6      3.271   -0.23557 2.6767E-02
      156.6      3.289   -0.29367 2.6784E-02
      156.6     3.3166   -0.22682 2.2320E-02
      156.6     3.3214   -0.16434 2.2320E-02
      156.6     3.3308-9.2946E-02 2.6784E-02
      156.6     3.3444   -0.12871 2.6784E-02
      156.6     3.3628-7.9675E-02 2.6784E-02
      156.6     3.3676-2.1659E-02 1.7856E-02
      156.6     3.3814 2.2930E-02 2.2320E-02
      156.6     3.3953 6.3055E-02 2.6784E-02
      156.6     3.4182 9.8681E-02 2.6784E-02
      156.6     3.4367    0.15218 2.2338E-02
      156.6      3.455     0.1789 2.6802E-02
      156.6     3.4825    0.21451 2.2338E-02
      156.6      3.501    0.27247 2.2303E-02
      156.6     3.5236    0.23667 2.6784E-02
      156.6     3.5376    0.31251 2.2320E-02
      156.6     3.5605    0.34813 2.2320E-02
      156.6     3.5925     0.3614 2.2338E-02
      156.6     3.6199    0.37023 2.6802E-02
      156.6     3.6472    0.37459 2.6767E-02
      156.6     3.6702    0.41022 3.1249E-02
      156.6      3.679    0.33429 2.6767E-02
      156.6     3.6973    0.34762 2.6784E-02
      156.6       3.72     0.3386 3.1248E-02
      156.6     3.7428    0.34298 3.1266E-02
      156.6     3.7568    0.40542 2.2303E-02
      156.6     3.7793    0.32945 1.3392E-02
      156.6     3.7977    0.37402 2.6784E-02
      156.6     3.8116    0.44539 3.1266E-02
      156.6     3.8435    0.44081 2.2320E-02
      156.6     3.8619    0.48092 2.2320E-02
      156.6     3.8847    0.48083 3.1266E-02
      156.6     3.9074    0.45396 2.2338E-02
      156.6     3.9393     0.4583 2.6785E-02
      156.6     3.9713    0.46711 3.1249E-02
      156.6      3.994    0.44917 3.1231E-02
      156.6      4.026    0.47583 2.2320E-02
      156.6     4.0487    0.45789 3.1249E-02
      156.6     4.0806    0.44884 3.1249E-02
      156.6     4.0989    0.47109 2.2303E-02
      156.6     4.1216    0.44868 3.1249E-02
      156.6      4.149    0.44858 2.6784E-02
      156.6     4.1674    0.48422 2.6784E-02
      156.6     4.1809    0.43953 3.1249E-02
      156.6     4.2038    0.47516 3.1266E-02
      156.6     4.2219    0.43491 2.2320E-02
      156.6     4.2446     0.4259 2.6802E-02
      156.6     4.2811    0.42129 3.1231E-02
      156.6     4.3084    0.41226 3.1231E-02
      156.6     4.3266    0.40326 2.2320E-02
      156.6     4.3538    0.35406 1.7856E-02
      156.6     4.3669    0.22901 3.1249E-02
      156.6     4.3802    0.13521 3.5713E-02
      156.6     4.4031    0.15298 1.7856E-02
      156.6     4.4121    0.11277 3.1249E-02
      156.6     4.4307    0.20198 2.6784E-02
      156.6     4.4624    0.15722 1.7856E-02
      156.6     4.4763    0.21074 2.2320E-02
      156.6     4.5035    0.18832 2.6784E-02
      156.6     4.5124    0.11686 2.6767E-02
      156.6     4.5356    0.21944 2.6802E-02
      156.6     4.5491    0.17475 3.1266E-02
      156.6     4.5627    0.14791 2.6784E-02
      156.6     4.5765    0.19697 2.2303E-02
      156.6     4.5854    0.12551 2.2320E-02
      156.6     4.6083    0.15667 2.6767E-02
      156.6     4.6265    0.16553 2.2320E-02
      156.6     4.6493    0.15651 1.7856E-02
      156.6     4.6903    0.14743 2.2338E-02
      156.6     4.7176    0.13393 2.6802E-02
      156.6      4.754     0.1204 2.6767E-02
      156.6     4.7678    0.14714 2.2320E-02
      156.6      4.795    0.12025 2.2320E-02
      156.6     4.8225      0.138 1.7856E-02
      156.6     4.8453    0.14238 2.2320E-02
      156.6      4.868    0.11997 2.2320E-02
      156.6     4.8818    0.16456 2.2320E-02
      156.6      4.909    0.11982 2.2320E-02
      156.6     4.9592    0.13302 2.2303E-02
      156.6      4.982    0.12847 2.6784E-02
      156.6     4.9909 7.0401E-02 2.6784E-02
      156.6     5.0089 1.6763E-02 3.1266E-02
      156.6      5.013-9.4856E-02 3.5713E-02
      156.6     5.0172   -0.17523 2.2320E-02
      156.6     5.0307   -0.23331 2.6802E-02
      156.6     5.0491   -0.20213 2.2320E-02
      156.6     5.0538   -0.14858 2.2320E-02
      156.6     5.0677   -0.10399 3.5713E-02
      156.6     5.0767   -0.11742 2.2320E-02
      156.6     5.0817-1.0298E-02 2.2320E-02
      156.6     5.0998-4.6080E-02 2.6767E-02
      156.6     5.1047 2.5328E-02 2.2320E-02
      156.6     5.1181-3.7220E-02 2.2320E-02
      156.6     5.1364-2.3897E-02 1.7856E-02
      156.6     5.1504 6.9796E-02 2.2320E-02
      156.6     5.1593 2.8007E-03 3.1266E-02
      156.6     5.1867 1.1625E-02 2.2320E-02
      156.6     5.2051 6.5125E-02 2.2338E-02
      156.6     5.2322 6.9884E-03 2.6784E-02
      156.6     5.2507 6.0488E-02 2.6784E-02
      156.6     5.2688 2.4707E-02 2.2320E-02
      156.6     5.2917 5.5869E-02 2.2338E-02
      156.6       5.31 6.4728E-02 3.1231E-02
      156.6     5.3148    0.14506 1.7839E-02
      156.6     5.3423    0.16282 1.7856E-02
      156.6     5.3606    0.19846 2.6784E-02
      156.6     5.3699    0.24307 2.6784E-02
      156.6     5.3974    0.27421 3.1249E-02
      156.6     5.4384    0.26066 2.6784E-02
      156.6      5.466    0.34091 2.6784E-02
      156.6     5.4799    0.38997 2.6802E-02
      156.6     5.5029    0.42559 2.2320E-02
      156.6     5.5303    0.44335 3.1248E-02
      156.6     5.5391    0.38081 3.1248E-02
      156.6     5.5571    0.30485 2.6785E-02
      156.6      5.566    0.26464 2.2320E-02
      156.6     5.5841     0.2244 3.1231E-02
      156.6      5.602    0.14398 2.6784E-02
      156.6     5.6161    0.24213 2.6784E-02
      156.6     5.6436    0.27328 2.6784E-02
      156.6      5.657    0.21966 2.2338E-02
      156.6     5.6798    0.22404 1.7874E-02
      156.6     5.7027    0.24181 2.2320E-02
      156.6     5.7302    0.27741 2.6784E-02
      156.6     5.7576    0.28624 2.6784E-02
      156.6     5.7805     0.3174 3.1249E-02
      156.6     5.8079    0.33515 2.6784E-02
      156.6     5.8353    0.33059 3.5713E-02
      156.6     5.8488    0.29482 2.6802E-02
      156.6     5.8666    0.17869 3.1249E-02
      156.6       5.88    0.11614 2.2320E-02
      156.6     5.8935 7.1445E-02 2.6784E-02
      156.6      5.907 1.3360E-02 3.5713E-02
      156.6     5.9346 7.5753E-02 3.1249E-02
      156.6     5.9433-1.3563E-02 3.1249E-02
      156.6     5.9845 3.5387E-02 2.6784E-02
      156.6     6.0165 5.3122E-02 3.1249E-02
      156.6     6.0441    0.11105 2.6784E-02
      156.6     6.0622 7.5270E-02 3.1231E-02
      156.6     6.0897    0.10641 3.1266E-02
      156.6     6.1171    0.12863 2.6802E-02
      156.6     6.1355    0.15981 2.6784E-02
      156.6     6.1493     0.2044 2.6802E-02
      156.6     6.1632    0.25792 2.6784E-02
      156.6     6.1767    0.21769 2.6784E-02
      156.6     6.1948    0.17744 2.6784E-02
      156.6     6.2132    0.22648 2.2320E-02
      156.6     6.2266      0.155 2.2320E-02
      156.6     6.2492 8.7954E-02 2.6784E-02
      156.6     6.2626 3.4333E-02 2.6767E-02
      156.6     6.2714-4.1591E-02 3.1249E-02
      156.6     6.2854 3.4247E-02 3.1231E-02
      156.6     6.2943-2.3821E-02 2.2320E-02
      156.6      6.304    0.12792 2.2338E-02
      156.6      6.309    0.24397 2.6784E-02
      156.6      6.323    0.31535 1.7839E-02
      156.6     6.3324     0.3912 2.2320E-02
      156.6     6.3645    0.43126 2.2338E-02
      156.6     6.3733    0.36872 3.1249E-02
      156.6     6.3828    0.44904 3.1248E-02
      156.6     6.3963    0.41774 4.0177E-02
      156.6     6.4058     0.4936 2.2320E-02
      156.6     6.4106    0.55608 3.5730E-02
      156.6     6.4237    0.43103 2.6767E-02
      156.6     6.4331    0.48457 3.1249E-02
      156.6     6.4514    0.50682 3.1266E-02
      156.6     6.4698    0.54246 1.7839E-02
      156.6      6.492    0.40845 3.1249E-02
      156.6     6.5146    0.34587 2.6784E-02
      156.6      6.528    0.27439 3.1249E-02
      156.6     6.5508    0.27877 3.5695E-02
      156.6     6.5782    0.30545 2.2338E-02
      156.6     6.5967    0.35449 3.1248E-02
      156.6     6.6194    0.34547 2.6784E-02
      156.6     6.6333    0.39006 2.6784E-02
      156.6     6.6604    0.34085 3.1249E-02
      156.6     6.6746    0.46579 2.6784E-02
      156.6     6.6972    0.42553 2.6767E-02
      156.6     6.7151    0.32725 2.2320E-02
      156.6     6.7378    0.31377 2.6784E-02
      156.6      6.756    0.30031 1.7856E-02
      156.6     6.7748    0.45202 3.1248E-02
      156.6     6.7935    0.55016 2.2320E-02
      156.6     6.8208    0.54559 3.5695E-02
      156.6     6.8481    0.54103 3.1249E-02
      156.6     6.8752    0.47396 4.4658E-02
      156.6     6.8942    0.64799 4.0194E-02
      156.6     6.9121    0.58543 2.6784E-02
      156.6      6.926    0.63001 4.4641E-02
      156.6     6.9445    0.69691 4.0194E-02
      156.6     6.9628    0.70577 4.4641E-02
ENDDATA            429
ENDSUBENT          445
SUBENT        C0827004   20020515   20020815   20050926       0000
BIB                  5         11
REACTION  1(7-N-15(P,0),,J)
          2(7-N-15(P,0),,PTY)
          3(7-N-15(P,0),,L)
          4(7-N-15(P,TOT),,WID)
          5(7-N-15(P,EL),,WID)
ANALYSIS   Phase-shift analysis.
CORRECTION Widths corrected for beam energy resolution.
FLAG       (1.) Spin and parity 1+ or 2+.
           (2.) Spin and parity 3+ or 4+.
           (3.) Spin and parity 2- or 1-.
STATUS     Data taken from Table 3 of reference.
ENDBIB              11
NOCOMMON             0          0
DATA                10         17
EN-RES     EN-RES-ERR DATA      1DATA      2DATA      3DATA-CM   4
DATA-ERR  4DATA-CM   5DATA-ERR  5FLAG
MEV        KEV        NO-DIM     NO-DIM     NO-DIM     KEV
KEV        KEV        KEV        NO-DIM
  2.980      10.        2.         1.         1.        44.
  6.        20.         3.
  3.254      10.        2.        -1.         2.        64.
  5.        35.         3.
  3.498       8.        3.        -1.         2.       104.
 14.
  4.35       90.        1.        -1.         0.       620.
 56.       210.        38.
  4.354       6.                              1.        22.
  5.         7.         3.         1.
  4.505      12.        0.         1.         1.        65.
  8.        53.        12.
  5.000       6.                              3.        27.
  4.         7.         2.         2.
  5.30       40.        1.        -1.         0.       380.
 40.        24.         6.
  5.327       6.        1.         1.         1.        29.
  5.        11.         2.
  5.484      15.        1.        -1.         0.        78.
 10.        32.         4.
  5.848       8.        2.         1.         1.       110.
 14.        37.         8.
  6.10      100.        2.        -1.         2.       820.
100.       500.       100.
  6.136       8.                              2.        25.
  3.         9.         2.         3.
  6.298       8.        3.        -1.         2.        33.
  6.        13.         3.
  6.490      15.        2.         1.         1.       140.
 24.        33.        12.
  6.727      15.        2.         1.         1.        91.
 38.        11.         6.
  6.785       6.        1.        -1.         2.        35.
  6.        17.         3.
ENDDATA             38
ENDSUBENT           54
SUBENT        C0827005   20080521   20080801   20080801       C086
BIB                  3          4
REACTION   (7-N-15(P,EL)7-N-15,,DA)
ERR-ANALYS (ANG-ERR-D)  Digitizing error
           (ERR-DIG)    Digitizing error
STATUS     (CURVE) SD: Data from figs. 3-5 were digitized at NDS.
ENDBIB               4
COMMON               2          3
ANG-ERR-D  ERR-DIG
ADEG       PER-CENT
 0.5         0.2
ENDCOMMON            3
DATA                 3        210
EN         ANG        DATA
MEV        ADEG       MB/SR
 2.9790     39.022     695.31
 2.9790     48.844     356.07
 2.9790     59.045     253.13
 2.9790     68.901     195.94
 2.9790     78.755     149.84
 2.9790     88.611     117.40
 2.9790     98.463     86.563
 2.9790     108.67     70.339
 2.9790     118.89     57.156
 2.9790     129.11     51.185
 2.9790     138.97     45.840
 2.9790     148.84     42.577
 2.9790     159.07     39.544
 2.9790     168.24     40.481
 3.0610     39.349     728.05
 3.0610     49.115     357.83
 3.0610     58.903     203.64
 3.0610     68.712     132.55
 3.0610     78.910     108.81
 3.0610     89.112     91.532
 3.0610     98.974     83.876
 3.0610     108.84     80.708
 3.0610     119.08     85.627
 3.0610     129.32     89.743
 3.0610     139.21     101.21
 3.0610     149.10     104.80
 3.0610     158.97     107.19
 3.0610     168.50     107.00
 3.2450     38.845     813.38
 3.2450     48.625     360.37
 3.2450     58.781     194.42
 3.2450     69.287     102.33
 3.2450     78.767     70.632
 3.2450     88.975     59.361
 3.2450     98.514     67.878
 3.2450     108.76     79.544
 3.2450     119.03     106.74
 3.2450     128.93     141.48
 3.2450     138.83     169.93
 3.2450     148.73     206.64
 3.2450     158.97     233.38
 3.2450     168.51     257.18
 3.4100     38.800     557.86
 3.4100     48.580     246.62
 3.4100     58.732     128.00
 3.4100     68.930     98.623
 3.4100     79.157     97.269
 3.4100     88.667     86.921
 3.4100     98.548     90.072
 3.4100     108.76     81.481
 3.4100     118.99     82.372
 3.4100     128.86     78.292
 3.4100     138.75     84.192
 3.4100     148.62     79.039
 3.4100     158.84     76.053
 3.4100     168.37     78.815
 3.6360     38.636     520.24
 3.6360     48.799     230.58
 3.6360     58.989     142.51
 3.6360     69.187     97.190
 3.6360     79.413     94.730
 3.6360     88.928     85.763
 3.6360     99.156     84.628
 3.6360     109.03     84.546
 3.6360     119.26     86.566
 3.6360     129.49     82.323
 3.6360     139.01     81.239
 3.6360     149.23     74.455
 3.6360     158.75     73.475
 3.6360     168.62     68.176
 4.5260     37.089     280.54
 4.5260     47.094     141.07
 4.5260     57.807     77.274
 4.5260     67.840     47.851
 4.5260     77.555     37.396
 4.5260     88.313     28.864
 4.5260     98.080     33.381
 4.5260     107.84     36.311
 4.5260     117.98     52.347
 4.5260     127.40     62.043
 4.5260     136.47     70.023
 4.5260     146.57     70.770
 4.5260     155.61     68.117
 4.5260     165.00     63.194
 4.8120     36.961     253.60
 4.8120     49.087     137.94
 4.8120     57.728     72.377
 4.8120     68.113     38.902
 4.8120     77.835     29.743
 4.8120     88.262     25.061
 4.8120     98.385     33.506
 4.8120     107.82     48.778
 4.8120     118.30     69.297
 4.8120     127.72     86.143
 4.8120     136.44     105.80
 4.8120     146.20     115.06
 4.8120     155.25     117.77
 4.8120     165.00     120.53
 5.0850     36.972     282.50
 5.0850     48.398     148.68
 5.0850     57.386     77.328
 5.0850     67.785     48.206
 5.0850     78.206     38.268
 5.0850     87.943     34.285
 5.0850     98.059     42.568
 5.0850     107.48     52.856
 5.0850     117.60     70.561
 5.0850     127.37     86.559
 5.0850     136.10     112.81
 5.0850     146.20     121.15
 5.0850     154.92     136.58
 5.0850     164.32     146.70
 5.3270     37.431     270.01
 5.3270     48.477     132.21
 5.3270     57.462     79.797
 5.3270     68.202     53.773
 5.3270     77.922     43.573
 5.3270     87.660     40.414
 5.3270     98.448     39.364
 5.3270     108.56     46.101
 5.3270     117.63     50.785
 5.3270     127.38     52.607
 5.3270     136.44     53.835
 5.3270     146.19     57.859
 5.3270     155.59     55.002
 5.3270     164.98     51.647
 5.7220     36.701     204.05
 5.7220     48.816     120.28
 5.7220     57.770     57.599
 5.7220     68.136     31.943
 5.7220     78.551     25.580
 5.7220     89.019     30.687
 5.7220     98.790     36.816
 5.7220     108.56     43.102
 5.7220     118.34     57.034
 5.7220     127.77     70.991
 5.7220     136.85     87.294
 5.7220     146.96     100.95
 5.7220     155.69     124.14
 5.7220     165.09     123.95
 5.8660     37.112     267.10
 5.8660     48.028     155.05
 5.8660     58.620     70.629
 5.8660     68.504     34.180
 5.8660     78.682     28.192
 5.8660     88.098     41.597
 5.8660     98.578     53.723
 5.8660     108.72     63.739
 5.8660     118.51     71.173
 5.8660     127.95     83.417
 5.8660     136.70     87.658
 5.8660     146.50     94.387
 5.8660     155.60     105.39
 5.8660     165.76     101.76
 6.1290     37.160     174.20
 6.1290     47.740     87.537
 6.1290     58.662     47.949
 6.1290     68.148     36.168
 6.1290     78.296     39.476
 6.1290     88.089     45.260
 6.1290     98.939     48.800
 6.1290     108.39     50.078
 6.1290     118.56     47.735
 6.1290     128.02     44.940
 6.1290     137.12     47.265
 6.1290     146.93     47.326
 6.1290     156.03     49.165
 6.1290     165.82     59.214
 6.3520     37.485     217.87
 6.3520     48.067     108.34
 6.3520     58.663     47.070
 6.3520     68.868     29.922
 6.3520     78.652     37.372
 6.3520     88.421     53.427
 6.3520     98.921     57.591
 6.3520     108.39     52.912
 6.3520     118.55     48.025
 6.3520     128.01     47.497
 6.3520     137.10     58.593
 6.3520     146.88     74.086
 6.3520     156.30     103.34
 6.3520     165.74     118.43
 6.5850     37.246     230.56
 6.5850     47.813     96.942
 6.5850     58.371     46.622
 6.5850     68.900     33.966
 6.5850     78.345     40.333
 6.5850     87.784     52.810
 6.5850     98.632     60.459
 6.5850     108.44     58.332
 6.5850     118.25     55.596
 6.5850     127.71     51.080
 6.5850     137.52     53.682
 6.5850     146.62     60.703
 6.5850     156.06     72.081
 6.5850     165.51     78.578
 6.9400     37.596     236.38
 6.9400     48.160     102.64
 6.9400     58.711     54.920
 6.9400     68.542     38.973
 6.9400     77.997     39.974
 6.9400     88.142     47.513
 6.9400     98.650     47.555
 6.9400     108.45     51.866
 6.9400     118.61     51.277
 6.9400     128.07     50.073
 6.9400     137.18     47.127
 6.9400     146.97     61.042
 6.9400     156.41     70.790
 6.9400     166.22     75.335
ENDDATA            212
ENDSUBENT          225
SUBENT        C0827006   20080521   20080801   20080801       C086
BIB                  3          7
REACTION   (7-N-15(P,EL)7-N-15,,POL/DA,,ANA)
ERR-ANALYS (ERR-S) Error bars given on curves are statistical
            uncertainties, and do not include normalization
            incertainty (estimated 8%).
           (ANG-ERR-D)  Digitizing error
           (ERR-DIG)    Digitizing error
STATUS     (CURVE) SD: Data from figs. 3-5 were digitized at NDS.
ENDBIB               7
COMMON               2          3
ANG-ERR-D  ERR-DIG
ADEG       NO-DIM
 0.5        0.002
ENDCOMMON            3
DATA                 4        207
EN         ANG        DATA       ERR-S
MEV        ADEG       NO-DIM     NO-DIM
 2.9790     37.319    -.27340E-01
 2.9790     47.005    -.66535E-01
 2.9790     56.694    -.98650E-01
 2.9790     66.742    -.77680E-01
 2.9790     76.805    -.75540E-04
 2.9790     86.508    0.24444E-010.17698E-01
 2.9790     96.569    0.91429E-010.24778E-01
 2.9790     106.64    0.18319    0.21238E-01
 2.9790     116.33    0.16524    0.17698E-01
 2.9790     126.72    0.16850    0.17707E-01
 2.9790     136.06    0.15055    0.14168E-01
 2.9790     145.06    0.11491    0.21238E-01
 2.9790     155.43    0.33226E-010.24778E-01
 2.9790     164.43    0.25906E-01
 3.0610     37.305    -.20555E-010.28828E-01
 3.0610     47.666    -.18651    0.28834E-01
 3.0610     57.366    -.16867    0.28828E-01
 3.0610     67.417    -.12201    0.39639E-01
 3.0610     77.460    -.12220    0.36035E-01
 3.0610     86.481    -.25072E-010.25231E-01
 3.0610     96.545    0.97260E-010.36029E-01
 3.0610     106.59    0.13311    0.39645E-01
 3.0610     116.64    0.13653    0.36035E-01
 3.0610     126.69    0.19039    0.28828E-01
 3.0610     136.04    0.19382    0.36029E-01
 3.0610     146.07    0.11436    0.32432E-01
 3.0610     155.77    0.11778    0.25218E-01
 3.0610     165.11    0.45537E-010.25231E-01
 3.2450     37.315    -.31449    0.28362E-01
 3.2450     47.318    -.40360    0.31891E-01
 3.2450     57.090    -.23743    0.28379E-01
 3.2450     67.238    -.74682E-020.35453E-01
 3.2450     76.990    0.11261    0.49634E-01
 3.2450     86.379    0.19725    0.53196E-01
 3.2450     96.642    -.79780E-010.38998E-01
 3.2450     106.55    -.37097    0.49634E-01
 3.2450     116.28    -.29699    0.46105E-01
 3.2450     126.68    -.27975    0.24817E-01
 3.2450     135.73    -.18446    0.38982E-01
 3.2450     146.12    -.18141    0.28346E-01
 3.2450     156.20    -.10035    0.24834E-01
 3.2450     165.57    -.58253E-010.21272E-01
 3.4100     37.304    -.31983E-010.24773E-01
 3.4100     47.347    -.32166E-010.38929E-01
 3.4100     57.402    0.38431E-010.28312E-01
 3.4100     67.109    0.94878E-010.38935E-01
 3.4100     77.493    0.66377E-010.38923E-01
 3.4100     86.857    0.14407    0.42468E-01
 3.4100     96.905    0.17219    0.35384E-01
 3.4100     106.60    0.17910    0.35384E-01
 3.4100     116.64    0.13645    0.38929E-01
 3.4100     126.69    0.19996    0.42468E-01
 3.4100     136.38    0.13962    0.42468E-01
 3.4100     146.42    0.11113    0.31851E-01
 3.4100     156.11    0.86181E-010.35390E-01
 3.4100     165.45    0.15231E-010.28312E-01
 3.6360     37.710    -.71345E-010.22076E-01
 3.6360     47.355    -.25195    0.33114E-01
 3.6360     57.409    -.21548    0.33114E-01
 3.6360     66.774    -.16426    0.33114E-01
 3.6360     77.535    -.76305E-010.36794E-01
 3.6360     86.597    0.12945    0.36794E-01
 3.6360     97.041    0.32044    0.47832E-01
 3.6360     106.75    0.36061    0.40484E-01
 3.6360     116.48    0.47803    0.51522E-01
 3.6360     126.54    0.55498    0.36794E-01
 3.6360     136.22    0.47372    0.58870E-01
 3.6360     146.24    0.40349    0.33114E-01
 3.6360     155.92    0.35166    0.33114E-01
 3.6360     165.60    0.26305    0.36794E-01
 4.5260     36.984    -.48055    0.38813E-01
 4.5260     67.806    -.35128    0.38813E-01
 4.5260     78.464    0.61110E-01
 4.5260     87.719    0.46297    0.24699E-01
 4.5260     98.590    0.54015    0.24699E-01
 4.5260     107.62    0.39863
 4.5260     118.42    0.30644
 4.5260     128.20    0.26017
 4.5260     136.92    0.21393
 4.5260     146.35    0.18884    0.24699E-01
 4.5260     156.13    0.16726    0.24714E-01
 4.5260     166.26    0.13156    0.24699E-01
 4.8120     37.268    -.56794
 4.8120     45.972    -.70218
 4.8120     57.904    -.54384
 4.8120     67.830    -.57506E-010.21147E-01
 4.8120     78.048    0.22430    0.28209E-01
 4.8120     87.513    0.31219    0.38788E-01
 4.8120     97.934    0.65056E-010.31736E-01
 4.8120     107.69    -.51586E-010.31736E-01
 4.8120     117.47    -.97704E-010.31736E-01
 4.8120     127.28    -.34511E-010.28209E-01
 4.8120     136.40    0.74543E-010.24683E-01
 4.8120     146.54    0.98938E-01
 4.8120     156.00    0.14098    0.35262E-01
 4.8120     166.13    0.11249    0.21157E-01
 5.0850     36.530    -.51232    0.28678E-01
 5.0850     45.988    -.45167    0.39432E-01
 5.0850     57.623    -.12223    0.39422E-01
 5.0850     67.575    0.43311
 5.0850     77.422    0.62639    0.25093E-01
 5.0850     87.431    0.18156
 5.0850     98.129    -.30271
 5.0850     107.52    -.47507
 5.0850     117.68    -.40727
 5.0850     127.50    -.30361
 5.0850     136.28    -.16049
 5.0850     146.45    -.78352E-01
 5.0850     155.90    -.21286E-01
 5.0850     165.69    -.21587E-01
 5.3270     36.523    -.33362    0.35462E-01
 5.3270     45.972    -.29841    0.31916E-01
 5.3270     57.916    -.82412E-010.28369E-01
 5.3270     66.747    0.26488    0.24823E-01
 5.3270     77.673    0.60148    0.28360E-01
 5.3270     86.776    0.64734    0.35453E-01
 5.3270     97.919    0.46973    0.28369E-01
 5.3270     108.03    0.36662    0.31925E-01
 5.3270     117.44    0.23162    0.24823E-01
 5.3270     127.22    0.18880    0.28370E-01
 5.3270     136.31    0.19565    0.17731E-01
 5.3270     146.11    0.23086    0.31925E-01
 5.3270     156.24    0.20222    0.28379E-01
 5.3270     165.68    0.19133    0.35462E-01
 5.7220     36.233    -.59972    0.24683E-01
 5.7220     46.410    -.50491    0.28223E-01
 5.7220     57.748    -.12453    0.28224E-01
 5.7220     66.666    0.32647    0.31736E-01
 5.7220     77.543    0.42124    0.42314E-01
 5.7220     87.193    0.64708E-010.35262E-01
 5.7220     97.862    -.36945    0.31722E-01
 5.7220     107.94    -.51443    0.31736E-01
 5.7220     117.43    -.39139    0.24683E-01
 5.7220     127.33    -.11321    0.31736E-01
 5.7220     135.81    0.10861    0.24683E-01
 5.7220     145.30    0.23517    0.21157E-01
 5.7220     154.76    0.27006    0.31750E-01
 5.7220     165.57    0.20615    0.24683E-01
 5.8660     36.290    -.45654    0.28188E-01
 5.8660     46.094    -.33291    0.28188E-01
 5.8660     57.580    0.30376E-010.17617E-01
 5.8660     68.359    0.40773    0.35246E-01
 5.8660     78.549    0.41862    0.42282E-01
 5.8660     88.587    -.21178    0.35224E-01
 5.8660     98.212    -.64487    0.38758E-01
 5.8660     107.73    -.73267    0.38769E-01
 5.8660     117.22    -.71828    0.31722E-01
 5.8660     127.69    -.48540    0.28188E-01
 5.8660     136.74    -.19971    0.24675E-01
 5.8660     147.21    0.40219E-010.24654E-01
 5.8660     156.33    0.10040    0.24664E-01
 5.8660     166.16    0.11833    0.21141E-01
 6.1290     37.056    -.48646    0.39080E-01
 6.1290     46.137    -.34751    0.46186E-01
 6.1290     57.198    0.10062    0.31975E-01
 6.1290     67.534    0.60201    0.24869E-01
 6.1290     78.464    0.52076    0.24869E-01
 6.1290     88.095    0.18365    0.24869E-01
 6.1290     98.411    -.11080    0.28422E-01
 6.1290     107.97    -.28092    0.24854E-01
 6.1290     118.22    -.42260    0.24869E-01
 6.1290     127.70    -.37956    0.17764E-01
 6.1290     136.75    -.18022    0.17764E-01
 6.1290     146.88    -.92520E-020.99882E-01
 6.1290     166.17    0.76838E-010.21317E-01
 6.3520     36.339    -.35672    0.24981E-01
 6.3520     46.511    -.19959    0.32113E-01
 6.3520     56.632    0.34647    0.74930E-01
 6.3520     66.768    0.78191    0.89202E-01
 6.3520     78.067    0.38958    0.49953E-01
 6.3520     87.269    -.88423E-010.39249E-01
 6.3520     98.214    -.45579    0.42812E-01
 6.3520     107.39    -.71256    0.49953E-01
 6.3520     117.91    -.56970    0.42822E-01
 6.3520     127.71    -.21632    0.39244E-01
 6.3520     136.79    0.23338    0.35681E-01
 6.3520     146.60    0.48328    0.35681E-01
 6.3520     156.10    0.36923    0.32108E-01
 6.3520     165.60    0.27659    0.28540E-01
 6.5850     36.339    -.30566    0.32037E-01
 6.5850     46.521    -.21298    0.28477E-01
 6.5850     57.706    0.31043    0.32037E-01
 6.5850     66.784    0.81601    0.28477E-01
 6.5850     77.365    0.51357    0.28477E-01
 6.5850     87.619    0.82238E-020.24918E-01
 6.5850     97.869    -.46865    0.32037E-01
 6.5850     107.74    -.73194    0.28477E-01
 6.5850     117.95    -.85284    0.24922E-01
 6.5850     128.12    -.68897    0.32037E-01
 6.5850     137.56    -.26526    0.21358E-01
 6.5850     146.30    0.12998    0.28482E-01
 6.5850     156.48    0.30453    0.24918E-01
 6.5850     165.62    0.25836    0.24918E-01
 6.9400     36.950    -.14580    0.21310E-01
 6.9400     46.390    0.74629E-010.14215E-01
 6.9400     57.558    0.42651    0.24862E-01
 6.9400     66.983    0.71086    0.24854E-01
 6.9400     77.955    0.37726    0.31965E-01
 6.9400     88.260    -.10908    0.24854E-01
 6.9400     98.536    -.47112    0.35525E-01
 6.9400     109.12    -.63780    0.31957E-01
 6.9400     117.90    -.61983    0.28413E-01
 6.9400     128.03    -.34612    0.24862E-01
 6.9400     137.77    0.12293    0.24862E-01
 6.9400     146.83    0.46055    0.24862E-01
 6.9400     156.28    0.61705    0.39068E-01
 6.9400     165.81    0.43969    0.28405E-01
ENDDATA            209
ENDSUBENT          225
ENDENTRY             6
