ENTRY            32912   20240528   20240917   20240917       3213
SUBENT        32912001   20240528   20240917   20240917       3213
BIB                 12         41
TITLE      Measurement of the neutron.induced total cross
           sections of natPb from 0.3 eV to 20 MeV on the Back-n
           at CSNS
AUTHOR     (Jie-Ming Xue,Song Feng,Yong-Hao Chen,Han Yi,Min Xiao,
           Pin-Jing Cheng,Xin-Xiang Li,Rong Liu,Yi-Wei Yang,
           Zi-Jie Han,Da-Jun Zhao,Hao-Qiang Wang,Bao-Qian Li,
           Ji-Rong Zhao,Lei-Xun Tang,Wen Luo,Bo Zheng)
INSTITUTE  (3CPRIHP,3CPRNPC)
           (3CPRCPR) University of South China, Hengyang
           (3CPRCPR) Spallation Neutron Source Science Center,
                     Dongguan
REFERENCE  (J,CNST,35,18,2024)
           #doi:10.1007/s41365-024-01370-z
FACILITY   (SYNCH,3CPRIHP) The back-streaming white neutron
           beam line (Back-n) at the China Spallation Neutron
           Source (CSNS)
INC-SOURCE (SPALL) Neutrons were produced by 1.6 GeV proton-
           induced spallation reactions on a tungsten target.
           The incident proton pulse was in two bunches,
           approximately 70 ns (FWHM) wide and 410 ns apart.
SAMPLE     A high-purity (99.99%) cylindrical natural lead with
           a thickness of 10.03 mm, diameter of 70 mm, mass of
           436.8 g, density of 11.32 g/cm3.
DETECTOR   (FISCH) The multi-cell fission chamber can be filled
           with similar or different 8 pieces of samples, and
           four 235 U and four 238 U high-purity samples were
           used. The chamber was filled with a gas mixture of
           90% Ar and 10% CF4 at 800 mbar.
METHOD     (TOF) Flight distance of 55 m. The cumulative
           irradiation time for the sample was 142 h and 50 h
           for the measurement without the sample.
ERR-ANALYS1(DATA-ERR) uncertainty related to the statistical
            uncertainty in the neutron counts and the
            double-bunch unfolding process
          2(DATA-ERR) uncertainty mainly comes from the
            uncertainty of the atomic density of the sample and
            the transmission
STATUS     (TABLE,,Jieming Xue+,J,CNST,35,18,2024)
            Data presented by author
HISTORY    (20240528C) Jimin Wang (CNDC)
           (20240612R) The data were received from Song Feng
ENDBIB              41
NOCOMMON             0          0
ENDSUBENT           44
SUBENT        32912002   20240528   20240917   20240917       3213
BIB                  3          5
REACTION  1(82-PB-0(N,TOT),,TRN)
          2(82-PB-0(N,TOT),,SIG)
COMMENT    The transmission spectra corresponding to the fission
           events of 235U
STATUS     (COREL,32912003) measured with 238U fission chamber
ENDBIB               5
COMMON               1          3
THICKNESS 1
ATOMS/B
 3.3517E-02
ENDCOMMON            3
DATA                 6        777
EN         EN-RSL     DATA      1DATA-ERR  1DATA      2DATA-ERR  2
EV         EV         NO-DIM     NO-DIM     B          B
 3.3113E-01   4.74E-06      0.691     0.0124     11.209      0.550
 3.3884E-01   4.91E-06      0.684     0.0108     11.519      0.484
 3.4674E-01   5.08E-06      0.699     0.0099     10.877      0.435
 3.5481E-01   5.26E-06      0.683     0.0088     11.577      0.397
 3.6308E-01   5.45E-06      0.686     0.0081     11.445      0.365
 3.7154E-01   5.64E-06      0.689     0.0076     11.295      0.342
 3.8019E-01   5.83E-06      0.695     0.0072     11.036      0.320
 3.8905E-01   6.04E-06      0.692     0.0068     11.178      0.304
 3.9811E-01   6.25E-06      0.694     0.0065     11.089      0.290
 4.0738E-01   6.47E-06      0.682     0.0061     11.615      0.279
 4.1687E-01   6.70E-06      0.683     0.0059     11.560      0.269
 4.2658E-01   6.93E-06      0.680     0.0056     11.684      0.261
 4.3652E-01   7.18E-06      0.680     0.0055     11.686      0.255
 4.4668E-01   7.43E-06      0.687     0.0054     11.388      0.248
 4.5709E-01   7.69E-06      0.685     0.0053     11.488      0.243
 4.6774E-01   7.96E-06      0.694     0.0052     11.090      0.237
 4.7863E-01   8.24E-06      0.691     0.0051     11.209      0.234
 4.8978E-01   8.53E-06      0.693     0.0050     11.143      0.230
 5.0119E-01   8.83E-06      0.688     0.0049     11.342      0.228
 5.1286E-01   9.14E-06      0.688     0.0049     11.364      0.226
 5.2481E-01   9.46E-06      0.685     0.0048     11.496      0.223
 5.3703E-01   9.80E-06      0.692     0.0048     11.192      0.222
 5.4954E-01   1.01E-05      0.690     0.0048     11.269      0.221
 5.6234E-01   1.05E-05      0.684     0.0047     11.526      0.220
 5.7544E-01   1.09E-05      0.690     0.0047     11.245      0.219
 5.8884E-01   1.12E-05      0.683     0.0047     11.575      0.218
 6.0256E-01   1.16E-05      0.686     0.0046     11.440      0.217
 6.1660E-01   1.21E-05      0.692     0.0047     11.168      0.215
 6.3096E-01   1.25E-05      0.692     0.0046     11.190      0.213
 6.4565E-01   1.29E-05      0.694     0.0046     11.062      0.212
 6.6069E-01   1.34E-05      0.688     0.0045     11.332      0.212
 6.7608E-01   1.38E-05      0.693     0.0046     11.129      0.210
 6.9183E-01   1.43E-05      0.690     0.0045     11.240      0.210
 7.0795E-01   1.48E-05      0.692     0.0045     11.161      0.209
 7.2444E-01   1.53E-05      0.692     0.0045     11.175      0.209
 7.4131E-01   1.59E-05      0.691     0.0045     11.234      0.208
 7.5858E-01   1.64E-05      0.690     0.0045     11.256      0.207
 7.7625E-01   1.70E-05      0.686     0.0044     11.413      0.207
 7.9433E-01   1.76E-05      0.680     0.0044     11.718      0.207
 8.1283E-01   1.82E-05      0.681     0.0043     11.656      0.206
 8.3176E-01   1.89E-05      0.686     0.0044     11.416      0.204
 8.5114E-01   1.95E-05      0.688     0.0043     11.347      0.203
 8.7096E-01   2.02E-05      0.686     0.0043     11.452      0.202
 8.9125E-01   2.09E-05      0.689     0.0042     11.307      0.199
 9.1201E-01   2.17E-05      0.691     0.0042     11.208      0.196
 9.3325E-01   2.24E-05      0.692     0.0041     11.169      0.192
 9.5499E-01   2.32E-05      0.692     0.0040     11.163      0.188
 9.7724E-01   2.40E-05      0.691     0.0039     11.229      0.183
 1.0000E+00   2.49E-05      0.690     0.0037     11.279      0.178
 1.0233E+00   2.58E-05      0.692     0.0036     11.181      0.170
 1.0471E+00   2.67E-05      0.682     0.0033     11.612      0.163
 1.0715E+00   2.76E-05      0.691     0.0032     11.234      0.155
 1.0965E+00   2.86E-05      0.684     0.0030     11.519      0.149
 1.1220E+00   2.96E-05      0.691     0.0030     11.210      0.147
 1.1482E+00   3.06E-05      0.688     0.0032     11.360      0.155
 1.1749E+00   3.17E-05      0.689     0.0037     11.307      0.175
 1.2023E+00   3.28E-05      0.689     0.0044     11.283      0.205
 1.2303E+00   3.40E-05      0.693     0.0052     11.137      0.239
 1.2589E+00   3.52E-05      0.685     0.0058     11.462      0.267
 1.2883E+00   3.64E-05      0.692     0.0062     11.154      0.281
 1.3183E+00   3.77E-05      0.680     0.0063     11.682      0.290
 1.3490E+00   3.90E-05      0.691     0.0067     11.203      0.301
 1.3804E+00   4.04E-05      0.692     0.0069     11.158      0.311
 1.4125E+00   4.18E-05      0.697     0.0072     10.949      0.320
 1.4454E+00   4.33E-05      0.696     0.0073     11.010      0.327
 1.4791E+00   4.48E-05      0.678     0.0073     11.804      0.333
 1.5136E+00   4.63E-05      0.690     0.0075     11.255      0.336
 1.5488E+00   4.80E-05      0.690     0.0076     11.238      0.342
 1.5849E+00   4.97E-05      0.686     0.0077     11.422      0.346
 1.6218E+00   5.14E-05      0.685     0.0078     11.478      0.351
 1.6596E+00   5.32E-05      0.687     0.0079     11.372      0.353
 1.6982E+00   5.51E-05      0.688     0.0080     11.363      0.360
 1.7378E+00   5.70E-05      0.691     0.0082     11.211      0.364
 1.7783E+00   5.90E-05      0.693     0.0082     11.123      0.365
 1.8197E+00   6.11E-05      0.687     0.0081     11.390      0.366
 1.8621E+00   6.32E-05      0.678     0.0079     11.805      0.362
 1.9055E+00   6.55E-05      0.685     0.0079     11.477      0.355
 1.9498E+00   6.78E-05      0.684     0.0071     11.526      0.324
 1.9953E+00   7.01E-05      0.689     0.0060     11.321      0.274
 2.0417E+00   7.26E-05      0.690     0.0066     11.262      0.299
 2.0893E+00   7.52E-05      0.684     0.0082     11.537      0.372
 2.1380E+00   7.78E-05      0.681     0.0089     11.647      0.402
 2.1878E+00   8.05E-05      0.689     0.0092     11.304      0.409
 2.2387E+00   8.34E-05      0.686     0.0092     11.434      0.413
 2.2909E+00   8.63E-05      0.692     0.0094     11.174      0.419
 2.3442E+00   8.93E-05      0.670     0.0093     12.129      0.427
 2.3988E+00   9.25E-05      0.671     0.0094     12.089      0.432
 2.4547E+00   9.57E-05      0.683     0.0097     11.588      0.436
 2.5119E+00   9.91E-05      0.688     0.0100     11.329      0.445
 2.5704E+00   1.03E-04      0.696     0.0106     10.982      0.465
 2.6303E+00   1.06E-04      0.670     0.0109     12.138      0.497
 2.6915E+00   1.10E-04      0.663     0.0107     12.477      0.493
 2.7542E+00   1.14E-04      0.680     0.0086     11.691      0.389
 2.8184E+00   1.18E-04      0.681     0.0073     11.656      0.332
 2.8840E+00   1.22E-04      0.699     0.0071     10.874      0.314
 2.9512E+00   1.26E-04      0.689     0.0064     11.315      0.290
 3.0200E+00   1.31E-04      0.688     0.0054     11.357      0.247
 3.0903E+00   1.35E-04      0.687     0.0045     11.410      0.212
 3.1623E+00   1.40E-04      0.689     0.0052     11.308      0.238
 3.2359E+00   1.45E-04      0.685     0.0071     11.495      0.320
 3.3113E+00   1.50E-04      0.676     0.0078     11.890      0.356
 3.3884E+00   1.55E-04      0.692     0.0074     11.173      0.329
 3.4674E+00   1.61E-04      0.687     0.0054     11.400      0.250
 3.5481E+00   1.66E-04      0.685     0.0039     11.463      0.184
 3.6308E+00   1.72E-04      0.687     0.0054     11.385      0.247
 3.7154E+00   1.78E-04      0.693     0.0126     11.111      0.554
 3.8019E+00   1.85E-04      0.715     0.0213     10.170      0.904
 3.8905E+00   1.91E-04      0.714     0.0238     10.211      1.015
 3.9811E+00   1.98E-04      0.650     0.0219     13.063      1.026
 4.0738E+00   2.05E-04      0.701     0.0232     10.786      1.007
 4.1687E+00   2.12E-04      0.685     0.0220     11.486      0.977
 4.2658E+00   2.19E-04      0.684     0.0212     11.523      0.945
 4.3652E+00   2.27E-04      0.691     0.0207     11.205      0.910
 4.4668E+00   2.35E-04      0.689     0.0194     11.283      0.855
 4.5709E+00   2.43E-04      0.684     0.0174     11.532      0.773
 4.6774E+00   2.52E-04      0.680     0.0124     11.692      0.556
 4.7863E+00   2.61E-04      0.691     0.0073     11.209      0.328
 4.8978E+00   2.70E-04      0.675     0.0114     11.907      0.515
 5.0119E+00   2.79E-04      0.684     0.0131     11.545      0.585
 5.1286E+00   2.89E-04      0.702     0.0112     10.733      0.490
 5.2481E+00   2.99E-04      0.688     0.0086     11.361      0.386
 5.3703E+00   3.10E-04      0.691     0.0071     11.209      0.319
 5.4954E+00   3.21E-04      0.681     0.0067     11.653      0.305
 5.6234E+00   3.32E-04      0.687     0.0068     11.387      0.310
 5.7544E+00   3.44E-04      0.690     0.0068     11.259      0.306
 5.8884E+00   3.56E-04      0.690     0.0060     11.275      0.272
 6.0256E+00   3.68E-04      0.690     0.0045     11.244      0.207
 6.1660E+00   3.81E-04      0.684     0.0036     11.506      0.172
 6.3096E+00   3.94E-04      0.686     0.0026     11.439      0.135
 6.4565E+00   4.08E-04      0.684     0.0059     11.516      0.271
 6.6069E+00   4.23E-04      0.708     0.0117     10.469      0.507
 6.7608E+00   4.38E-04      0.691     0.0099     11.214      0.440
 6.9183E+00   4.53E-04      0.684     0.0042     11.530      0.201
 7.0795E+00   4.69E-04      0.686     0.0045     11.455      0.210
 7.2444E+00   4.85E-04      0.683     0.0134     11.576      0.601
 7.4131E+00   5.02E-04      0.714     0.0182     10.234      0.775
 7.5858E+00   5.20E-04      0.683     0.0207     11.573      0.923
 7.7625E+00   5.38E-04      0.686     0.0209     11.423      0.926
 7.9433E+00   5.57E-04      0.706     0.0138     10.545      0.596
 8.1283E+00   5.77E-04      0.692     0.0085     11.170      0.380
 8.3176E+00   5.97E-04      0.681     0.0047     11.640      0.219
 8.5114E+00   6.18E-04      0.688     0.0018     11.348      0.104
 8.7096E+00   6.40E-04      0.687     0.0011     11.390      0.084
 8.9125E+00   6.62E-04      0.685     0.0022     11.477      0.119
 9.1201E+00   6.86E-04      0.682     0.0026     11.617      0.135
 9.3325E+00   7.10E-04      0.688     0.0035     11.331      0.168
 9.5499E+00   7.35E-04      0.685     0.0048     11.500      0.222
 9.7724E+00   7.60E-04      0.693     0.0063     11.108      0.284
 1.0000E+01   7.87E-04      0.684     0.0058     11.507      0.265
 1.0233E+01   8.15E-04      0.697     0.0073     10.969      0.325
 1.0471E+01   8.43E-04      0.697     0.0079     10.943      0.348
 1.0715E+01   8.73E-04      0.685     0.0071     11.469      0.320
 1.0965E+01   9.04E-04      0.689     0.0073     11.317      0.329
 1.1220E+01   9.35E-04      0.689     0.0064     11.310      0.288
 1.1482E+01   9.68E-04      0.687     0.0035     11.399      0.171
 1.1749E+01   1.00E-03      0.691     0.0058     11.204      0.264
 1.2023E+01   1.04E-03      0.684     0.0028     11.534      0.140
 1.2303E+01   1.07E-03      0.688     0.0017     11.326      0.100
 1.2589E+01   1.11E-03      0.688     0.0048     11.345      0.224
 1.2883E+01   1.15E-03      0.684     0.0056     11.538      0.259
 1.3183E+01   1.19E-03      0.675     0.0052     11.903      0.244
 1.3490E+01   1.23E-03      0.692     0.0041     11.174      0.190
 1.3804E+01   1.28E-03      0.691     0.0030     11.219      0.146
 1.4125E+01   1.32E-03      0.683     0.0035     11.547      0.170
 1.4454E+01   1.37E-03      0.686     0.0052     11.439      0.239
 1.4791E+01   1.42E-03      0.689     0.0079     11.304      0.355
 1.5136E+01   1.47E-03      0.689     0.0039     11.310      0.186
 1.5488E+01   1.52E-03      0.696     0.0072     10.994      0.320
 1.5849E+01   1.57E-03      0.689     0.0038     11.297      0.182
 1.6218E+01   1.63E-03      0.695     0.0052     11.024      0.235
 1.6596E+01   1.68E-03      0.684     0.0037     11.513      0.178
 1.6982E+01   1.74E-03      0.682     0.0084     11.631      0.382
 1.7378E+01   1.80E-03      0.683     0.0074     11.587      0.337
 1.7783E+01   1.87E-03      0.680     0.0030     11.698      0.152
 1.8197E+01   1.93E-03      0.690     0.0050     11.257      0.228
 1.8621E+01   2.00E-03      0.689     0.0039     11.318      0.187
 1.9055E+01   2.07E-03      0.687     0.0015     11.392      0.095
 1.9498E+01   2.14E-03      0.688     0.0043     11.330      0.200
 1.9953E+01   2.22E-03      0.685     0.0063     11.476      0.286
 2.0417E+01   2.30E-03      0.692     0.0046     11.191      0.215
 2.0893E+01   2.38E-03      0.684     0.0031     11.530      0.153
 2.1380E+01   2.46E-03      0.685     0.0118     11.478      0.528
 2.1878E+01   2.55E-03      0.694     0.0141     11.098      0.621
 2.2387E+01   2.64E-03      0.691     0.0053     11.227      0.244
 2.2909E+01   2.73E-03      0.690     0.0035     11.277      0.168
 2.3442E+01   2.83E-03      0.688     0.0030     11.342      0.149
 2.3988E+01   2.92E-03      0.684     0.0038     11.537      0.181
 2.4547E+01   3.03E-03      0.684     0.0039     11.504      0.187
 2.5119E+01   3.13E-03      0.687     0.0030     11.374      0.151
 2.5704E+01   3.24E-03      0.681     0.0046     11.650      0.218
 2.6303E+01   3.36E-03      0.685     0.0039     11.482      0.187
 2.6915E+01   3.48E-03      0.689     0.0069     11.297      0.313
 2.7542E+01   3.60E-03      0.684     0.0037     11.509      0.180
 2.8184E+01   3.72E-03      0.679     0.0054     11.744      0.249
 2.8840E+01   3.85E-03      0.693     0.0096     11.121      0.425
 2.9512E+01   3.99E-03      0.692     0.0080     11.158      0.356
 3.0200E+01   4.13E-03      0.685     0.0042     11.461      0.199
 3.0903E+01   4.28E-03      0.694     0.0063     11.062      0.283
 3.1623E+01   4.43E-03      0.684     0.0022     11.511      0.121
 3.2359E+01   4.58E-03      0.695     0.0076     11.049      0.339
 3.3113E+01   4.74E-03      0.686     0.0028     11.424      0.141
 3.3884E+01   4.91E-03      0.686     0.0023     11.437      0.124
 3.4674E+01   5.08E-03      0.687     0.0018     11.376      0.103
 3.5481E+01   5.26E-03      0.684     0.0040     11.524      0.192
 3.6308E+01   5.45E-03      0.684     0.0062     11.519      0.282
 3.7154E+01   5.64E-03      0.680     0.0062     11.695      0.285
 3.8019E+01   5.83E-03      0.695     0.0052     11.059      0.236
 3.8905E+01   6.04E-03      0.686     0.0029     11.427      0.146
 3.9811E+01   6.25E-03      0.686     0.0047     11.438      0.218
 4.0738E+01   6.47E-03      0.688     0.0035     11.363      0.170
 4.1687E+01   6.70E-03      0.689     0.0033     11.320      0.161
 4.2658E+01   6.93E-03      0.689     0.0046     11.297      0.212
 4.3652E+01   7.18E-03      0.686     0.0036     11.427      0.174
 4.4668E+01   7.43E-03      0.685     0.0045     11.496      0.209
 4.5709E+01   7.69E-03      0.686     0.0052     11.448      0.242
 4.6774E+01   7.96E-03      0.690     0.0038     11.253      0.182
 4.7863E+01   8.24E-03      0.688     0.0034     11.327      0.163
 4.8978E+01   8.53E-03      0.686     0.0041     11.446      0.192
 5.0119E+01   8.83E-03      0.690     0.0021     11.261      0.114
 5.1286E+01   9.14E-03      0.686     0.0018     11.437      0.106
 5.2481E+01   9.46E-03      0.688     0.0033     11.330      0.161
 5.3703E+01   9.80E-03      0.689     0.0032     11.301      0.156
 5.4954E+01   1.01E-02      0.687     0.0016     11.370      0.100
 5.6234E+01   1.05E-02      0.686     0.0019     11.419      0.107
 5.7544E+01   1.09E-02      0.691     0.0023     11.200      0.122
 5.8884E+01   1.12E-02      0.689     0.0034     11.316      0.165
 6.0256E+01   1.16E-02      0.688     0.0034     11.345      0.165
 6.1660E+01   1.21E-02      0.687     0.0054     11.376      0.249
 6.3096E+01   1.25E-02      0.691     0.0044     11.235      0.205
 6.4565E+01   1.29E-02      0.685     0.0071     11.486      0.324
 6.6069E+01   1.34E-02      0.688     0.0079     11.348      0.356
 6.7608E+01   1.38E-02      0.694     0.0066     11.075      0.296
 6.9183E+01   1.43E-02      0.690     0.0022     11.252      0.119
 7.0795E+01   1.48E-02      0.686     0.0027     11.430      0.137
 7.2444E+01   1.53E-02      0.691     0.0035     11.210      0.169
 7.4131E+01   1.59E-02      0.688     0.0027     11.358      0.136
 7.5858E+01   1.64E-02      0.682     0.0057     11.632      0.265
 7.7625E+01   1.70E-02      0.686     0.0042     11.448      0.199
 7.9433E+01   1.76E-02      0.686     0.0041     11.448      0.192
 8.1283E+01   1.82E-02      0.692     0.0045     11.170      0.206
 8.3176E+01   1.89E-02      0.686     0.0026     11.432      0.132
 8.5114E+01   1.95E-02      0.681     0.0047     11.668      0.220
 8.7096E+01   2.02E-02      0.693     0.0036     11.118      0.170
 8.9125E+01   2.09E-02      0.687     0.0041     11.410      0.192
 9.1201E+01   2.17E-02      0.689     0.0031     11.305      0.153
 9.3325E+01   2.24E-02      0.688     0.0045     11.324      0.210
 9.5499E+01   2.32E-02      0.684     0.0043     11.509      0.203
 9.7724E+01   2.40E-02      0.689     0.0044     11.299      0.206
 1.0000E+02   2.49E-02      0.695     0.0071     11.027      0.319
 1.0233E+02   2.58E-02      0.686     0.0039     11.426      0.185
 1.0471E+02   2.67E-02      0.690     0.0039     11.258      0.186
 1.0715E+02   2.76E-02      0.684     0.0042     11.528      0.199
 1.0965E+02   2.86E-02      0.689     0.0049     11.283      0.225
 1.1220E+02   2.96E-02      0.686     0.0062     11.425      0.285
 1.1482E+02   3.06E-02      0.688     0.0042     11.367      0.198
 1.1749E+02   3.17E-02      0.691     0.0035     11.222      0.166
 1.2023E+02   3.28E-02      0.686     0.0030     11.431      0.149
 1.2303E+02   3.40E-02      0.686     0.0033     11.418      0.161
 1.2589E+02   3.52E-02      0.684     0.0036     11.521      0.173
 1.2883E+02   3.64E-02      0.691     0.0059     11.211      0.266
 1.3183E+02   3.77E-02      0.685     0.0039     11.493      0.187
 1.3490E+02   3.90E-02      0.689     0.0037     11.293      0.177
 1.3804E+02   4.04E-02      0.690     0.0055     11.275      0.250
 1.4125E+02   4.18E-02      0.691     0.0040     11.230      0.190
 1.4454E+02   4.33E-02      0.689     0.0036     11.321      0.171
 1.4791E+02   4.48E-02      0.688     0.0036     11.364      0.173
 1.5136E+02   4.63E-02      0.689     0.0051     11.281      0.233
 1.5488E+02   4.80E-02      0.689     0.0049     11.286      0.227
 1.5849E+02   4.97E-02      0.688     0.0041     11.365      0.192
 1.6218E+02   5.14E-02      0.686     0.0037     11.429      0.178
 1.6596E+02   5.32E-02      0.686     0.0032     11.414      0.158
 1.6982E+02   5.51E-02      0.690     0.0052     11.269      0.238
 1.7378E+02   5.70E-02      0.686     0.0028     11.430      0.141
 1.7783E+02   5.90E-02      0.686     0.0034     11.417      0.167
 1.8197E+02   6.11E-02      0.690     0.0077     11.261      0.345
 1.8621E+02   6.32E-02      0.683     0.0060     11.557      0.275
 1.9055E+02   6.55E-02      0.688     0.0048     11.336      0.224
 1.9498E+02   6.78E-02      0.688     0.0038     11.352      0.182
 1.9953E+02   7.01E-02      0.683     0.0037     11.575      0.179
 2.0417E+02   7.26E-02      0.692     0.0045     11.149      0.207
 2.0893E+02   7.52E-02      0.685     0.0036     11.458      0.172
 2.1380E+02   7.78E-02      0.688     0.0044     11.347      0.206
 2.1878E+02   8.05E-02      0.686     0.0034     11.434      0.164
 2.2387E+02   8.34E-02      0.693     0.0040     11.147      0.188
 2.2909E+02   8.63E-02      0.693     0.0033     11.139      0.161
 2.3442E+02   8.93E-02      0.693     0.0041     11.137      0.192
 2.3988E+02   9.25E-02      0.687     0.0032     11.380      0.157
 2.4547E+02   9.57E-02      0.686     0.0049     11.423      0.227
 2.5119E+02   9.91E-02      0.684     0.0041     11.536      0.197
 2.5704E+02   1.03E-01      0.682     0.0031     11.606      0.156
 2.6303E+02   1.06E-01      0.686     0.0033     11.441      0.162
 2.6915E+02   1.10E-01      0.689     0.0030     11.316      0.147
 2.7542E+02   1.14E-01      0.691     0.0036     11.231      0.173
 2.8184E+02   1.18E-01      0.690     0.0052     11.242      0.240
 2.8840E+02   1.22E-01      0.690     0.0040     11.276      0.187
 2.9512E+02   1.26E-01      0.684     0.0044     11.521      0.208
 3.0200E+02   1.31E-01      0.693     0.0045     11.123      0.208
 3.0903E+02   1.35E-01      0.690     0.0045     11.275      0.211
 3.1623E+02   1.40E-01      0.687     0.0045     11.391      0.212
 3.2359E+02   1.45E-01      0.690     0.0045     11.270      0.211
 3.3113E+02   1.50E-01      0.693     0.0056     11.138      0.254
 3.3884E+02   1.55E-01      0.692     0.0052     11.170      0.236
 3.4674E+02   1.61E-01      0.689     0.0056     11.320      0.255
 3.5481E+02   1.66E-01      0.685     0.0051     11.496      0.236
 3.6308E+02   1.72E-01      0.691     0.0049     11.203      0.225
 3.7154E+02   1.78E-01      0.689     0.0053     11.322      0.244
 3.8019E+02   1.85E-01      0.686     0.0043     11.454      0.203
 3.8905E+02   1.91E-01      0.683     0.0067     11.584      0.307
 3.9811E+02   1.98E-01      0.688     0.0048     11.357      0.224
 4.0738E+02   2.05E-01      0.684     0.0054     11.527      0.250
 4.1687E+02   2.12E-01      0.688     0.0041     11.338      0.191
 4.2658E+02   2.19E-01      0.685     0.0039     11.501      0.188
 4.3652E+02   2.27E-01      0.690     0.0040     11.274      0.187
 4.4668E+02   2.35E-01      0.686     0.0045     11.421      0.209
 4.5709E+02   2.43E-01      0.685     0.0034     11.458      0.167
 4.6774E+02   2.52E-01      0.685     0.0038     11.476      0.183
 4.7863E+02   2.61E-01      0.687     0.0035     11.377      0.170
 4.8978E+02   2.70E-01      0.686     0.0037     11.424      0.176
 5.0119E+02   2.79E-01      0.690     0.0031     11.247      0.152
 5.1286E+02   2.89E-01      0.690     0.0037     11.261      0.174
 5.2481E+02   2.99E-01      0.688     0.0035     11.364      0.168
 5.3703E+02   3.10E-01      0.689     0.0042     11.324      0.198
 5.4954E+02   3.21E-01      0.685     0.0046     11.473      0.217
 5.6234E+02   3.32E-01      0.686     0.0034     11.445      0.165
 5.7544E+02   3.44E-01      0.691     0.0039     11.203      0.185
 5.8884E+02   3.56E-01      0.685     0.0036     11.476      0.174
 6.0256E+02   3.68E-01      0.689     0.0038     11.286      0.181
 6.1660E+02   3.81E-01      0.689     0.0043     11.320      0.201
 6.3096E+02   3.94E-01      0.686     0.0037     11.434      0.179
 6.4565E+02   4.08E-01      0.687     0.0048     11.401      0.224
 6.6069E+02   4.23E-01      0.692     0.0043     11.157      0.201
 6.7608E+02   4.38E-01      0.695     0.0042     11.042      0.195
 6.9183E+02   4.53E-01      0.687     0.0038     11.386      0.183
 7.0795E+02   4.69E-01      0.688     0.0044     11.349      0.207
 7.2444E+02   4.85E-01      0.691     0.0048     11.210      0.223
 7.4131E+02   5.02E-01      0.689     0.0049     11.289      0.225
 7.5858E+02   5.20E-01      0.687     0.0039     11.388      0.183
 7.7625E+02   5.38E-01      0.693     0.0036     11.109      0.171
 7.9433E+02   5.57E-01      0.690     0.0056     11.270      0.256
 8.1283E+02   5.77E-01      0.683     0.0056     11.555      0.259
 8.3176E+02   5.97E-01      0.689     0.0046     11.295      0.214
 8.5114E+02   6.18E-01      0.691     0.0046     11.200      0.211
 8.7096E+02   6.40E-01      0.687     0.0046     11.400      0.213
 8.9125E+02   6.62E-01      0.687     0.0038     11.406      0.181
 9.1201E+02   6.86E-01      0.689     0.0035     11.291      0.168
 9.3325E+02   7.10E-01      0.692     0.0052     11.176      0.238
 9.5499E+02   7.35E-01      0.688     0.0066     11.332      0.298
 9.7724E+02   7.60E-01      0.690     0.0050     11.240      0.229
 1.0000E+03   7.87E-01      0.686     0.0051     11.424      0.235
 1.0233E+03   8.15E-01      0.691     0.0048     11.220      0.219
 1.0471E+03   8.43E-01      0.689     0.0031     11.285      0.154
 1.0715E+03   8.73E-01      0.686     0.0050     11.454      0.233
 1.0965E+03   9.04E-01      0.686     0.0064     11.452      0.290
 1.1220E+03   9.35E-01      0.683     0.0048     11.545      0.224
 1.1482E+03   9.68E-01      0.684     0.0038     11.540      0.181
 1.1749E+03   1.00E+00      0.686     0.0046     11.445      0.213
 1.2023E+03   1.04E+00      0.686     0.0041     11.438      0.195
 1.2303E+03   1.07E+00      0.685     0.0044     11.475      0.209
 1.2589E+03   1.11E+00      0.687     0.0050     11.373      0.229
 1.2883E+03   1.15E+00      0.696     0.0044     11.015      0.202
 1.3183E+03   1.19E+00      0.692     0.0039     11.191      0.185
 1.3490E+03   1.23E+00      0.690     0.0035     11.253      0.168
 1.3804E+03   1.28E+00      0.695     0.0044     11.059      0.204
 1.4125E+03   1.32E+00      0.690     0.0052     11.270      0.239
 1.4454E+03   1.37E+00      0.687     0.0043     11.379      0.203
 1.4791E+03   1.42E+00      0.690     0.0051     11.258      0.235
 1.5136E+03   1.47E+00      0.685     0.0054     11.493      0.249
 1.5488E+03   1.52E+00      0.696     0.0048     10.982      0.217
 1.5849E+03   1.57E+00      0.690     0.0046     11.257      0.213
 1.6218E+03   1.63E+00      0.694     0.0044     11.099      0.204
 1.6596E+03   1.68E+00      0.636     0.0037     13.710      0.195
 1.6982E+03   1.74E+00      0.684     0.0040     11.530      0.191
 1.7378E+03   1.80E+00      0.683     0.0041     11.570      0.193
 1.7783E+03   1.87E+00      0.690     0.0054     11.264      0.247
 1.8197E+03   1.93E+00      0.685     0.0045     11.459      0.212
 1.8621E+03   2.00E+00      0.686     0.0044     11.423      0.208
 1.9055E+03   2.07E+00      0.687     0.0041     11.400      0.192
 1.9498E+03   2.14E+00      0.690     0.0034     11.275      0.163
 1.9953E+03   2.22E+00      0.688     0.0054     11.329      0.249
 2.0417E+03   2.30E+00      0.683     0.0049     11.568      0.230
 2.0893E+03   2.38E+00      0.690     0.0056     11.253      0.256
 2.1380E+03   2.46E+00      0.686     0.0051     11.424      0.234
 2.1878E+03   2.55E+00      0.687     0.0049     11.402      0.226
 2.2387E+03   2.64E+00      0.683     0.0049     11.558      0.229
 2.2909E+03   2.73E+00      0.694     0.0049     11.071      0.226
 2.3442E+03   2.83E+00      0.685     0.0051     11.480      0.235
 2.3988E+03   2.92E+00      0.687     0.0049     11.405      0.225
 2.4547E+03   3.03E+00      0.631     0.0041     13.967      0.215
 2.5119E+03   3.13E+00      0.681     0.0042     11.647      0.198
 2.5704E+03   3.24E+00      0.690     0.0045     11.276      0.211
 2.6303E+03   3.36E+00      0.684     0.0065     11.541      0.295
 2.6915E+03   3.48E+00      0.686     0.0044     11.414      0.205
 2.7542E+03   3.60E+00      0.691     0.0049     11.234      0.226
 2.8184E+03   3.72E+00      0.686     0.0042     11.451      0.198
 2.8840E+03   3.85E+00      0.686     0.0046     11.416      0.216
 2.9512E+03   3.99E+00      0.694     0.0045     11.104      0.208
 3.0200E+03   4.13E+00      0.685     0.0054     11.495      0.250
 3.0903E+03   4.28E+00      0.696     0.0050     11.009      0.226
 3.1623E+03   4.43E+00      0.694     0.0053     11.073      0.240
 3.2359E+03   4.58E+00      0.692     0.0042     11.180      0.197
 3.3113E+03   4.74E+00      0.668     0.0044     12.253      0.213
 3.3884E+03   4.91E+00      0.688     0.0050     11.359      0.232
 3.4674E+03   5.08E+00      0.691     0.0048     11.223      0.223
 3.5481E+03   5.26E+00      0.690     0.0046     11.253      0.215
 3.6308E+03   5.45E+00      0.697     0.0042     10.937      0.192
 3.7154E+03   5.64E+00      0.692     0.0044     11.160      0.206
 3.8019E+03   5.83E+00      0.689     0.0057     11.287      0.261
 3.8905E+03   6.04E+00      0.698     0.0051     10.929      0.230
 3.9811E+03   6.25E+00      0.691     0.0049     11.212      0.227
 4.0738E+03   6.47E+00      0.687     0.0046     11.377      0.216
 4.1687E+03   6.70E+00      0.684     0.0048     11.507      0.224
 4.2658E+03   6.93E+00      0.687     0.0047     11.373      0.219
 4.3652E+03   7.18E+00      0.689     0.0048     11.280      0.222
 4.4668E+03   7.43E+00      0.692     0.0047     11.162      0.216
 4.5709E+03   7.69E+00      0.689     0.0048     11.305      0.223
 4.6774E+03   7.96E+00      0.694     0.0044     11.095      0.204
 4.7863E+03   8.24E+00      0.692     0.0050     11.175      0.228
 4.8978E+03   8.53E+00      0.689     0.0048     11.283      0.224
 5.0119E+03   8.83E+00      0.690     0.0045     11.263      0.210
 5.1286E+03   9.14E+00      0.693     0.0054     11.120      0.244
 5.2481E+03   9.46E+00      0.689     0.0044     11.284      0.206
 5.3703E+03   9.80E+00      0.691     0.0048     11.213      0.220
 5.4954E+03   1.01E+01      0.692     0.0042     11.177      0.195
 5.6234E+03   1.05E+01      0.692     0.0054     11.172      0.247
 5.7544E+03   1.09E+01      0.686     0.0051     11.419      0.235
 5.8884E+03   1.12E+01      0.688     0.0048     11.351      0.223
 6.0256E+03   1.16E+01      0.694     0.0053     11.066      0.240
 6.1660E+03   1.21E+01      0.698     0.0054     10.894      0.242
 6.3096E+03   1.25E+01      0.696     0.0049     11.014      0.225
 6.4565E+03   1.29E+01      0.693     0.0050     11.118      0.230
 6.6069E+03   1.34E+01      0.678     0.0049     11.769      0.232
 6.7608E+03   1.38E+01      0.690     0.0048     11.273      0.222
 6.9183E+03   1.43E+01      0.686     0.0047     11.431      0.220
 7.0795E+03   1.48E+01      0.692     0.0052     11.165      0.238
 7.2444E+03   1.53E+01      0.690     0.0046     11.261      0.212
 7.4131E+03   1.59E+01      0.690     0.0050     11.247      0.232
 7.5858E+03   1.64E+01      0.689     0.0058     11.283      0.266
 7.7625E+03   1.70E+01      0.695     0.0059     11.032      0.265
 7.9433E+03   1.76E+01      0.691     0.0056     11.207      0.256
 8.1283E+03   1.82E+01      0.673     0.0055     11.998      0.260
 8.3176E+03   1.89E+01      0.672     0.0053     12.075      0.251
 8.5114E+03   1.95E+01      0.685     0.0050     11.480      0.232
 8.7096E+03   2.02E+01      0.689     0.0051     11.298      0.234
 8.9125E+03   2.09E+01      0.689     0.0048     11.308      0.222
 9.1201E+03   2.17E+01      0.696     0.0047     11.005      0.214
 9.3325E+03   2.24E+01      0.691     0.0051     11.215      0.236
 9.5499E+03   2.32E+01      0.694     0.0053     11.071      0.241
 9.7724E+03   2.40E+01      0.696     0.0049     11.016      0.223
 1.0000E+04   2.49E+01      0.694     0.0051     11.065      0.230
 1.0157E+04   2.55E+01      0.692     0.0052     11.138      0.493
 1.0390E+04   2.64E+01      0.711     0.0051     10.350      0.460
 1.0629E+04   2.73E+01      0.695     0.0047     11.021      0.446
 1.0874E+04   2.82E+01      0.699     0.0051     10.836      0.474
 1.1124E+04   2.92E+01      0.690     0.0048     11.221      0.462
 1.1379E+04   3.02E+01      0.696     0.0047     10.989      0.437
 1.1641E+04   3.13E+01      0.699     0.0052     10.825      0.498
 1.1909E+04   3.23E+01      0.695     0.0049     11.037      0.461
 1.2183E+04   3.35E+01      0.690     0.0051     11.254      0.491
 1.2463E+04   3.46E+01      0.693     0.0057     11.090      0.540
 1.2749E+04   3.58E+01      0.691     0.0049     11.203      0.466
 1.3043E+04   3.71E+01      0.685     0.0047     11.450      0.447
 1.3343E+04   3.84E+01      0.699     0.0050     10.850      0.479
 1.3649E+04   3.97E+01      0.705     0.0052     10.572      0.481
 1.3963E+04   4.11E+01      0.699     0.0048     10.857      0.443
 1.4284E+04   4.25E+01      0.698     0.0048     10.867      0.454
 1.4613E+04   4.40E+01      0.701     0.0048     10.778      0.455
 1.4949E+04   4.55E+01      0.700     0.0049     10.822      0.457
 1.5293E+04   4.71E+01      0.698     0.0054     10.903      0.517
 1.5644E+04   4.87E+01      0.689     0.0061     11.275      0.574
 1.6004E+04   5.04E+01      0.700     0.0055     10.785      0.516
 1.6372E+04   5.21E+01      0.660     0.0053     12.603      0.535
 1.6748E+04   5.39E+01      0.647     0.0053     13.194      0.532
 1.7134E+04   5.58E+01      0.696     0.0054     10.967      0.507
 1.7528E+04   5.78E+01      0.705     0.0050     10.569      0.450
 1.7931E+04   5.98E+01      0.690     0.0049     11.228      0.485
 1.8343E+04   6.18E+01      0.699     0.0053     10.856      0.490
 1.8765E+04   6.40E+01      0.699     0.0051     10.846      0.487
 1.9196E+04   6.62E+01      0.707     0.0052     10.497      0.473
 1.9638E+04   6.85E+01      0.695     0.0048     11.012      0.454
 2.0089E+04   7.09E+01      0.697     0.0047     10.918      0.440
 2.0551E+04   7.33E+01      0.707     0.0051     10.495      0.475
 2.1024E+04   7.59E+01      0.701     0.0049     10.779      0.444
 2.1507E+04   7.85E+01      0.709     0.0043     10.435      0.403
 2.2002E+04   8.12E+01      0.696     0.0043     10.969      0.399
 2.2508E+04   8.40E+01      0.699     0.0048     10.834      0.467
 2.3025E+04   8.70E+01      0.713     0.0049     10.251      0.438
 2.3555E+04   9.00E+01      0.698     0.0043     10.881      0.394
 2.4096E+04   9.31E+01      0.718     0.0041     10.041      0.373
 2.4651E+04   9.63E+01      0.683     0.0039     11.540      0.375
 2.5217E+04   9.97E+01      0.643     0.0034     13.388      0.357
 2.5797E+04   1.03E+02      0.697     0.0036     10.952      0.342
 2.6391E+04   1.07E+02      0.716     0.0041     10.134      0.392
 2.6997E+04   1.10E+02      0.707     0.0052     10.505      0.494
 2.7618E+04   1.14E+02      0.701     0.0065     10.757      0.592
 2.8253E+04   1.18E+02      0.696     0.0060     10.977      0.560
 2.8903E+04   1.22E+02      0.696     0.0052     10.995      0.483
 2.9568E+04   1.27E+02      0.717     0.0051     10.065      0.453
 3.0248E+04   1.31E+02      0.713     0.0050     10.237      0.459
 3.0943E+04   1.35E+02      0.723     0.0049      9.813      0.424
 3.1655E+04   1.40E+02      0.710     0.0048     10.385      0.452
 3.2383E+04   1.45E+02      0.721     0.0049      9.895      0.452
 3.3127E+04   1.50E+02      0.709     0.0051     10.409      0.464
 3.3889E+04   1.55E+02      0.714     0.0056     10.187      0.536
 3.4668E+04   1.61E+02      0.715     0.0059     10.140      0.523
 3.5466E+04   1.66E+02      0.727     0.0060      9.661      0.515
 3.6281E+04   1.72E+02      0.717     0.0054     10.089      0.479
 3.7115E+04   1.78E+02      0.700     0.0049     10.819      0.452
 3.7969E+04   1.84E+02      0.730     0.0051      9.516      0.447
 3.8842E+04   1.91E+02      0.755     0.0049      8.511      0.420
 3.9735E+04   1.97E+02      0.722     0.0046      9.844      0.418
 4.0738E+04   2.05E+02      0.607     0.0038     15.111      0.435
 4.1687E+04   2.12E+02      0.591     0.0036     15.927      0.408
 4.2658E+04   2.19E+02      0.614     0.0036     14.772      0.413
 4.3652E+04   2.27E+02      0.657     0.0038     12.703      0.383
 4.4668E+04   2.35E+02      0.657     0.0037     12.730      0.401
 4.5709E+04   2.43E+02      0.664     0.0037     12.382      0.369
 4.6774E+04   2.52E+02      0.649     0.0035     13.085      0.368
 4.7863E+04   2.61E+02      0.683     0.0036     11.547      0.355
 4.8978E+04   2.70E+02      0.683     0.0037     11.538      0.368
 5.0119E+04   2.79E+02      0.682     0.0039     11.575      0.390
 5.1286E+04   2.89E+02      0.693     0.0039     11.091      0.387
 5.2481E+04   2.99E+02      0.695     0.0038     11.037      0.372
 5.3703E+04   3.10E+02      0.698     0.0037     10.881      0.344
 5.4954E+04   3.21E+02      0.695     0.0036     11.002      0.348
 5.6234E+04   3.32E+02      0.701     0.0036     10.741      0.363
 5.7544E+04   3.44E+02      0.697     0.0034     10.924      0.321
 5.8884E+04   3.56E+02      0.702     0.0035     10.715      0.347
 6.0256E+04   3.68E+02      0.708     0.0034     10.446      0.313
 6.1660E+04   3.81E+02      0.712     0.0035     10.294      0.323
 6.3096E+04   3.94E+02      0.700     0.0034     10.788      0.324
 6.4565E+04   4.08E+02      0.712     0.0034     10.305      0.322
 6.6069E+04   4.23E+02      0.699     0.0033     10.848      0.316
 6.7608E+04   4.38E+02      0.674     0.0032     11.938      0.324
 6.9183E+04   4.53E+02      0.670     0.0031     12.113      0.318
 7.0795E+04   4.69E+02      0.696     0.0033     10.987      0.329
 7.2444E+04   4.85E+02      0.715     0.0033     10.150      0.303
 7.4131E+04   5.02E+02      0.609     0.0032     15.039      0.369
 7.5858E+04   5.20E+02      0.626     0.0031     14.190      0.342
 7.7625E+04   5.38E+02      0.471     0.0025     22.813      0.399
 7.9433E+04   5.57E+02      0.640     0.0032     13.507      0.366
 8.1283E+04   5.77E+02      0.661     0.0033     12.559      0.327
 8.3176E+04   5.97E+02      0.717     0.0042     10.082      0.361
 8.5114E+04   6.18E+02      0.709     0.0041     10.432      0.405
 8.7096E+04   6.40E+02      0.697     0.0040     10.934      0.375
 8.9125E+04   6.62E+02      0.675     0.0036     11.890      0.355
 9.1201E+04   6.86E+02      0.711     0.0036     10.335      0.335
 9.3325E+04   7.10E+02      0.714     0.0035     10.223      0.321
 9.5499E+04   7.35E+02      0.719     0.0035     10.010      0.345
 9.7724E+04   7.60E+02      0.711     0.0033     10.351      0.315
 1.0000E+05   7.87E+02      0.724     0.0032      9.794      0.276
 1.0233E+05   8.15E+02      0.708     0.0031     10.468      0.297
 1.0471E+05   8.43E+02      0.732     0.0031      9.441      0.290
 1.0715E+05   8.73E+02      0.716     0.0030     10.115      0.283
 1.0965E+05   9.04E+02      0.693     0.0029     11.091      0.290
 1.1220E+05   9.36E+02      0.716     0.0030     10.119      0.271
 1.1482E+05   9.68E+02      0.676     0.0028     11.865      0.292
 1.1749E+05   1.00E+03      0.692     0.0029     11.171      0.270
 1.2023E+05   1.04E+03      0.713     0.0030     10.249      0.291
 1.2303E+05   1.07E+03      0.686     0.0027     11.428      0.264
 1.2589E+05   1.11E+03      0.712     0.0026     10.287      0.266
 1.2883E+05   1.15E+03      0.730     0.0028      9.510      0.240
 1.3183E+05   1.19E+03      0.730     0.0027      9.544      0.249
 1.3490E+05   1.23E+03      0.737     0.0028      9.248      0.270
 1.3804E+05   1.28E+03      0.725     0.0030      9.741      0.259
 1.4125E+05   1.32E+03      0.716     0.0032     10.101      0.289
 1.4454E+05   1.37E+03      0.732     0.0031      9.440      0.291
 1.4791E+05   1.42E+03      0.706     0.0030     10.543      0.285
 1.5136E+05   1.47E+03      0.737     0.0030      9.241      0.277
 1.5488E+05   1.52E+03      0.736     0.0030      9.273      0.265
 1.5849E+05   1.57E+03      0.728     0.0030      9.607      0.268
 1.6218E+05   1.63E+03      0.744     0.0028      8.954      0.264
 1.6596E+05   1.68E+03      0.746     0.0027      8.876      0.252
 1.6982E+05   1.74E+03      0.749     0.0028      8.737      0.248
 1.7378E+05   1.80E+03      0.752     0.0027      8.634      0.221
 1.7783E+05   1.87E+03      0.747     0.0026      8.837      0.242
 1.8197E+05   1.93E+03      0.762     0.0026      8.224      0.238
 1.8621E+05   2.00E+03      0.755     0.0027      8.495      0.215
 1.9055E+05   2.07E+03      0.766     0.0027      8.060      0.252
 1.9498E+05   2.14E+03      0.758     0.0027      8.390      0.248
 1.9953E+05   2.22E+03      0.767     0.0027      8.040      0.223
 2.0417E+05   2.30E+03      0.784     0.0027      7.356      0.244
 2.0893E+05   2.38E+03      0.745     0.0026      8.901      0.221
 2.1380E+05   2.46E+03      0.776     0.0026      7.663      0.218
 2.1878E+05   2.55E+03      0.768     0.0026      8.002      0.237
 2.2387E+05   2.64E+03      0.759     0.0026      8.344      0.215
 2.2909E+05   2.73E+03      0.757     0.0025      8.448      0.216
 2.3442E+05   2.83E+03      0.764     0.0025      8.162      0.237
 2.3988E+05   2.92E+03      0.766     0.0024      8.075      0.210
 2.4547E+05   3.03E+03      0.762     0.0024      8.240      0.204
 2.5119E+05   3.13E+03      0.772     0.0024      7.837      0.205
 2.5704E+05   3.24E+03      0.756     0.0023      8.461      0.206
 2.6303E+05   3.36E+03      0.766     0.0023      8.089      0.208
 2.6915E+05   3.48E+03      0.775     0.0023      7.727      0.203
 2.7542E+05   3.60E+03      0.760     0.0024      8.317      0.204
 2.8184E+05   3.72E+03      0.772     0.0024      7.854      0.212
 2.8840E+05   3.86E+03      0.782     0.0024      7.440      0.210
 2.9512E+05   3.99E+03      0.803     0.0024      6.641      0.205
 3.0200E+05   4.13E+03      0.807     0.0023      6.502      0.200
 3.0903E+05   4.28E+03      0.806     0.0023      6.536      0.196
 3.1623E+05   4.43E+03      0.779     0.0023      7.566      0.197
 3.2359E+05   4.58E+03      0.783     0.0022      7.390      0.173
 3.3113E+05   4.74E+03      0.800     0.0022      6.762      0.199
 3.3884E+05   4.91E+03      0.815     0.0022      6.180      0.195
 3.4674E+05   5.08E+03      0.742     0.0020      9.031      0.168
 3.5481E+05   5.26E+03      0.743     0.0020      8.991      0.194
 3.6308E+05   5.45E+03      0.787     0.0022      7.257      0.199
 3.7154E+05   5.64E+03      0.805     0.0021      6.587      0.169
 3.8019E+05   5.84E+03      0.797     0.0021      6.869      0.194
 3.8905E+05   6.04E+03      0.792     0.0022      7.050      0.168
 3.9811E+05   6.25E+03      0.796     0.0022      6.923      0.199
 4.0738E+05   6.47E+03      0.797     0.0022      6.862      0.171
 4.1687E+05   6.70E+03      0.826     0.0023      5.806      0.200
 4.2658E+05   6.94E+03      0.851     0.0023      4.871      0.171
 4.3652E+05   7.18E+03      0.844     0.0023      5.122      0.169
 4.4668E+05   7.43E+03      0.848     0.0023      5.004      0.196
 4.5709E+05   7.69E+03      0.852     0.0022      4.857      0.165
 4.6774E+05   7.96E+03      0.825     0.0021      5.833      0.163
 4.7863E+05   8.24E+03      0.852     0.0022      4.868      0.189
 4.8978E+05   8.53E+03      0.878     0.0022      3.924      0.162
 5.0119E+05   8.83E+03      0.868     0.0021      4.286      0.158
 5.1286E+05   9.15E+03      0.838     0.0021      5.346      0.157
 5.2481E+05   9.47E+03      0.799     0.0020      6.779      0.187
 5.3703E+05   9.80E+03      0.827     0.0020      5.768      0.162
 5.4954E+05   1.01E+04      0.846     0.0020      5.080      0.161
 5.6234E+05   1.05E+04      0.828     0.0020      5.708      0.161
 5.7544E+05   1.09E+04      0.827     0.0020      5.754      0.162
 5.8884E+05   1.13E+04      0.828     0.0020      5.721      0.163
 6.0256E+05   1.16E+04      0.829     0.0020      5.682      0.161
 6.1660E+05   1.21E+04      0.827     0.0020      5.742      0.160
 6.3096E+05   1.25E+04      0.818     0.0020      6.074      0.162
 6.4565E+05   1.29E+04      0.832     0.0020      5.558      0.162
 6.6069E+05   1.34E+04      0.840     0.0020      5.281      0.163
 6.7608E+05   1.38E+04      0.836     0.0020      5.409      0.162
 6.9183E+05   1.43E+04      0.829     0.0020      5.692      0.164
 7.0795E+05   1.48E+04      0.810     0.0019      6.390      0.166
 7.2444E+05   1.54E+04      0.814     0.0019      6.215      0.166
 7.4131E+05   1.59E+04      0.833     0.0020      5.551      0.130
 7.5858E+05   1.65E+04      0.832     0.0020      5.581      0.167
 7.7625E+05   1.70E+04      0.842     0.0020      5.217      0.169
 7.9433E+05   1.76E+04      0.832     0.0020      5.585      0.170
 8.1283E+05   1.83E+04      0.798     0.0019      6.831      0.172
 8.3176E+05   1.89E+04      0.822     0.0020      5.921      0.134
 8.5114E+05   1.96E+04      0.822     0.0020      5.929      0.173
 8.7096E+05   2.02E+04      0.835     0.0020      5.460      0.173
 8.9125E+05   2.10E+04      0.847     0.0020      5.043      0.134
 9.1201E+05   2.17E+04      0.851     0.0020      4.891      0.171
 9.3325E+05   2.25E+04      0.836     0.0020      5.443      0.171
 9.5499E+05   2.32E+04      0.836     0.0020      5.437      0.134
 9.7724E+05   2.41E+04      0.834     0.0020      5.505      0.174
 1.0000E+06   2.49E+04      0.852     0.0020      4.851      0.136
 1.0233E+06   2.58E+04      0.846     0.0020      5.048      0.177
 1.0471E+06   2.67E+04      0.845     0.0020      5.113      0.177
 1.0715E+06   2.76E+04      0.860     0.0020      4.580      0.138
 1.0965E+06   2.86E+04      0.836     0.0020      5.416      0.182
 1.1220E+06   2.96E+04      0.836     0.0020      5.439      0.140
 1.1482E+06   3.06E+04      0.838     0.0020      5.362      0.183
 1.1749E+06   3.17E+04      0.843     0.0021      5.184      0.143
 1.2023E+06   3.28E+04      0.845     0.0021      5.093      0.144
 1.2303E+06   3.40E+04      0.841     0.0021      5.244      0.190
 1.2589E+06   3.52E+04      0.841     0.0021      5.235      0.147
 1.2883E+06   3.64E+04      0.842     0.0021      5.219      0.194
 1.3183E+06   3.77E+04      0.844     0.0021      5.135      0.150
 1.3490E+06   3.90E+04      0.839     0.0021      5.321      0.152
 1.3804E+06   4.04E+04      0.830     0.0021      5.631      0.199
 1.4125E+06   4.18E+04      0.831     0.0021      5.614      0.154
 1.4454E+06   4.33E+04      0.830     0.0021      5.656      0.156
 1.4791E+06   4.48E+04      0.833     0.0021      5.538      0.206
 1.5136E+06   4.64E+04      0.845     0.0022      5.104      0.158
 1.5488E+06   4.80E+04      0.848     0.0022      4.986      0.158
 1.5849E+06   4.97E+04      0.841     0.0022      5.229      0.209
 1.6218E+06   5.15E+04      0.829     0.0022      5.690      0.162
 1.6596E+06   5.33E+04      0.813     0.0021      6.265      0.166
 1.6982E+06   5.52E+04      0.801     0.0021      6.709      0.167
 1.7378E+06   5.71E+04      0.815     0.0022      6.197      0.168
 1.7783E+06   5.91E+04      0.828     0.0022      5.729      0.222
 1.8197E+06   6.12E+04      0.833     0.0022      5.519      0.170
 1.8621E+06   6.33E+04      0.837     0.0023      5.396      0.171
 1.9055E+06   6.56E+04      0.821     0.0022      5.973      0.173
 1.9498E+06   6.79E+04      0.826     0.0023      5.798      0.174
 1.9953E+06   7.03E+04      0.812     0.0022      6.323      0.177
 2.0417E+06   7.27E+04      0.804     0.0022      6.623      0.235
 2.0893E+06   7.53E+04      0.799     0.0022      6.815      0.180
 2.1380E+06   7.79E+04      0.803     0.0023      6.661      0.183
 2.1878E+06   8.07E+04      0.799     0.0023      6.807      0.186
 2.2387E+06   8.35E+04      0.793     0.0023      7.042      0.188
 2.2909E+06   8.65E+04      0.788     0.0023      7.201      0.190
 2.3442E+06   8.95E+04      0.785     0.0023      7.337      0.192
 2.3988E+06   9.27E+04      0.785     0.0023      7.350      0.195
 2.4547E+06   9.59E+04      0.786     0.0023      7.282      0.196
 2.5119E+06   9.93E+04      0.789     0.0023      7.191      0.198
 2.5704E+06   1.03E+05      0.786     0.0023      7.311      0.201
 2.6303E+06   1.06E+05      0.784     0.0023      7.382      0.203
 2.6915E+06   1.10E+05      0.786     0.0023      7.278      0.205
 2.7542E+06   1.14E+05      0.782     0.0023      7.463      0.205
 2.8184E+06   1.18E+05      0.781     0.0023      7.505      0.204
 2.8840E+06   1.22E+05      0.774     0.0023      7.763      0.205
 2.9512E+06   1.26E+05      0.766     0.0023      8.074      0.207
 3.0200E+06   1.31E+05      0.770     0.0023      7.904      0.208
 3.0903E+06   1.36E+05      0.772     0.0023      7.838      0.210
 3.1623E+06   1.40E+05      0.770     0.0023      7.899      0.212
 3.2359E+06   1.45E+05      0.763     0.0024      8.205      0.214
 3.3113E+06   1.50E+05      0.765     0.0024      8.119      0.218
 3.3884E+06   1.56E+05      0.770     0.0024      7.913      0.221
 3.4674E+06   1.61E+05      0.771     0.0025      7.864      0.225
 3.5481E+06   1.67E+05      0.776     0.0025      7.679      0.228
 3.6308E+06   1.73E+05      0.770     0.0026      7.896      0.231
 3.7154E+06   1.79E+05      0.768     0.0026      8.004      0.235
 3.8019E+06   1.85E+05      0.770     0.0026      7.915      0.239
 3.8905E+06   1.92E+05      0.770     0.0026      7.919      0.243
 3.9811E+06   1.98E+05      0.762     0.0026      8.212      0.246
 4.0738E+06   2.05E+05      0.770     0.0026      7.916      0.248
 4.1687E+06   2.13E+05      0.768     0.0026      7.997      0.250
 4.2658E+06   2.20E+05      0.773     0.0026      7.798      0.252
 4.3652E+06   2.28E+05      0.773     0.0026      7.800      0.254
 4.4668E+06   2.36E+05      0.775     0.0026      7.723      0.253
 4.5709E+06   2.44E+05      0.779     0.0026      7.560      0.252
 4.6774E+06   2.53E+05      0.777     0.0026      7.654      0.253
 4.7863E+06   2.62E+05      0.785     0.0027      7.344      0.253
 4.8978E+06   2.71E+05      0.785     0.0027      7.320      0.253
 5.0119E+06   2.80E+05      0.783     0.0027      7.401      0.255
 5.1286E+06   2.90E+05      0.783     0.0027      7.420      0.257
 5.2481E+06   3.00E+05      0.790     0.0027      7.124      0.258
 5.3703E+06   3.11E+05      0.797     0.0027      6.887      0.259
 5.4954E+06   3.22E+05      0.794     0.0027      6.973      0.261
 5.6234E+06   3.33E+05      0.797     0.0028      6.884      0.261
 5.7544E+06   3.45E+05      0.795     0.0028      6.947      0.264
 5.8884E+06   3.57E+05      0.797     0.0028      6.883      0.266
 6.0256E+06   3.70E+05      0.801     0.0028      6.715      0.269
 6.1660E+06   3.83E+05      0.804     0.0028      6.604      0.269
 6.3096E+06   3.96E+05      0.811     0.0027      6.357      0.271
 6.4565E+06   4.10E+05      0.820     0.0027      6.014      0.268
 6.6069E+06   4.25E+05      0.820     0.0027      6.010      0.265
 6.7608E+06   4.40E+05      0.825     0.0027      5.809      0.266
 6.9183E+06   4.55E+05      0.823     0.0027      5.884      0.260
 7.0795E+06   4.71E+05      0.826     0.0026      5.808      0.264
 7.2444E+06   4.88E+05      0.826     0.0026      5.795      0.263
 7.4131E+06   5.05E+05      0.834     0.0027      5.514      0.260
 7.5858E+06   5.23E+05      0.829     0.0026      5.665      0.261
 7.7625E+06   5.42E+05      0.827     0.0026      5.769      0.258
 7.9433E+06   5.61E+05      0.831     0.0027      5.621      0.262
 8.1283E+06   5.81E+05      0.840     0.0027      5.278      0.262
 8.3176E+06   6.01E+05      0.843     0.0028      5.158      0.267
 8.5114E+06   6.22E+05      0.854     0.0029      4.762      0.271
 8.9125E+06   6.67E+05      0.859     0.0029      4.619      0.278
 9.1201E+06   6.91E+05      0.849     0.0029      4.948      0.283
 9.3325E+06   7.15E+05      0.842     0.0029      5.205      0.286
 9.5499E+06   7.40E+05      0.839     0.0029      5.322      0.292
 9.7724E+06   7.66E+05      0.839     0.0030      5.328      0.297
 1.0000E+07   7.93E+05      0.845     0.0030      5.103      0.302
 1.0233E+07   8.21E+05      0.846     0.0031      5.051      0.308
 1.0471E+07   8.50E+05      0.841     0.0031      5.237      0.316
 1.0715E+07   8.80E+05      0.838     0.0031      5.348      0.322
 1.0965E+07   9.12E+05      0.835     0.0032      5.476      0.328
 1.1220E+07   9.44E+05      0.827     0.0032      5.736      0.334
 1.1482E+07   9.77E+05      0.836     0.0032      5.432      0.340
 1.1749E+07   1.01E+06      0.838     0.0033      5.357      0.347
 1.2023E+07   1.05E+06      0.838     0.0033      5.359      0.351
 1.2303E+07   1.08E+06      0.840     0.0033      5.296      0.358
 1.2589E+07   1.12E+06      0.849     0.0033      4.964      0.361
 1.2883E+07   1.16E+06      0.846     0.0034      5.065      0.371
 1.3183E+07   1.20E+06      0.841     0.0033      5.240      0.373
 1.3490E+07   1.25E+06      0.834     0.0033      5.503      0.375
 1.3804E+07   1.29E+06      0.814     0.0032      6.248      0.380
 1.4791E+07   1.43E+06      0.805     0.0031      6.566      0.386
 1.5136E+07   1.48E+06      0.809     0.0032      6.428      0.377
 1.5488E+07   1.54E+06      0.813     0.0032      6.266      0.386
 1.5849E+07   1.59E+06      0.828     0.0034      5.700      0.391
 1.6218E+07   1.65E+06      0.827     0.0034      5.769      0.396
 1.6596E+07   1.71E+06      0.829     0.0034      5.669      0.400
 1.6982E+07   1.77E+06      0.827     0.0035      5.761      0.413
 1.7378E+07   1.83E+06      0.833     0.0035      5.547      0.414
 1.7783E+07   1.89E+06      0.826     0.0036      5.780      0.421
 1.8197E+07   1.96E+06      0.823     0.0036      5.903      0.431
 1.8621E+07   2.03E+06      0.832     0.0036      5.583      0.432
 1.9055E+07   2.10E+06      0.825     0.0037      5.816      0.445
 1.9498E+07   2.18E+06      0.825     0.0037      5.825      0.449
 1.9953E+07   2.25E+06      0.828     0.0037      5.710      0.453
ENDDATA            779
ENDSUBENT          793
SUBENT        32912003   20240528   20240917   20240917       3213
BIB                  3          5
REACTION  1(82-PB-0(N,TOT),,TRN)
          2(82-PB-0(N,TOT),,SIG)
COMMENT    The transmission spectra corresponding to the fission
           events of 238U
STATUS     (COREL,32912002) measured with 235U fission chamber
ENDBIB               5
COMMON               1          3
THICKNESS 1
ATOMS/B
 3.3517E-02
ENDCOMMON            3
DATA                 6         89
EN         EN-RSL     DATA      1DATA-ERR  1DATA      2DATA-ERR  2
EV         EV         NO-DIM     NO-DIM     B          B
 1.1639E+06   3.13E+04      0.850     0.0098      4.916      0.595
 1.2018E+06   3.28E+04      0.844     0.0086      5.153      0.568
 1.2409E+06   3.44E+04      0.836     0.0077      5.431      0.525
 1.2813E+06   3.61E+04      0.852     0.0068      4.840      0.450
 1.3230E+06   3.79E+04      0.837     0.0057      5.380      0.389
 1.3660E+06   3.98E+04      0.835     0.0051      5.462      0.366
 1.4105E+06   4.17E+04      0.844     0.0045      5.131      0.288
 1.4563E+06   4.38E+04      0.834     0.0039      5.492      0.280
 1.5037E+06   4.60E+04      0.853     0.0038      4.815      0.244
 1.5527E+06   4.82E+04      0.860     0.0038      4.553      0.266
 1.6032E+06   5.06E+04      0.837     0.0036      5.404      0.236
 1.6553E+06   5.31E+04      0.811     0.0033      6.335      0.256
 1.7092E+06   5.57E+04      0.811     0.0033      6.362      0.230
 1.7648E+06   5.84E+04      0.817     0.0032      6.113      0.225
 1.8222E+06   6.13E+04      0.824     0.0032      5.853      0.249
 1.8815E+06   6.43E+04      0.815     0.0032      6.187      0.227
 1.9428E+06   6.75E+04      0.811     0.0031      6.345      0.229
 2.0060E+06   7.08E+04      0.802     0.0032      6.694      0.234
 2.0712E+06   7.43E+04      0.800     0.0032      6.773      0.237
 2.1386E+06   7.80E+04      0.795     0.0032      6.938      0.242
 2.2082E+06   8.18E+04      0.797     0.0032      6.854      0.244
 2.2801E+06   8.58E+04      0.783     0.0032      7.411      0.250
 2.3543E+06   9.01E+04      0.783     0.0032      7.424      0.252
 2.4309E+06   9.45E+04      0.788     0.0033      7.232      0.222
 2.5099E+06   9.92E+04      0.791     0.0033      7.101      0.257
 2.5916E+06   1.04E+05      0.785     0.0032      7.320      0.255
 2.6759E+06   1.09E+05      0.785     0.0032      7.326      0.254
 2.7630E+06   1.15E+05      0.788     0.0032      7.204      0.221
 2.8529E+06   1.20E+05      0.777     0.0032      7.626      0.257
 2.9457E+06   1.26E+05      0.774     0.0032      7.765      0.225
 3.0416E+06   1.32E+05      0.772     0.0032      7.852      0.262
 3.1406E+06   1.39E+05      0.764     0.0032      8.149      0.232
 3.2427E+06   1.46E+05      0.769     0.0033      7.968      0.272
 3.3482E+06   1.53E+05      0.773     0.0034      7.795      0.240
 3.4572E+06   1.60E+05      0.765     0.0033      8.126      0.245
 3.5697E+06   1.68E+05      0.773     0.0034      7.814      0.288
 3.6858E+06   1.77E+05      0.772     0.0035      7.827      0.253
 3.8058E+06   1.85E+05      0.766     0.0035      8.063      0.256
 3.9296E+06   1.94E+05      0.770     0.0035      7.916      0.257
 4.0575E+06   2.04E+05      0.770     0.0035      7.900      0.258
 4.1895E+06   2.14E+05      0.777     0.0035      7.628      0.297
 4.3258E+06   2.25E+05      0.773     0.0034      7.797      0.255
 4.4665E+06   2.36E+05      0.781     0.0034      7.473      0.250
 4.6119E+06   2.47E+05      0.786     0.0034      7.303      0.249
 4.7619E+06   2.60E+05      0.779     0.0033      7.549      0.249
 4.9169E+06   2.72E+05      0.787     0.0034      7.253      0.250
 5.0769E+06   2.86E+05      0.796     0.0034      6.912      0.252
 5.2420E+06   3.00E+05      0.794     0.0034      6.971      0.253
 5.4126E+06   3.15E+05      0.800     0.0034      6.770      0.204
 5.5887E+06   3.30E+05      0.805     0.0035      6.554      0.257
 5.7706E+06   3.47E+05      0.806     0.0035      6.517      0.258
 5.9583E+06   3.64E+05      0.813     0.0034      6.272      0.256
 6.1522E+06   3.82E+05      0.821     0.0034      5.978      0.252
 6.3524E+06   4.01E+05      0.812     0.0032      6.316      0.196
 6.5591E+06   4.20E+05      0.820     0.0032      6.010      0.242
 6.7725E+06   4.41E+05      0.816     0.0031      6.162      0.241
 6.9928E+06   4.63E+05      0.822     0.0031      5.952      0.191
 7.2204E+06   4.86E+05      0.818     0.0031      6.096      0.243
 7.4553E+06   5.10E+05      0.828     0.0032      5.726      0.195
 7.6979E+06   5.35E+05      0.831     0.0033      5.614      0.252
 7.9484E+06   5.61E+05      0.829     0.0033      5.682      0.257
 8.2070E+06   5.89E+05      0.831     0.0034      5.592      0.205
 8.4740E+06   6.18E+05      0.843     0.0035      5.180      0.266
 8.7497E+06   6.49E+05      0.852     0.0035      4.844      0.212
 9.0344E+06   6.81E+05      0.841     0.0035      5.258      0.215
 9.3284E+06   7.14E+05      0.845     0.0036      5.086      0.281
 9.6319E+06   7.50E+05      0.845     0.0036      5.089      0.225
 9.9453E+06   7.87E+05      0.839     0.0037      5.324      0.297
 1.0269E+07   8.26E+05      0.843     0.0037      5.162      0.237
 1.0603E+07   8.67E+05      0.844     0.0038      5.123      0.243
 1.0948E+07   9.10E+05      0.837     0.0038      5.386      0.321
 1.1304E+07   9.55E+05      0.843     0.0039      5.175      0.252
 1.1672E+07   1.00E+06      0.845     0.0040      5.117      0.256
 1.2052E+07   1.05E+06      0.841     0.0040      5.250      0.262
 1.2444E+07   1.10E+06      0.849     0.0041      4.947      0.345
 1.2849E+07   1.16E+06      0.859     0.0042      4.616      0.269
 1.3267E+07   1.22E+06      0.858     0.0042      4.628      0.270
 1.3699E+07   1.28E+06      0.833     0.0040      5.551      0.269
 1.4144E+07   1.34E+06      0.822     0.0039      5.952      0.267
 1.4605E+07   1.41E+06      0.823     0.0039      5.884      0.269
 1.5080E+07   1.48E+06      0.843     0.0040      5.186      0.355
 1.5570E+07   1.55E+06      0.845     0.0040      5.115      0.275
 1.6077E+07   1.63E+06      0.840     0.0040      5.274      0.277
 1.6600E+07   1.71E+06      0.842     0.0041      5.216      0.282
 1.7140E+07   1.79E+06      0.846     0.0041      5.077      0.285
 1.7698E+07   1.88E+06      0.835     0.0041      5.456      0.288
 1.8274E+07   1.97E+06      0.834     0.0041      5.513      0.293
 1.8868E+07   2.07E+06      0.844     0.0042      5.137      0.294
 1.9482E+07   2.17E+06      0.842     0.0042      5.194      0.297
ENDDATA             91
ENDSUBENT          105
ENDENTRY             3
