ENTRY            22741   20080119   20080402   20080318       2192
SUBENT        22741001   20080119   20080402   20080318       2192
BIB                 13         44
TITLE      .Measurement of Neutron Inelastic Scattering Cross
            Sections for 209-Bi from Threshold up to 18 MeV.
AUTHOR     (L.C.Mihailescu, P.Baumann, C.Borcea, P.Dessagne,
           E.Jericha, M.Kerveno, S.Lukic, A.J.Koning, A.Pavlik,
           A.J.M.Plompen, G.Rudolf)
INSTITUTE  (2ZZZGEL) European Commission, Joint Research Center,
             Institute for Reference Materials and Measurements,
             B-2440 Geel, Belgium. Mihailescu, Borcea:
             Corresponding  author, e-mail= catalin.borcea@ec.
             europa.eu; Plompen.
           (2FR STR) IReS, IN2P3, Strasbourg, France. Baumann,
             Dessagne, Kerveno, Lukic, Rudolf.
           (2AUSTHV)  Technische Universitat Wien, Wien, Austria.
             Jericha.
           (2AUSPVI)  Universitat Wien, Wien, Austria. Pavlik
           (2NEDNRG)  Nuclear Research Group Petten, Westerduinweg
             3, 1755 ZG Petten, The Netherlands. Koning
           (3RUMBUC)  Mihailescu, Borcea
REFERENCE  (C,2004SANTA,,973,200409)  Main Reference, graphs given
           (J,NIM/A,531,375,2004) Detailed description of setup.
           (C,2007NICE,,80(#329),2007) Book of abstracts. Graph
            for Bi-209 total inelastic cross section.
            Experimental details
FACILITY   (LINAC,2ZZZGEL) The 150 MeV Geel electron Linac,
                GELINA
INC-SOURCE (PHOTO) followed by (gamma,xn) and (gamma,F) reactions
INC-SPECT   White Neutron Source
           <EN-RSL> Energy resolution in nanosec per meter
SAMPLE      Sample consisted of two disks of bismuth with purity
            99.5% Bi-209 glued together. Each disc- 3mm thickness
            and 8 cm diameter.
METHOD     (TOF)Time-of-flight technique with a 200 m flight path.
            The resolution was 8ns time-of-flight.
DETECTOR   (HPGE) Two large volume HPGe detectors, placed backward
            at 110deg and 150deg. with respect to beam direction.
           (FISCH)  For neutron flux measurements with a
             multilayer 235-U fission chamber,placed in beam at
             about 1.3m upstream to sample.
MONITOR    (92-U-235(N,F),,SIG)
ERR-ANALYS (ERR-S) Max statistical error
           (EN-ERR-DIG) Energy digitizing error
           (ERR-DIG)    Data digitizing error
HISTORY    (20070715C)  SM
           (20080119A)  Reference and one SUBENT 22741007 added
ENDBIB              44
COMMON               2          3
ERR-S      EN-RSL
PER-CENT   NSEC/M
  5.           8.
ENDCOMMON            3
ENDSUBENT           51
SUBENT        22741002   20070715   20071002   20071002       2186
BIB                  3          9
REACTION   (83-BI-209(N,INL)83-BI-209,PAR,SIG,G)
             Gamma production cross section for transition from
             first excited level to ground state.
EN-SEC     (E,G)      Energy of gamma-transition
           .LVL-INI, LVL-FIN - Initial and final level energy
            of 83-BI-209
STATUS     (CURVE)   Fig.3(left) of main Reference.
            Data obtained in this experiment are smoothed in this
            Figure.
ENDBIB               9
COMMON               5          3
E          LVL-INI    LVL-FIN    EN-ERR-DIG ERR-DIG
KEV        KEV        KEV        KEV        B
896.100    896.29     0.         10.677      5.2532E-04
ENDCOMMON            3
DATA                 2        545
EN         DATA
KEV        B
     903.09  3.1981E-3
     923.61  5.2368E-2
     923.63  4.4394E-2
     923.65  3.3763E-2
     923.66  2.5790E-2
     923.68  1.5158E-2
      944.1    0.11483
     944.14  9.6221E-2
     964.74    0.10685
     964.78  8.4261E-2
      964.8  7.4959E-2
     964.82  6.5657E-2
     964.83  5.9012E-2
     985.39  8.9577E-2
  1.0266E+3  8.1604E-2
  1.0472E+3    0.10021
  1.0472E+3    0.10951
  1.0472E+3    0.12014
  1.0472E+3  9.2236E-2
  1.1089E+3    0.16665
  1.1090E+3    0.12413
  1.1090E+3     0.1321
  1.1090E+3    0.14141
  1.1090E+3    0.15071
  1.1090E+3    0.15868
  1.1091E+3    0.11483
  1.1502E+3    0.17729
  1.1708E+3    0.16267
  1.1708E+3    0.15602
  1.1708E+3    0.17064
  1.1915E+3    0.14805
  1.1915E+3    0.14008
  1.1915E+3     0.1321
  1.2119E+3    0.21184
  1.2119E+3    0.21981
  1.2120E+3    0.18526
  1.2120E+3    0.19323
  1.2120E+3    0.20254
  1.2120E+3    0.17729
  1.2120E+3    0.16533
  1.2121E+3    0.15337
  1.2326E+3    0.20785
  1.2532E+3    0.18127
  1.2532E+3    0.18925
  1.2533E+3    0.17064
  1.2533E+3    0.16001
  1.2739E+3    0.15204
  1.2945E+3    0.16533
  1.2946E+3    0.14539
  1.3151E+3    0.18526
  1.3151E+3    0.19722
  1.3151E+3    0.17729
  1.3356E+3     0.2238
  1.3357E+3     0.2145
  1.3357E+3    0.20652
  1.3562E+3     0.2331
  1.3769E+3    0.21715
  1.3769E+3    0.22779
  1.3975E+3    0.21051
  1.4387E+3    0.23044
  1.4387E+3    0.21848
  1.4388E+3    0.20121
  1.4593E+3    0.25304
  1.4593E+3    0.23975
  1.4593E+3    0.24639
  1.4594E+3    0.20785
  1.5005E+3    0.25835
  1.5211E+3    0.26633
  1.5211E+3    0.27563
  1.5211E+3    0.25304
  1.5417E+3    0.27031
  1.5417E+3    0.26234
  1.5623E+3    0.29025
  1.5623E+3    0.28094
  1.5829E+3    0.30885
  1.5829E+3    0.29822
  1.6035E+3    0.31682
  1.6241E+3     0.3341
  1.6241E+3     0.3434
  1.6241E+3     0.3248
  1.6653E+3    0.33011
  1.6653E+3    0.32081
  1.6654E+3    0.30619
  1.6654E+3    0.29556
  1.6654E+3    0.28626
  1.6654E+3    0.27696
  1.6654E+3    0.26766
  1.6654E+3    0.31417
  1.6655E+3    0.25038
  1.6655E+3    0.25968
  1.6859E+3    0.33676
  1.7271E+3    0.34473
  1.7272E+3     0.3248
  1.7272E+3    0.33144
  1.7477E+3    0.35271
  1.7478E+3    0.33676
  1.7683E+3    0.36201
  1.7683E+3    0.37264
  1.7684E+3    0.32746
  1.7890E+3    0.35669
  1.7890E+3    0.35005
  1.7890E+3    0.34207
  1.8096E+3    0.33277
  1.8302E+3    0.34739
  1.8302E+3    0.34075
  1.8508E+3    0.37397
  1.8508E+3    0.38327
  1.8714E+3      0.366
  1.8714E+3     0.4032
  1.8714E+3    0.39257
  1.8715E+3    0.35536
  1.9332E+3    0.38992
  1.9539E+3    0.38194
  1.9744E+3    0.40453
  1.9745E+3     0.3939
  1.9950E+3    0.41649
  2.0156E+3    0.42713
  2.0362E+3    0.43909
  2.0774E+3    0.45769
  2.0775E+3    0.44839
  2.0981E+3    0.44307
  2.1187E+3    0.42978
  2.1187E+3    0.43643
  2.1599E+3    0.44042
  2.2012E+3    0.43111
  2.2012E+3    0.44706
  2.2217E+3    0.46567
  2.2218E+3    0.45769
  2.2423E+3    0.48294
  2.2423E+3    0.49357
  2.2423E+3    0.50288
  2.2423E+3    0.47497
  2.2629E+3    0.51085
  2.2835E+3    0.52015
  2.3247E+3    0.53876
  2.3247E+3    0.52813
  2.3247E+3    0.51617
  2.3248E+3    0.48959
  2.3248E+3    0.49756
  2.3248E+3    0.50686
  2.3659E+3    0.54806
  2.3865E+3    0.56666
  2.3865E+3    0.55736
  2.4278E+3    0.55205
  2.4278E+3    0.54009
  2.4483E+3     0.6052
  2.4483E+3    0.57198
  2.4483E+3    0.58128
  2.4483E+3    0.58926
  2.4483E+3    0.59856
  2.4690E+3    0.56268
  2.4895E+3    0.59457
  2.5102E+3     0.5773
  2.5102E+3    0.56932
  2.5102E+3    0.58527
  2.5514E+3    0.59457
  2.5514E+3    0.60122
  2.5719E+3    0.62912
  2.5720E+3    0.61849
  2.5720E+3    0.60919
  2.5925E+3     0.6464
  2.5925E+3     0.6371
  2.6543E+3    0.65969
  2.6544E+3    0.64108
  2.6544E+3    0.65039
  2.6750E+3    0.63444
  2.6957E+3    0.61716
  2.6957E+3    0.62647
  2.7368E+3    0.66766
  2.7369E+3    0.64374
  2.7369E+3    0.63311
  2.7574E+3    0.67564
  2.7574E+3    0.66102
  2.7575E+3    0.65305
  2.7780E+3    0.66501
  2.7781E+3    0.65703
  2.7987E+3    0.63843
  2.7987E+3    0.64906
  2.8399E+3    0.66102
  2.8605E+3    0.66899
  2.8605E+3    0.65438
  2.8811E+3    0.67431
  2.8811E+3    0.66501
  2.9224E+3    0.66102
  2.9224E+3    0.66899
  2.9430E+3    0.67431
  2.9430E+3    0.67962
  2.9842E+3    0.67165
  2.9842E+3    0.67963
  2.9842E+3    0.66368
  3.0048E+3     0.6876
  3.0048E+3    0.69291
  3.0254E+3    0.71152
  3.0254E+3    0.70089
  3.0460E+3    0.72082
  3.0666E+3    0.72747
  3.0872E+3    0.73411
  3.0872E+3    0.71816
  3.1284E+3    0.73943
  3.1490E+3    0.74873
  3.1490E+3     0.7567
  3.2108E+3    0.76069
  3.2109E+3    0.74873
  3.2109E+3    0.75405
  3.2315E+3    0.73544
  3.2315E+3    0.72348
  3.2315E+3    0.74209
  3.2521E+3    0.73013
  3.2728E+3    0.71684
  3.2934E+3    0.72614
  3.3140E+3    0.71152
  3.3347E+3    0.70754
  3.3553E+3    0.69823
  3.3759E+3    0.71418
  3.3759E+3    0.70488
  3.3965E+3    0.71019
  3.4378E+3    0.70355
  3.4378E+3    0.69558
  3.4790E+3    0.70089
  3.4790E+3    0.68893
  3.4996E+3    0.69425
  3.5409E+3    0.69956
  3.5409E+3    0.70621
  3.5409E+3    0.69159
  3.5615E+3    0.71418
  3.5821E+3    0.70355
  3.6027E+3    0.69956
  3.6439E+3    0.71418
  3.6439E+3    0.70754
  3.6851E+3    0.72481
  3.6852E+3    0.71684
  3.7058E+3    0.73013
  3.7264E+3    0.73677
  3.7470E+3    0.72083
  3.7470E+3    0.71285
  3.7470E+3    0.72747
  3.8088E+3     0.7288
  3.8089E+3    0.72216
  3.8294E+3    0.73677
  3.8501E+3    0.74475
  3.8707E+3    0.75139
  3.8913E+3    0.76202
  3.8913E+3    0.75804
  3.9531E+3    0.76601
  3.9531E+3    0.75937
  3.9737E+3    0.77133
  3.9943E+3    0.77797
  4.0149E+3    0.78595
  4.0149E+3    0.78196
  4.0356E+3    0.77399
  4.0768E+3    0.78993
  4.0974E+3    0.80189
  4.0974E+3    0.79658
  4.1180E+3    0.81385
  4.1180E+3    0.80721
  4.1592E+3    0.80455
  4.1592E+3    0.79791
  4.1799E+3    0.78595
  4.1799E+3    0.79126
  4.2005E+3     0.7793
  4.2211E+3    0.76734
  4.2211E+3    0.77266
  4.2418E+3    0.75671
  4.2418E+3    0.76203
  4.2624E+3     0.7607
  4.2830E+3    0.77266
  4.2830E+3    0.76469
  4.3036E+3    0.75273
  4.3036E+3    0.75804
  4.3243E+3    0.73545
  4.3243E+3    0.74342
  4.3655E+3    0.73014
  4.3656E+3    0.72349
  4.3656E+3    0.71817
  4.4068E+3    0.71419
  4.4274E+3    0.72083
  4.4480E+3    0.73412
  4.4480E+3    0.74077
  4.4480E+3    0.72748
  4.4892E+3     0.7421
  4.4892E+3    0.73678
  4.5305E+3    0.74741
  4.5511E+3    0.74077
  4.5717E+3    0.73678
  4.5923E+3    0.73147
  4.5924E+3    0.72482
  4.6336E+3    0.73545
  4.6542E+3    0.72615
  4.6542E+3    0.73014
  4.6954E+3    0.73412
  4.7160E+3    0.74077
  4.7366E+3     0.7514
  4.7366E+3    0.74608
  4.7779E+3     0.7421
  4.7779E+3    0.74741
  4.7985E+3    0.73678
  4.8191E+3     0.7328
  4.8398E+3    0.72748
  4.8604E+3    0.72349
  4.9016E+3    0.73014
  4.9016E+3    0.73678
  4.9428E+3     0.7421
  4.9429E+3    0.73413
  4.9841E+3    0.73678
  5.0047E+3    0.74343
  5.0253E+3    0.73944
  5.0666E+3    0.73679
  5.1078E+3    0.73147
  5.1078E+3    0.74077
  5.1284E+3    0.73546
  5.1697E+3    0.72615
  5.1697E+3    0.73014
  5.2109E+3    0.72616
  5.2109E+3    0.73413
  5.2522E+3    0.71951
  5.2728E+3     0.7142
  5.2934E+3    0.71021
  5.3347E+3    0.71287
  5.3347E+3    0.70755
  5.3759E+3    0.71818
  5.3965E+3    0.72217
  5.4171E+3    0.73014
  5.4789E+3    0.73147
  5.4996E+3    0.72483
  5.5408E+3    0.71818
  5.5408E+3    0.71154
  5.5615E+3     0.7049
  5.5821E+3    0.69692
  5.6234E+3    0.69161
  5.6646E+3    0.68629
  5.6852E+3    0.68098
  5.7265E+3    0.68629
  5.7471E+3    0.69028
  5.7677E+3    0.68364
  5.8296E+3    0.68231
  5.8296E+3    0.67699
  5.8502E+3    0.68629
  5.8708E+3    0.69294
  5.8914E+3    0.67699
  5.8914E+3    0.68231
  5.9121E+3    0.67301
  5.9945E+3    0.67566
  5.9945E+3    0.67035
  6.0358E+3    0.65839
  6.0358E+3    0.65307
  6.0358E+3     0.6637
  6.0770E+3    0.66105
  6.1389E+3    0.66238
  6.1595E+3    0.65706
  6.1801E+3    0.65175
  6.2007E+3    0.65839
  6.2420E+3    0.66371
  6.2626E+3    0.65706
  6.2832E+3    0.65042
  6.3039E+3    0.64377
  6.3245E+3    0.63846
  6.3657E+3    0.63447
  6.3863E+3    0.63979
  6.4070E+3    0.63048
  6.4276E+3     0.6358
  6.4894E+3    0.63846
  6.5100E+3    0.64776
  6.5101E+3    0.64245
  6.5513E+3    0.64112
  6.5719E+3    0.64776
  6.6131E+3    0.64378
  6.6132E+3    0.63846
  6.6544E+3    0.63314
  6.6956E+3    0.62916
  6.7163E+3    0.62384
  6.7369E+3    0.63182
  6.7369E+3    0.61853
  6.7575E+3     0.6265
  6.7988E+3    0.62251
  6.8194E+3     0.6172
  6.8400E+3    0.61321
  6.8812E+3    0.61321
  6.8813E+3     0.6079
  6.9225E+3    0.61188
  6.9637E+3    0.61587
  6.9843E+3    0.60923
  7.0256E+3    0.60524
  7.0256E+3    0.61321
  7.0875E+3    0.60258
  7.1081E+3    0.60923
  7.1493E+3    0.60391
  7.1905E+3    0.59993
  7.2318E+3    0.58797
  7.2318E+3    0.59461
  7.2524E+3    0.58265
  7.2730E+3    0.59195
  7.3349E+3    0.58664
  7.3968E+3    0.58132
  7.3968E+3    0.57468
  7.4380E+3    0.57202
  7.4586E+3    0.57734
  7.4999E+3    0.58132
  7.5617E+3       0.58
  7.5824E+3    0.57468
  7.6236E+3       0.58
  7.6854E+3    0.57601
  7.7267E+3    0.56804
  7.7473E+3    0.55209
  7.7473E+3    0.56006
  7.7680E+3    0.54412
  7.8092E+3    0.54943
  7.8505E+3    0.54412
  7.8711E+3    0.53747
  7.8917E+3    0.53216
  7.9330E+3    0.52684
  7.9742E+3    0.51887
  8.0361E+3     0.5109
  8.0361E+3    0.51621
  8.0773E+3    0.50292
  8.0774E+3    0.49628
  8.1186E+3    0.48964
  8.1392E+3    0.48432
  8.1805E+3    0.47768
  8.1805E+3     0.4697
  8.2424E+3     0.4604
  8.2836E+3    0.45509
  8.3249E+3    0.44844
  8.3661E+3    0.44047
  8.4074E+3     0.4325
  8.4486E+3    0.42319
  8.4693E+3    0.41655
  8.5105E+3     0.4099
  8.5312E+3    0.40193
  8.5724E+3    0.39529
  8.5930E+3    0.38864
  8.6343E+3      0.382
  8.6755E+3    0.37403
  8.7168E+3    0.36074
  8.7168E+3    0.36738
  8.7374E+3    0.35409
  8.7787E+3    0.34745
  8.7993E+3     0.3408
  8.8406E+3     0.3315
  8.8818E+3    0.32353
  8.9231E+3    0.31556
  8.9437E+3    0.30758
  8.9643E+3    0.30094
  9.0056E+3    0.29695
  9.0468E+3    0.29961
  9.0675E+3    0.29164
  9.1087E+3    0.28632
  9.1293E+3    0.27968
  9.1912E+3    0.27569
  9.2118E+3    0.26905
  9.2325E+3     0.2624
  9.2737E+3    0.25576
  9.3150E+3     0.2531
  9.3356E+3    0.24779
  9.3768E+3    0.24247
  9.4181E+3    0.23583
  9.4800E+3    0.23051
  9.5418E+3    0.22918
  9.5831E+3    0.22387
  9.6243E+3    0.21722
  9.6449E+3    0.20925
  9.6656E+3    0.20128
  9.7068E+3    0.19463
  9.7481E+3    0.18666
  9.7687E+3      0.184
  9.8306E+3    0.18533
  9.8924E+3     0.1747
  9.9131E+3    0.16673
  9.9543E+3    0.16673
  9.9956E+3    0.16141
  1.0057E+4    0.15743
  1.0181E+4    0.16009
  1.0284E+4    0.15743
  1.0367E+4    0.15211
  1.0408E+4    0.14547
  1.0511E+4    0.14148
  1.0594E+4     0.1375
  1.0655E+4    0.13617
  1.0738E+4    0.13484
  1.0882E+4    0.12953
  1.0965E+4    0.12554
  1.1068E+4    0.12156
  1.1150E+4     0.1189
  1.1212E+4    0.11624
  1.1295E+4    0.12156
  1.1377E+4     0.1189
  1.1460E+4    0.12289
  1.1542E+4    0.12023
  1.1625E+4    0.11624
  1.1686E+4    0.11359
  1.1769E+4    0.11226
  1.1851E+4    0.11492
  1.1934E+4    0.11625
  1.2037E+4    0.11492
  1.2140E+4    0.11492
  1.2264E+4    0.11359
  1.2387E+4    0.11226
  1.2491E+4    0.10695
  1.2594E+4    0.10562
  1.2717E+4    0.10296
  1.2820E+4    0.10164
  1.2924E+4  9.8979E-2
  1.3047E+4  9.6322E-2
  1.3150E+4  9.4994E-2
  1.3253E+4  9.4995E-2
  1.3377E+4  9.4996E-2
  1.3480E+4  9.3668E-2
  1.3604E+4  9.3669E-2
  1.3728E+4  9.2341E-2
  1.3851E+4  9.1014E-2
  1.3996E+4  9.1015E-2
  1.4119E+4  9.1016E-2
  1.4243E+4  9.1017E-2
  1.4367E+4  9.1018E-2
  1.4491E+4  8.8361E-2
  1.4635E+4  8.5704E-2
  1.4759E+4  8.4377E-2
  1.4882E+4  8.3049E-2
  1.4985E+4  8.4378E-2
  1.5109E+4  8.5708E-2
  1.5233E+4  8.5709E-2
  1.5336E+4  8.5710E-2
  1.5480E+4  8.5712E-2
  1.5604E+4  8.3055E-2
  1.5728E+4  8.4385E-2
  1.5831E+4  8.7043E-2
  1.5954E+4  8.7044E-2
  1.6078E+4  8.5716E-2
  1.6202E+4  8.4389E-2
  1.6326E+4  8.1732E-2
  1.6470E+4  8.0404E-2
  1.6573E+4  8.1734E-2
  1.6697E+4  8.4393E-2
  1.6800E+4  8.8380E-2
  1.6903E+4  8.5723E-2
  1.7047E+4  8.5725E-2
  1.7150E+4  8.3068E-2
  1.7233E+4  7.9082E-2
  1.7336E+4  7.5096E-2
  1.7418E+4  7.1110E-2
  1.7542E+4  6.8453E-2
  1.7645E+4  6.5796E-2
  1.7748E+4  6.1810E-2
  1.7893E+4  5.9154E-2
  1.7975E+4  5.5168E-2
  1.8078E+4  5.1182E-2
ENDDATA            547
ENDSUBENT          565
SUBENT        22741003   20070715   20071002   20071002       2186
BIB                  3          9
REACTION   (83-BI-209(N,INL)83-BI-209,PAR,SIG,G)
             Gamma production cross section for transition from
             7th excited level to ground state.
EN-SEC     (E,G)      Energy of gamma-transition
           .LVL-INI, LVL-FIN - Initial and final level Energy
            83-BI-209
STATUS     (CURVE)   Fig.3(right) of main Reference.
            Data obtained in this experiment are smoothed in this
            Figure.
ENDBIB               9
COMMON               5          3
E          LVL-INI    LVL-FIN    EN-ERR-DIG ERR-DIG
KEV        KEV        KEV        KEV        B
2599.100   2599.90    0.          8.0683     1.4924E-04
ENDCOMMON            3
DATA                 2        279
EN         DATA
KEV        B
  2.6318E+3  1.0787E-3
  2.6322E+3  3.8667E-3
  2.6326E+3  7.5841E-3
  2.6331E+3  1.1766E-2
  2.6334E+3  1.4554E-2
  2.6341E+3  2.0130E-2
  2.6756E+3  1.7806E-2
  2.6761E+3  2.2453E-2
  2.7181E+3  2.4776E-2
  2.7186E+3  2.8493E-2
  2.7191E+3  3.3140E-2
  2.7614E+3  3.7321E-2
  2.7618E+3  4.1039E-2
  2.7622E+3  4.4292E-2
  2.7626E+3  4.8009E-2
  2.7631E+3  5.1726E-2
  2.8057E+3  5.8696E-2
  2.8470E+3  5.4978E-2
  2.8479E+3  6.2877E-2
  2.8484E+3  6.6595E-2
  2.8488E+3  7.0312E-2
  2.8910E+3  7.4494E-2
  2.8914E+3  7.7746E-2
  2.9336E+3  8.0998E-2
  2.9756E+3  8.3321E-2
  2.9759E+3  8.6109E-2
  3.0179E+3  8.7503E-2
  3.0593E+3  8.4249E-2
  3.0600E+3  9.0755E-2
  3.0604E+3  9.3543E-2
  3.0608E+3  9.7260E-2
  3.0611E+3    0.10005
  3.0614E+3    0.10284
  3.0617E+3    0.10516
  3.1031E+3    0.10191
  3.1034E+3    0.10423
  3.1037E+3    0.10655
  3.1446E+3  9.9582E-2
  3.1868E+3     0.1033
  3.1871E+3    0.10562
  3.1876E+3     0.1098
  3.2297E+3    0.11306
  3.2302E+3    0.11677
  3.2304E+3     0.1191
  3.2724E+3    0.12096
  3.2726E+3    0.12281
  3.3140E+3     0.1191
  3.3146E+3    0.12421
  3.3148E+3    0.12607
  3.3561E+3    0.12188
  3.3976E+3    0.11956
  3.3980E+3    0.12328
  3.4400E+3     0.1256
  3.4405E+3    0.12932
  3.4409E+3    0.13257
  3.4827E+3     0.1335
  3.4830E+3    0.13582
  3.5252E+3    0.13907
  3.5671E+3    0.14093
  3.5675E+3    0.14372
  3.5678E+3    0.14651
  3.6094E+3    0.14511
  3.6504E+3    0.13861
  3.6509E+3    0.14279
  3.6924E+3       0.14
  3.6926E+3    0.14186
  3.6929E+3    0.14511
  3.7339E+3    0.13768
  3.7751E+3    0.13349
  3.7753E+3    0.13535
  3.7761E+3    0.14139
  3.8167E+3     0.1321
  3.8173E+3    0.13675
  3.8177E+3       0.14
  3.8582E+3    0.12978
  3.9003E+3    0.13256
  3.9424E+3    0.13489
  3.9427E+3    0.13767
  3.9431E+3    0.14093
  3.9844E+3    0.13674
  4.0248E+3    0.12513
  4.0250E+3    0.12745
  4.0253E+3    0.12931
  4.0256E+3    0.13256
  4.0260E+3    0.13581
  4.1085E+3    0.12698
  4.1916E+3     0.1228
  4.1919E+3    0.12512
  4.1922E+3    0.12838
  4.1925E+3    0.13024
  4.2331E+3    0.12048
  4.2746E+3    0.11862
  4.3583E+3    0.12001
  4.3997E+3    0.11676
  4.3999E+3    0.11862
  4.4412E+3    0.11443
  4.4419E+3    0.12047
  4.4826E+3    0.11118
  4.4832E+3    0.11583
  4.5253E+3    0.11908
  4.5675E+3    0.12233
  4.5677E+3    0.12419
  4.6084E+3     0.1149
  4.6087E+3    0.11768
  4.6090E+3    0.12047
  4.6499E+3    0.11257
  4.7338E+3    0.11629
  4.7751E+3     0.1121
  4.7754E+3    0.11443
  4.8160E+3     0.1042
  4.8163E+3    0.10699
  4.8166E+3    0.10932
  4.8580E+3    0.10606
  4.9000E+3    0.10839
  4.9413E+3     0.1042
  4.9422E+3     0.1121
  4.9838E+3    0.11024
  5.0251E+3    0.10653
  5.0253E+3    0.10838
  5.1082E+3    0.10281
  5.1494E+3  9.8159E-2
  5.1497E+3    0.10048
  5.1909E+3  9.5371E-2
  5.2742E+3  9.3975E-2
  5.2746E+3  9.7228E-2
  5.3155E+3  8.9793E-2
  5.3158E+3  9.2116E-2
  5.3578E+3  9.4439E-2
  5.4412E+3  9.3044E-2
  5.4416E+3  9.6761E-2
  5.4420E+3  9.9549E-2
  5.5247E+3  9.2578E-2
  5.5250E+3  9.5366E-2
  5.5254E+3  9.8154E-2
  5.5660E+3  8.8860E-2
  5.6075E+3  8.6536E-2
  5.6081E+3  9.1183E-2
  5.6907E+3  8.3282E-2
  5.7328E+3  8.6069E-2
  5.7330E+3  8.7928E-2
  5.7749E+3  8.8857E-2
  5.7750E+3  9.0251E-2
  5.8588E+3  9.1644E-2
  5.9003E+3  8.9320E-2
  5.9411E+3  8.1420E-2
  5.9414E+3  8.4208E-2
  5.9418E+3  8.6996E-2
  6.0245E+3  8.0024E-2
  6.0659E+3  7.7236E-2
  6.1082E+3  8.1417E-2
  6.1085E+3  8.4205E-2
  6.1506E+3  8.6993E-2
  6.1922E+3  8.5598E-2
  6.2344E+3  8.8850E-2
  6.3174E+3  8.4667E-2
  6.3177E+3  8.6990E-2
  6.3589E+3  8.2343E-2
  6.4423E+3  8.0948E-2
  6.5255E+3  7.8158E-2
  6.5675E+3  8.0481E-2
  6.6510E+3  7.9551E-2
  6.6514E+3  8.3268E-2
  6.6516E+3  8.5127E-2
  6.7767E+3  8.2801E-2
  6.8187E+3  8.4660E-2
  6.8189E+3  8.6518E-2
  6.9022E+3  8.5123E-2
  6.9027E+3  8.9305E-2
  6.9442E+3  8.6981E-2
  6.9856E+3  8.3728E-2
  7.0276E+3  8.5586E-2
  7.0279E+3  8.7909E-2
  7.0691E+3  8.3262E-2
  7.1107E+3  8.1403E-2
  7.1522E+3  7.9543E-2
  7.1938E+3  7.8149E-2
  7.1944E+3  8.3260E-2
  7.2770E+3  7.5359E-2
  7.3191E+3  7.8147E-2
  7.3194E+3  8.0470E-2
  7.3615E+3  8.3258E-2
  7.4453E+3  8.5580E-2
  7.4456E+3  8.7903E-2
  7.4460E+3  9.1156E-2
  7.4880E+3  9.3479E-2
  7.5301E+3  9.5801E-2
  7.5722E+3  9.8589E-2
  7.5725E+3    0.10184
  7.6140E+3  9.9518E-2
  7.6972E+3  9.6728E-2
  7.7383E+3  9.0687E-2
  7.7387E+3  9.3940E-2
  7.7794E+3  8.4646E-2
  7.7798E+3  8.7898E-2
  7.8209E+3  8.2322E-2
  7.8624E+3  7.9998E-2
  7.9463E+3  8.3249E-2
  7.9883E+3  8.5107E-2
  7.9884E+3  8.6501E-2
  8.0305E+3  8.9289E-2
  8.0725E+3  9.0682E-2
  8.1138E+3  8.6964E-2
  8.1553E+3  8.4640E-2
  8.2386E+3  8.2780E-2
  8.2800E+3  7.9527E-2
  8.3214E+3  7.5809E-2
  8.3624E+3  6.9303E-2
  8.3627E+3  7.2556E-2
  8.4038E+3  6.6514E-2
  8.4454E+3  6.4655E-2
  8.4867E+3  6.1402E-2
  8.5282E+3  5.8613E-2
  8.6112E+3  5.3965E-2
  8.6114E+3  5.5824E-2
  8.6528E+3  5.2570E-2
  8.6947E+3  5.3964E-2
  8.7782E+3  5.3033E-2
  8.8197E+3  5.1174E-2
  8.9035E+3  5.3031E-2
  8.9873E+3  5.5354E-2
  9.0709E+3  5.6282E-2
  9.1125E+3  5.4887E-2
  9.2381E+3  5.6744E-2
  9.3632E+3  5.5348E-2
  9.4465E+3  5.3488E-2
  9.5298E+3  5.1164E-2
  9.6128E+3  4.6516E-2
  9.6130E+3  4.8374E-2
  9.6543E+3  4.4192E-2
  9.7375E+3  4.1402E-2
  9.7790E+3  3.8614E-2
  9.8203E+3  3.4896E-2
  9.9033E+3  3.0248E-2
  9.9035E+3  3.2107E-2
  1.0028E+4  2.8387E-2
  1.0153E+4  2.6062E-2
  1.0279E+4  2.4666E-2
  1.0446E+4  2.3270E-2
  1.0571E+4  2.1874E-2
  1.0696E+4  2.0478E-2
  1.0905E+4  2.0475E-2
  1.1114E+4  2.0472E-2
  1.1281E+4  2.1864E-2
  1.1489E+4  2.0931E-2
  1.1615E+4  1.9536E-2
  1.1823E+4  1.9068E-2
  1.2074E+4  1.8135E-2
  1.2241E+4  1.8132E-2
  1.2408E+4  1.7201E-2
  1.2617E+4  1.5804E-2
  1.2784E+4  1.5337E-2
  1.2951E+4  1.6263E-2
  1.3160E+4  1.6725E-2
  1.3410E+4  1.6257E-2
  1.3577E+4  1.6254E-2
  1.3745E+4  1.6252E-2
  1.3912E+4  1.6714E-2
  1.4079E+4  1.6247E-2
  1.4329E+4  1.5779E-2
  1.4496E+4  1.4847E-2
  1.4663E+4  1.5309E-2
  1.4789E+4  1.6237E-2
  1.4956E+4  1.7164E-2
  1.5123E+4  1.8091E-2
  1.5332E+4  1.8088E-2
  1.5541E+4  1.7620E-2
  1.5750E+4  1.8082E-2
  1.5917E+4  1.9009E-2
  1.6084E+4  1.9471E-2
  1.6168E+4  1.9934E-2
  1.6293E+4  1.9003E-2
  1.6418E+4  1.8072E-2
  1.6543E+4  1.7141E-2
  1.6668E+4  1.5745E-2
  1.6835E+4  1.4349E-2
  1.7002E+4  1.2952E-2
  1.7127E+4  1.2021E-2
  1.7253E+4  1.0625E-2
  1.7378E+4  9.2292E-3
ENDDATA            281
ENDSUBENT          299
SUBENT        22741004   20070715   20071002   20071002       2186
BIB                  3         11
REACTION   (83-BI-209(N,INL)83-BI-209,,SIG)
            Total inelastic cross section.
ANALYSIS   Total inelastic cross section was constructed on the
           base of measured gamma production cross sections and
           adopted level scheme of Bi-209; considered precise up
           to highest observed excited level 3.48MeV.
           Contribution of unobserved levels between 2.60MeV and
           3.48MeV is considered negligible.
           Above 3.48MeV excitation function is lower limit for
           total inelastic cross section.
STATUS     (CURVE)   Fig.4 of main Reference. (smooth curve)
ENDBIB              11
COMMON               2          3
EN-ERR-DIG ERR-DIG
KEV        B
 16.665     3.2484E-03
ENDCOMMON            3
DATA                 2        840
EN         DATA
KEV        B
     910.56  1.1891E-2
     920.63  3.1429E-2
     920.64  7.0517E-2
     920.66    0.11612
     925.67  5.0971E-2
     925.68  9.6573E-2
      925.7    0.14869
     930.69  5.3655E-3
     935.73  2.4907E-2
     935.74  6.3995E-2
     940.78  9.0050E-2
     940.79    0.12914
      940.8    0.16171
     945.81  7.7019E-2
     945.82    0.10959
     950.83  4.4443E-2
     955.87  6.3984E-2
     955.88  9.6557E-2
     955.89    0.12913
     955.91    0.17473
     955.92    0.22034
     955.93    0.25942
      960.9  3.7923E-2
     960.93    0.14867
     960.95    0.20079
     965.94  8.3523E-2
     970.97  6.3976E-2
     970.99    0.10958
       971.    0.14867
     976.01  8.3517E-2
     981.03  5.0942E-2
     986.06  2.4880E-2
     986.07  7.0483E-2
     986.08    0.10306
     986.09    0.13563
     991.11  9.0024E-2
     991.13    0.15517
     996.13  5.7448E-2
  1.0012E+3  9.6533E-2
  1.0012E+3    0.12911
  1.0012E+3    0.14865
  1.0012E+3  2.4872E-2
  1.0062E+3  7.6987E-2
  1.0113E+3    0.10956
  1.0163E+3  5.0923E-2
  1.0213E+3  7.6979E-2
  1.0213E+3  9.6523E-2
  1.0264E+3    0.14864
  1.0264E+3    0.11606
  1.0314E+3    0.16818
  1.0364E+3     0.1356
  1.0364E+3    0.10303
  1.0364E+3  7.0456E-2
  1.0414E+3  3.1366E-2
  1.0465E+3  6.3936E-2
  1.0465E+3  9.6510E-2
  1.0465E+3    0.14863
  1.0465E+3    0.19423
  1.0515E+3    0.12257
  1.0565E+3  7.6960E-2
  1.0566E+3    0.18119
  1.0566E+3    0.15514
  1.0616E+3    0.10302
  1.0666E+3    0.12907
  1.0717E+3    0.15513
  1.0767E+3    0.17467
  1.0767E+3    0.21376
  1.0767E+3  8.3465E-2
  1.0817E+3    0.15512
  1.0817E+3    0.19421
  1.0818E+3    0.23981
  1.0867E+3  8.3459E-2
  1.0868E+3    0.12906
  1.0918E+3    0.16815
  1.0918E+3    0.20723
  1.0968E+3  8.3454E-2
  1.0968E+3    0.11603
  1.1019E+3    0.14208
  1.1069E+3    0.18117
  1.1069E+3    0.10951
  1.1069E+3  7.6934E-2
  1.1119E+3  3.7844E-2
  1.1170E+3    0.12905
  1.1170E+3    0.16162
  1.1220E+3    0.19419
  1.1220E+3  9.6470E-2
  1.1270E+3    0.18116
  1.1321E+3    0.21373
  1.1321E+3    0.16813
  1.1321E+3    0.14207
  1.1321E+3    0.23327
  1.1371E+3    0.19418
  1.1421E+3    0.10949
  1.1421E+3    0.14858
  1.1472E+3    0.25281
  1.1472E+3    0.20721
  1.1522E+3    0.18114
  1.1572E+3    0.14857
  1.1572E+3    0.21371
  1.1623E+3    0.27234
  1.1623E+3    0.23977
  1.1673E+3    0.20068
  1.1673E+3    0.17462
  1.1673E+3    0.15508
  1.1723E+3    0.22674
  1.1723E+3    0.11599
  1.1774E+3    0.18113
  1.1774E+3    0.14856
  1.1874E+3    0.15507
  1.1874E+3    0.13552
  1.1874E+3    0.20067
  1.1924E+3  7.6889E-2
  1.1975E+3    0.11597
  1.1975E+3    0.16158
  1.2025E+3    0.18112
  1.2076E+3    0.20066
  1.2126E+3    0.13551
  1.2126E+3     0.1746
  1.2176E+3    0.23323
  1.2176E+3    0.19414
  1.2227E+3     0.2658
  1.2227E+3    0.29837
  1.2277E+3    0.27882
  1.2277E+3    0.18762
  1.2277E+3    0.32443
  1.2327E+3    0.21368
  1.2327E+3    0.16807
  1.2328E+3    0.24625
  1.2378E+3     0.1355
  1.2478E+3    0.19412
  1.2478E+3    0.15504
  1.2528E+3    0.13549
  1.2579E+3    0.17457
  1.2579E+3    0.20715
  1.2629E+3    0.11594
  1.2629E+3    0.23972
  1.2630E+3    0.28532
  1.2680E+3    0.26577
  1.2680E+3    0.19411
  1.2680E+3    0.31789
  1.2730E+3    0.17457
  1.2780E+3    0.14851
  1.2830E+3    0.10941
  1.2831E+3    0.21365
  1.2831E+3    0.24622
  1.2831E+3    0.16805
  1.2931E+3    0.15501
  1.2981E+3    0.12895
  1.2982E+3    0.18107
  1.3032E+3    0.21364
  1.3082E+3    0.13546
  1.3133E+3    0.22666
  1.3133E+3    0.18106
  1.3183E+3    0.25272
  1.3233E+3    0.18757
  1.3334E+3    0.20711
  1.3334E+3    0.14848
  1.3334E+3    0.23317
  1.3384E+3    0.18756
  1.3435E+3    0.22013
  1.3485E+3    0.27225
  1.3485E+3    0.30482
  1.3485E+3     0.1615
  1.3536E+3    0.32436
  1.3586E+3    0.28527
  1.3586E+3    0.22664
  1.3636E+3    0.18755
  1.3686E+3    0.16149
  1.3737E+3     0.2136
  1.3737E+3    0.18754
  1.3787E+3    0.24617
  1.3837E+3    0.22011
  1.3888E+3    0.20056
  1.3938E+3    0.15496
  1.3988E+3    0.25268
  1.3988E+3     0.2201
  1.4039E+3    0.20056
  1.4089E+3    0.16147
  1.4139E+3    0.22661
  1.4190E+3    0.25918
  1.4240E+3    0.23963
  1.4290E+3    0.18751
  1.4290E+3    0.21357
  1.4341E+3    0.16145
  1.4391E+3    0.20054
  1.4391E+3    0.23963
  1.4391E+3    0.26568
  1.4441E+3    0.22008
  1.4492E+3    0.20705
  1.4492E+3    0.18099
  1.4542E+3    0.24613
  1.4592E+3    0.22659
  1.4593E+3    0.28522
  1.4643E+3    0.16795
  1.4643E+3    0.20052
  1.4693E+3    0.25915
  1.4693E+3    0.29173
  1.4693E+3    0.22007
  1.4744E+3     0.3243
  1.4794E+3    0.25915
  1.4794E+3    0.29172
  1.4844E+3    0.20051
  1.4894E+3     0.2396
  1.4945E+3    0.26566
  1.4995E+3    0.29171
  1.5046E+3    0.27216
  1.5096E+3    0.29822
  1.5096E+3     0.2461
  1.5146E+3    0.31776
  1.5197E+3    0.34382
  1.5247E+3     0.2917
  1.5247E+3    0.27215
  1.5297E+3    0.24609
  1.5347E+3    0.26563
  1.5398E+3    0.30472
  1.5448E+3    0.27866
  1.5498E+3     0.2526
  1.5549E+3    0.22654
  1.5599E+3    0.29819
  1.5649E+3    0.25259
  1.5650E+3    0.33076
  1.5700E+3    0.27864
  1.5750E+3    0.31122
  1.5851E+3    0.29167
  1.5901E+3     0.2656
  1.5901E+3    0.31772
  1.5901E+3     0.3503
  1.5952E+3    0.38287
  1.6002E+3     0.3112
  1.6002E+3    0.33726
  1.6102E+3    0.28514
  1.6103E+3    0.33074
  1.6153E+3    0.36983
  1.6203E+3    0.35028
  1.6254E+3    0.32422
  1.6304E+3    0.42193
  1.6304E+3    0.36982
  1.6354E+3    0.38936
  1.6405E+3     0.4089
  1.6455E+3    0.31769
  1.6455E+3    0.28512
  1.6455E+3    0.35678
  1.6555E+3    0.24603
  1.6606E+3     0.2786
  1.6606E+3    0.31768
  1.6656E+3    0.34374
  1.6707E+3     0.3698
  1.6707E+3    0.40237
  1.6707E+3    0.29162
  1.6757E+3    0.43494
  1.6757E+3      0.461
  1.6858E+3    0.42191
  1.6908E+3    0.38933
  1.6908E+3    0.35676
  1.6908E+3    0.46099
  1.6958E+3     0.3763
  1.6958E+3    0.31115
  1.7009E+3    0.40235
  1.7009E+3    0.44144
  1.7059E+3    0.48053
  1.7110E+3    0.41538
  1.7110E+3    0.45447
  1.7160E+3    0.37629
  1.7210E+3    0.33068
  1.7210E+3    0.39583
  1.7311E+3    0.45446
  1.7311E+3    0.42188
  1.7361E+3    0.48703
  1.7412E+3    0.44142
  1.7412E+3    0.46748
  1.7462E+3    0.40884
  1.7512E+3    0.38278
  1.7563E+3    0.42187
  1.7613E+3    0.46747
  1.7663E+3    0.42186
  1.7714E+3    0.49352
  1.7714E+3    0.45443
  1.7764E+3    0.53261
  1.7814E+3    0.47397
  1.7865E+3      0.487
  1.7865E+3    0.44791
  1.7915E+3    0.51306
  1.7965E+3    0.42185
  1.7965E+3    0.46745
  1.8016E+3     0.4479
  1.8116E+3    0.40881
  1.8167E+3    0.48047
  1.8167E+3    0.44138
  1.8217E+3    0.51955
  1.8268E+3    0.55864
  1.8318E+3    0.50652
  1.8318E+3    0.48046
  1.8368E+3    0.44137
  1.8418E+3    0.49348
  1.8469E+3    0.51303
  1.8469E+3    0.53908
  1.8519E+3    0.46091
  1.8569E+3    0.49348
  1.8620E+3    0.47393
  1.8620E+3    0.53256
  1.8620E+3    0.56514
  1.8670E+3    0.60422
  1.8721E+3    0.57816
  1.8771E+3     0.5521
  1.8821E+3    0.52604
  1.8821E+3    0.57164
  1.8821E+3    0.60421
  1.8872E+3    0.63027
  1.8922E+3    0.55209
  1.8922E+3      0.513
  1.8972E+3    0.53906
  1.8972E+3    0.57815
  1.9022E+3    0.49997
  1.9073E+3    0.55208
  1.9073E+3    0.51951
  1.9123E+3    0.58465
  1.9224E+3    0.55859
  1.9274E+3    0.53904
  1.9324E+3    0.50647
  1.9325E+3    0.57161
  1.9375E+3    0.59767
  1.9375E+3    0.53252
  1.9425E+3    0.55206
  1.9475E+3    0.49994
  1.9476E+3    0.56509
  1.9576E+3    0.62372
  1.9576E+3    0.59114
  1.9677E+3    0.64326
  1.9728E+3     0.6628
  1.9728E+3    0.68886
  1.9778E+3    0.63674
  1.9778E+3    0.59765
  1.9778E+3    0.56507
  1.9778E+3    0.70188
  1.9828E+3    0.50644
  1.9878E+3    0.54553
  1.9878E+3    0.59113
  1.9878E+3    0.63022
  1.9929E+3    0.66279
  1.9979E+3    0.61718
  2.0029E+3    0.64975
  2.0029E+3    0.59112
  2.0030E+3    0.67581
  2.0080E+3     0.7149
  2.0130E+3    0.62369
  2.0130E+3    0.59111
  2.0130E+3    0.66278
  2.0231E+3    0.56505
  2.0281E+3    0.60414
  2.0281E+3    0.64322
  2.0281E+3    0.68231
  2.0281E+3     0.7214
  2.0282E+3    0.76049
  2.0332E+3    0.73443
  2.0332E+3      0.767
  2.0382E+3    0.67579
  2.0432E+3    0.64973
  2.0483E+3    0.68882
  2.0533E+3    0.72139
  2.0583E+3    0.66927
  2.0634E+3    0.70835
  2.0634E+3    0.74744
  2.0634E+3    0.79956
  2.0634E+3    0.83213
  2.0734E+3     0.7344
  2.0734E+3    0.68229
  2.0735E+3    0.78001
  2.0784E+3    0.62365
  2.0785E+3    0.66926
  2.0785E+3    0.72137
  2.0835E+3    0.76697
  2.0885E+3    0.74743
  2.0885E+3    0.70834
  2.0886E+3    0.81257
  2.0936E+3    0.66925
  2.0986E+3    0.70182
  2.0986E+3    0.73439
  2.1087E+3    0.74742
  2.1087E+3    0.70833
  2.1087E+3    0.77347
  2.1137E+3    0.67575
  2.1187E+3    0.64318
  2.1238E+3    0.70181
  2.1238E+3    0.74741
  2.1288E+3    0.76695
  2.1288E+3    0.79301
  2.1338E+3    0.72786
  2.1439E+3    0.72134
  2.1439E+3    0.68877
  2.1489E+3    0.75391
  2.1540E+3    0.80602
  2.1590E+3    0.73436
  2.1590E+3    0.70179
  2.1590E+3    0.77345
  2.1640E+3     0.7539
  2.1741E+3    0.74738
  2.1791E+3    0.76692
  2.1892E+3    0.80601
  2.1942E+3    0.73434
  2.1942E+3     0.6692
  2.1942E+3    0.76691
  2.1993E+3    0.72131
  2.2093E+3    0.76039
  2.2144E+3    0.72782
  2.2194E+3    0.79947
  2.2194E+3    0.77342
  2.2245E+3    0.84507
  2.2295E+3    0.80598
  2.2345E+3    0.83204
  2.2345E+3    0.78644
  2.2395E+3    0.73432
  2.2446E+3    0.81249
  2.2446E+3    0.77992
  2.2496E+3    0.84506
  2.2647E+3    0.87111
  2.2647E+3    0.83854
  2.2697E+3    0.76688
  2.2698E+3    0.80596
  2.2798E+3    0.83853
  2.2849E+3     0.8711
  2.2899E+3    0.91019
  2.2949E+3    0.85155
  2.2949E+3    0.88413
  2.3000E+3    0.91018
  2.3050E+3    0.85806
  2.3050E+3    0.82549
  2.3100E+3    0.88412
  2.3151E+3    0.85154
  2.3151E+3    0.81245
  2.3251E+3    0.88411
  2.3302E+3    0.94274
  2.3302E+3    0.91668
  2.3352E+3    0.87107
  2.3352E+3    0.82547
  2.3352E+3     0.7929
  2.3402E+3    0.90365
  2.3402E+3    0.85153
  2.3503E+3    0.94924
  2.3503E+3     0.9297
  2.3604E+3    0.96878
  2.3604E+3    0.91666
  2.3654E+3    0.87757
  2.3704E+3    0.90363
  2.3705E+3    0.94923
  2.3755E+3    0.92317
  2.3855E+3    0.90362
  2.3906E+3    0.87105
  2.3906E+3    0.92968
  2.3906E+3    0.96877
  2.4007E+3    0.97527
  2.4007E+3     0.9427
  2.4057E+3    0.95573
  2.4057E+3    0.92315
  2.4057E+3    0.99482
  2.4107E+3    0.89709
  2.4158E+3    0.92966
  2.4208E+3     0.9036
  2.4258E+3    0.87754
  2.4309E+3    0.92314
  2.4359E+3    0.97526
  2.4409E+3    0.94268
  2.4459E+3    0.88405
  2.4460E+3    0.92965
  2.4510E+3    0.96873
  2.4560E+3    0.99479
  2.4661E+3     1.0274
  2.4762E+3     1.0013
  2.4862E+3    0.97523
  2.4862E+3    0.94917
  2.4912E+3    0.92311
  2.4913E+3     1.0143
  2.4963E+3     0.9622
  2.5013E+3    0.98825
  2.5064E+3    0.93613
  2.5114E+3    0.97522
  2.5215E+3     1.0143
  2.5315E+3     1.0013
  2.5316E+3     1.0534
  2.5366E+3    0.96869
  2.5416E+3     1.0534
  2.5416E+3     1.0208
  2.5467E+3     1.0729
  2.5517E+3     1.0273
  2.5567E+3    0.98171
  2.5617E+3     1.0078
  2.5618E+3     1.0403
  2.5668E+3    0.97519
  2.5718E+3    0.95564
  2.5718E+3     1.0273
  2.5769E+3     1.0664
  2.5819E+3     1.0924
  2.5869E+3     1.1315
  2.5920E+3     1.1055
  2.5920E+3     1.1576
  2.5970E+3     1.0794
  2.5970E+3     1.0403
  2.6020E+3      1.138
  2.6071E+3      1.112
  2.6121E+3     1.0859
  2.6171E+3     1.0468
  2.6222E+3     1.1055
  2.6272E+3     1.1641
  2.6322E+3     1.0729
  2.6322E+3     1.1185
  2.6372E+3     1.0403
  2.6373E+3     1.1054
  2.6423E+3     1.1445
  2.6474E+3     1.1771
  2.6524E+3     1.2097
  2.6624E+3     1.1575
  2.6625E+3     1.1836
  2.6625E+3     1.2553
  2.6625E+3     1.2227
  2.6776E+3     1.2487
  2.6776E+3     1.1901
  2.6826E+3     1.2162
  2.6876E+3     1.1836
  2.6926E+3      1.151
  2.6977E+3     1.1054
  2.7027E+3     1.1445
  2.7077E+3      1.125
  2.7078E+3     1.1901
  2.7128E+3      1.164
  2.7228E+3     1.1445
  2.7279E+3     1.1119
  2.7329E+3     1.1966
  2.7329E+3     1.2422
  2.7430E+3     1.2813
  2.7480E+3     1.2422
  2.7581E+3     1.3334
  2.7581E+3      1.379
  2.7581E+3     1.3008
  2.7632E+3     1.3594
  2.7682E+3     1.3138
  2.7732E+3     1.3529
  2.7883E+3     1.2747
  2.7883E+3     1.3203
  2.7933E+3     1.2487
  2.7984E+3     1.1966
  2.7984E+3     1.2813
  2.8034E+3     1.3594
  2.8034E+3     1.3203
  2.8185E+3     1.3529
  2.8185E+3     1.3855
  2.8336E+3     1.3203
  2.8387E+3     1.3529
  2.8387E+3      1.392
  2.8437E+3     1.4311
  2.8488E+3     1.4767
  2.8538E+3     1.4311
  2.8588E+3      1.392
  2.8639E+3     1.4311
  2.8689E+3     1.4832
  2.8739E+3      1.418
  2.8789E+3      1.392
  2.8840E+3     1.3333
  2.8890E+3      1.418
  2.8890E+3     1.4441
  2.8890E+3     1.3789
  2.8941E+3     1.4766
  2.8991E+3     1.4376
  2.9041E+3     1.4115
  2.9091E+3     1.3529
  2.9142E+3     1.4375
  2.9142E+3     1.3985
  2.9192E+3     1.4701
  2.9243E+3     1.5157
  2.9293E+3     1.5548
  2.9343E+3     1.4962
  2.9344E+3     1.5353
  2.9344E+3     1.5874
  2.9394E+3     1.4636
  2.9394E+3     1.4245
  2.9444E+3     1.3724
  2.9494E+3      1.444
  2.9595E+3     1.5092
  2.9595E+3     1.4766
  2.9746E+3     1.5157
  2.9797E+3     1.5548
  2.9797E+3     1.5873
  2.9847E+3     1.6069
  2.9897E+3     1.5613
  2.9948E+3     1.5157
  2.9998E+3     1.5873
  2.9998E+3     1.5417
  3.0049E+3     1.6394
  3.0099E+3     1.5743
  3.0099E+3     1.5417
  3.0099E+3     1.6069
  3.0199E+3     1.5548
  3.0249E+3     1.5091
  3.0250E+3     1.5873
  3.0250E+3     1.6264
  3.0300E+3     1.6655
  3.0350E+3     1.6134
  3.0351E+3     1.6525
  3.0401E+3     1.6981
  3.0451E+3     1.6655
  3.0501E+3     1.6199
  3.0602E+3     1.6915
  3.0602E+3     1.6524
  3.0703E+3     1.7436
  3.0753E+3     1.7111
  3.0753E+3     1.6785
  3.0753E+3     1.6329
  3.0803E+3     1.5873
  3.0854E+3      1.659
  3.0854E+3     1.6264
  3.0904E+3      1.685
  3.0954E+3     1.6133
  3.0955E+3      1.672
  3.0955E+3     1.6459
  3.1005E+3     1.7176
  3.1055E+3     1.6068
  3.1055E+3     1.6655
  3.1105E+3     1.5677
  3.1106E+3     1.6459
  3.1106E+3      1.698
  3.1106E+3     1.7501
  3.1156E+3     1.7892
  3.1207E+3     1.7567
  3.1257E+3     1.7371
  3.1257E+3     1.7176
  3.1257E+3     1.7827
  3.1307E+3      1.685
  3.1307E+3     1.6589
  3.1357E+3      1.711
  3.1458E+3     1.7045
  3.1559E+3     1.6785
  3.1609E+3      1.711
  3.1609E+3     1.7501
  3.1660E+3     1.7892
  3.1710E+3     1.8218
  3.1760E+3     1.7436
  3.1760E+3     1.7762
  3.1810E+3     1.6915
  3.1861E+3     1.7306
  3.1911E+3     1.7762
  3.1962E+3     1.8348
  3.1962E+3     1.8022
  3.2012E+3     1.8608
  3.2062E+3     1.8218
  3.2113E+3     1.7892
  3.2163E+3     1.7566
  3.2213E+3     1.7892
  3.2213E+3      1.724
  3.2264E+3     1.8739
  3.2264E+3     1.8217
  3.2364E+3     1.8413
  3.2415E+3     1.8087
  3.2415E+3     1.7761
  3.2465E+3     1.7501
  3.2566E+3     1.7957
  3.2666E+3     1.8608
  3.2666E+3     1.8152
  3.2717E+3     1.8934
  3.2767E+3      1.926
  3.2767E+3     1.8738
  3.2868E+3     1.9064
  3.2868E+3     1.8673
  3.2969E+3     1.9325
  3.3019E+3     1.8999
  3.3069E+3     1.8347
  3.3069E+3     1.8738
  3.3119E+3     1.8022
  3.3170E+3     1.8608
  3.3170E+3     1.9129
  3.3170E+3      1.952
  3.3221E+3     1.9846
  3.3270E+3     1.8608
  3.3271E+3     1.8999
  3.3271E+3      1.939
  3.3321E+3     1.8087
  3.3371E+3     1.8868
  3.3371E+3     1.8477
  3.3422E+3     1.9455
  3.3472E+3     1.9259
  3.3472E+3     1.8868
  3.3522E+3     1.8347
  3.3572E+3     1.8738
  3.3623E+3     1.9129
  3.3673E+3     1.9389
  3.3774E+3      1.952
  3.3824E+3     1.9259
  3.3875E+3     1.8868
  3.3975E+3     1.9259
  3.4076E+3     1.9454
  3.4126E+3     1.9845
  3.4177E+3     1.9585
  3.4177E+3     2.0236
  3.4227E+3     1.9063
  3.4277E+3     1.9454
  3.4278E+3     2.0431
  3.4278E+3      1.991
  3.4328E+3     2.0301
  3.4328E+3     2.0822
  3.4378E+3     1.9389
  3.4378E+3     1.9845
  3.4420E+3     2.0372
  3.4429E+3     2.0627
  3.4429E+3     2.0106
  3.4479E+3     2.0301
  3.4529E+3      1.991
  3.4579E+3     1.9649
  3.4579E+3     1.9389
  3.4730E+3     1.9649
  3.4781E+3      2.004
  3.4831E+3     2.0692
  3.4831E+3     2.0301
  3.4882E+3     2.1017
  3.5626E+3     2.0271
  3.6027E+3      2.078
  3.6829E+3     2.1086
  3.6830E+3      2.078
  3.7230E+3     2.1493
  3.8033E+3     2.1901
  3.8433E+3     2.2512
  3.8832E+3     2.3429
  3.8833E+3     2.3022
  3.9233E+3     2.3735
  3.9635E+3     2.3531
  4.0438E+3     2.3837
  4.0838E+3     2.4346
  4.1238E+3     2.4958
  4.2044E+3     2.4448
  4.2045E+3     2.3939
  4.3654E+3     2.3634
  4.4455E+3     2.4449
  4.4457E+3     2.4041
  4.5258E+3     2.4755
  4.5662E+3     2.4042
  4.5662E+3     2.4245
  4.6464E+3     2.4653
  4.7669E+3     2.5061
  4.8474E+3     2.4653
  5.0082E+3     2.4654
  5.0887E+3     2.4246
  5.1290E+3     2.3941
  5.2495E+3     2.4247
  5.2898E+3     2.3839
  5.4505E+3      2.384
  5.5311E+3     2.3331
  5.6116E+3     2.3025
  5.6519E+3     2.2618
  5.8126E+3      2.272
  6.0135E+3     2.2924
  6.1342E+3     2.2721
  6.2548E+3     2.2517
  6.3353E+3     2.2314
  6.4157E+3      2.211
  6.4960E+3     2.2518
  6.5763E+3     2.2823
  6.6568E+3     2.2314
  6.7374E+3     2.1805
  6.8579E+3     2.1907
  6.9784E+3     2.2111
  7.0990E+3     2.2111
  7.2597E+3     2.2417
  7.3400E+3     2.2723
  7.4204E+3     2.2621
  7.5408E+3     2.3131
  7.6614E+3     2.3131
  7.7419E+3     2.2724
  7.8224E+3     2.2418
  7.9430E+3     2.2215
  8.0637E+3     2.1808
  8.1844E+3     2.1502
  8.2649E+3     2.1095
  8.3053E+3     2.0688
  8.4260E+3     2.0077
  8.5066E+3     1.9568
  8.5469E+3      1.916
  8.5873E+3     1.8651
  8.6678E+3      1.804
  8.7484E+3     1.7633
  8.7887E+3     1.7225
  8.8692E+3     1.6716
  8.9095E+3     1.6411
  9.0303E+3       1.58
  9.0707E+3      1.529
  9.1110E+3     1.4883
  9.1915E+3     1.4476
  9.2720E+3     1.3967
  9.3526E+3     1.3559
  9.3929E+3     1.3152
  9.4734E+3     1.2643
  9.5540E+3     1.2032
  9.6345E+3     1.1624
  9.7151E+3     1.1013
  9.7554E+3     1.0606
  9.8360E+3     1.0199
  9.9165E+3    0.96896
  9.9970E+3    0.92823
  1.0078E+4     0.8875
  1.0198E+4    0.85696
  1.0319E+4    0.82643
  1.0480E+4    0.80609
  1.0600E+4    0.77555
  1.0721E+4    0.74502
  1.0802E+4    0.70429
  1.0922E+4    0.67375
  1.1043E+4    0.64322
  1.1164E+4    0.61268
  1.1365E+4    0.58216
  1.1485E+4    0.55163
  1.1646E+4     0.5211
  1.1807E+4    0.50076
  1.1928E+4    0.48041
  1.2089E+4    0.46007
  1.2249E+4    0.44992
  1.2410E+4    0.42958
  1.2651E+4    0.41944
  1.2893E+4    0.39912
  1.3174E+4    0.38899
  1.3375E+4    0.38903
  1.3576E+4    0.37889
  1.3857E+4    0.36876
  1.4098E+4    0.36881
  1.4299E+4    0.35866
  1.4460E+4     0.3587
  1.4661E+4    0.34855
  1.4902E+4     0.3486
  1.5144E+4    0.33847
  1.5304E+4     0.3385
  1.5626E+4    0.33856
  1.5867E+4    0.32843
  1.6108E+4    0.32848
  1.6349E+4    0.31834
  1.6550E+4     0.3082
  1.6751E+4    0.30824
  1.6952E+4    0.29809
  1.7153E+4    0.29813
  1.7354E+4    0.28799
  1.7555E+4    0.28803
  1.7756E+4    0.28807
  1.7957E+4    0.28811
  1.8158E+4    0.28815
  1.8359E+4     0.2882
  1.8600E+4    0.28825
  1.8801E+4    0.28829
ENDDATA            842
ENDSUBENT          862
SUBENT        22741005   20070715   20071002   20071002       2186
BIB                  4          7
REACTION   (83-BI-209(N,INL)83-BI-209,PAR,SIG,,REL)  Inelastic
            Level cross section. Units on DATA axe not given
EN-SEC     (E-LVL,83-BI-209) Energy of excited level
ANALYSIS   .Level cross section was constructed on the base of
            measured gamma production cross sections and adopted
            level scheme of Bi-209.
STATUS     (CURVE) Fig.5(left) of main Reference. (smooth curve)
ENDBIB               7
COMMON               3          3
E-LVL      EN-ERR-DIG ERR-DIG
KEV        KEV        ARB-UNITS
896.29     3.5058      4.0078E-04
ENDCOMMON            3
DATA                 2        355
EN         DATA
KEV        ARB-UNITS
     909.21  4.2298E-3
     924.65  5.0530E-2
     924.67  3.8184E-2
     924.69  2.5839E-2
     924.71  1.3493E-2
     932.39  6.2877E-2
     940.16  5.6706E-2
     940.19  3.8188E-2
     947.89  7.2140E-2
     955.58    0.11844
      955.6    0.10301
     955.63  8.4488E-2
     963.32    0.13079
     971.11    0.11227
     971.13  9.9924E-2
     971.15  8.7578E-2
     986.66  9.3755E-2
     986.67  8.4496E-2
      986.7  6.9064E-2
      994.4    0.10302
  1.0022E+3  9.0673E-2
  1.0022E+3  6.9068E-2
  1.0099E+3    0.10611
  1.0177E+3  9.6850E-2
  1.0254E+3    0.11228
  1.0255E+3  8.7593E-2
  1.0332E+3    0.12463
  1.0409E+3    0.11537
  1.0409E+3    0.13698
  1.0487E+3  9.3772E-2
  1.0565E+3    0.10921
  1.0642E+3    0.12155
  1.0642E+3    0.13698
  1.0719E+3    0.14933
  1.0796E+3     0.1802
  1.0797E+3    0.16477
  1.0874E+3    0.19255
  1.0952E+3     0.1586
  1.0952E+3    0.17403
  1.1030E+3    0.14625
  1.1185E+3    0.13391
  1.1262E+3    0.16478
  1.1262E+3    0.14935
  1.1263E+3    0.12466
  1.1339E+3    0.20182
  1.1339E+3     0.1833
  1.1417E+3    0.19565
  1.1494E+3    0.20182
  1.1495E+3    0.18639
  1.1572E+3    0.21726
  1.1649E+3      0.208
  1.1805E+3    0.19874
  1.1883E+3    0.17714
  1.1883E+3    0.18949
  1.1961E+3    0.15862
  1.2038E+3    0.18949
  1.2038E+3    0.17097
  1.2115E+3    0.22653
  1.2115E+3    0.20801
  1.2192E+3    0.24196
  1.2192E+3    0.25739
  1.2269E+3    0.26666
  1.2347E+3    0.25123
  1.2425E+3    0.22036
  1.2425E+3    0.23271
  1.2426E+3    0.20185
  1.2503E+3     0.1895
  1.2581E+3    0.19259
  1.2581E+3    0.17099
  1.2658E+3    0.20494
  1.2736E+3    0.21729
  1.2814E+3    0.20186
  1.2814E+3    0.18951
  1.2814E+3    0.18025
  1.2892E+3    0.16482
  1.3046E+3    0.19878
  1.3047E+3    0.18643
  1.3047E+3    0.17408
  1.3124E+3    0.22038
  1.3201E+3    0.23582
  1.3278E+3    0.25742
  1.3356E+3    0.24817
  1.3434E+3    0.23891
  1.3434E+3    0.22348
  1.3511E+3    0.25743
  1.3511E+3    0.24508
  1.3588E+3    0.27286
  1.3666E+3    0.28212
  1.3666E+3    0.26361
  1.3744E+3    0.25126
  1.3822E+3    0.22349
  1.3822E+3    0.23275
  1.4055E+3    0.23893
  1.4209E+3    0.26053
  1.4210E+3    0.25128
  1.4365E+3    0.24202
  1.4520E+3    0.22968
  1.4521E+3    0.21116
  1.4597E+3    0.26363
  1.4598E+3    0.24511
  1.4674E+3     0.2945
  1.4675E+3    0.27906
  1.4830E+3    0.28524
  1.4830E+3    0.29759
  1.4985E+3    0.28833
  1.5062E+3    0.30994
  1.5139E+3    0.32846
  1.5217E+3     0.3192
  1.5372E+3    0.31612
  1.5373E+3    0.30377
  1.5450E+3    0.29452
  1.5605E+3    0.30069
  1.5682E+3    0.34391
  1.5683E+3    0.32847
  1.5683E+3    0.31613
  1.5838E+3    0.34082
  1.5915E+3    0.35626
  1.5993E+3    0.34391
  1.6070E+3    0.35935
  1.6070E+3    0.37478
  1.6225E+3    0.38404
  1.6225E+3     0.3717
  1.6302E+3    0.40256
  1.6380E+3    0.39331
  1.6458E+3    0.37788
  1.6458E+3    0.35936
  1.6458E+3    0.34084
  1.6536E+3    0.31615
  1.6536E+3     0.3285
  1.6614E+3    0.29455
  1.6614E+3    0.30381
  1.6691E+3    0.33467
  1.6692E+3    0.31615
  1.6768E+3    0.36862
  1.6769E+3    0.35011
  1.6846E+3    0.39332
  1.6846E+3    0.37789
  1.6923E+3    0.38715
  1.7001E+3    0.38098
  1.7234E+3    0.38098
  1.7311E+3     0.3779
  1.7389E+3    0.39333
  1.7466E+3    0.40568
  1.7544E+3    0.41494
  1.7699E+3     0.4026
  1.7854E+3    0.40569
  1.8009E+3    0.39644
  1.8165E+3    0.39644
  1.8165E+3    0.38718
  1.8320E+3    0.40262
  1.8397E+3    0.41188
  1.8552E+3    0.40879
  1.8553E+3    0.39645
  1.8630E+3    0.42732
  1.8707E+3    0.43966
  1.8862E+3    0.45201
  1.9017E+3    0.44584
  1.9173E+3    0.44276
  1.9250E+3    0.45202
  1.9328E+3     0.4582
  1.9405E+3    0.44585
  1.9560E+3    0.45512
  1.9716E+3    0.46438
  1.9871E+3    0.45821
  1.9871E+3    0.47056
  1.9949E+3    0.44895
  2.0104E+3     0.4613
  2.0181E+3    0.47365
  2.0181E+3      0.486
  2.0336E+3    0.49526
  2.0413E+3    0.50452
  2.0491E+3    0.51996
  2.0568E+3     0.5107
  2.0723E+3    0.51379
  2.0801E+3    0.52614
  2.0956E+3    0.52305
  2.1034E+3    0.51071
  2.1112E+3    0.49528
  2.1112E+3    0.50763
  2.1189E+3    0.51997
  2.1267E+3    0.51072
  2.1345E+3    0.49837
  2.1422E+3    0.51998
  2.1499E+3    0.52616
  2.1577E+3     0.5169
  2.1655E+3    0.51073
  2.1810E+3    0.50456
  2.2043E+3    0.50148
  2.2120E+3    0.51383
  2.2120E+3    0.52617
  2.2352E+3    0.55704
  2.2353E+3    0.53852
  2.2430E+3    0.56939
  2.2507E+3    0.57865
  2.2585E+3      0.591
  2.2662E+3    0.60335
  2.2739E+3    0.61569
  2.2817E+3    0.60026
  2.2973E+3    0.59409
  2.3128E+3    0.59718
  2.3438E+3    0.60028
  2.3593E+3    0.61572
  2.3670E+3    0.62498
  2.3748E+3    0.63732
  2.3825E+3    0.64659
  2.3980E+3    0.65585
  2.4136E+3    0.64659
  2.4213E+3    0.64042
  2.4369E+3    0.63117
  2.4446E+3    0.65895
  2.4446E+3     0.6466
  2.4523E+3    0.67747
  2.4600E+3    0.69599
  2.4601E+3    0.68673
  2.4756E+3    0.70216
  2.4833E+3    0.69291
  2.4911E+3    0.68056
  2.4989E+3    0.67131
  2.5144E+3    0.66205
  2.5299E+3     0.6744
  2.5454E+3    0.68058
  2.5532E+3    0.69293
  2.5686E+3    0.71453
  2.5687E+3    0.70219
  2.5841E+3    0.73306
  2.5842E+3    0.72071
  2.5997E+3    0.72997
  2.6152E+3    0.71763
  2.6307E+3    0.72381
  2.6462E+3    0.72999
  2.6695E+3    0.73925
  2.6773E+3    0.72691
  2.6850E+3    0.71457
  2.6928E+3    0.70222
  2.7006E+3    0.68988
  2.7084E+3    0.67753
  2.7239E+3    0.68988
  2.7394E+3    0.70532
  2.7471E+3    0.72075
  2.7549E+3     0.7331
  2.7626E+3    0.74236
  2.7704E+3    0.72076
  2.7704E+3    0.73002
  2.7782E+3     0.7115
  2.7937E+3    0.71768
  2.8092E+3    0.70843
  2.8170E+3      0.693
  2.8247E+3    0.70226
  2.8403E+3    0.70535
  2.8635E+3    0.70227
  2.8868E+3     0.6961
  2.8946E+3    0.70228
  2.9101E+3    0.69302
  2.9334E+3     0.6992
  2.9489E+3    0.70538
  2.9567E+3    0.69612
  2.9722E+3    0.68686
  2.9955E+3    0.69304
  3.0110E+3    0.70231
  3.0265E+3    0.71466
  3.0342E+3    0.73009
  3.0420E+3    0.74244
  3.0652E+3    0.74244
  3.0885E+3    0.74554
  3.0963E+3     0.7548
  3.1118E+3    0.74863
  3.1273E+3    0.73937
  3.1351E+3    0.74555
  3.1506E+3    0.75172
  3.1584E+3    0.73938
  3.1661E+3    0.73321
  3.1894E+3     0.7363
  3.1972E+3    0.74556
  3.2127E+3    0.74248
  3.2282E+3    0.73323
  3.2360E+3    0.72397
  3.2438E+3    0.71163
  3.2671E+3    0.70855
  3.2671E+3    0.69929
  3.2826E+3    0.68386
  3.2904E+3    0.69621
  3.2981E+3    0.68695
  3.3137E+3    0.68078
  3.3292E+3    0.67461
  3.3525E+3    0.66845
  3.3680E+3    0.65302
  3.3758E+3    0.66228
  3.3991E+3    0.66229
  3.4146E+3    0.65303
  3.4379E+3    0.64995
  3.4534E+3     0.6407
  3.4689E+3    0.64996
  3.4844E+3    0.64379
  3.5000E+3    0.63453
  3.5155E+3    0.63763
  3.5232E+3    0.64997
  3.5310E+3    0.63763
  3.5465E+3    0.63146
  3.5543E+3    0.61912
  3.5621E+3    0.62529
  3.5853E+3    0.63147
  3.6086E+3     0.6253
  3.6242E+3    0.61605
  3.6475E+3    0.60988
  3.6630E+3    0.61606
  3.6785E+3    0.60989
  3.6940E+3    0.61915
  3.7095E+3    0.62842
  3.7250E+3    0.63459
  3.7405E+3    0.62843
  3.7638E+3    0.62535
  3.7794E+3    0.61609
  3.8027E+3    0.60992
  3.8259E+3     0.6161
  3.8492E+3     0.6192
  3.8725E+3    0.63155
  3.8880E+3     0.6439
  3.9035E+3    0.63464
  3.9190E+3    0.62847
  3.9268E+3     0.6223
  3.9423E+3    0.63774
  3.9501E+3    0.62848
  3.9733E+3     0.6254
  3.9966E+3    0.63158
  4.0199E+3    0.63776
  4.0354E+3     0.6285
  4.0509E+3    0.63777
  4.0664E+3    0.64703
  4.0820E+3    0.64086
  4.0975E+3    0.65321
  4.1130E+3     0.6563
  4.1285E+3    0.66865
  4.1362E+3    0.66248
  4.1440E+3    0.65014
  4.1673E+3    0.64706
  4.1828E+3     0.6378
  4.1984E+3    0.63163
  4.2217E+3    0.62547
  4.2372E+3    0.61621
  4.2682E+3    0.61622
  4.2838E+3    0.61931
  4.2915E+3    0.62548
  4.3070E+3    0.61623
  4.3148E+3    0.60697
  4.3304E+3    0.59463
  4.3536E+3    0.60081
  4.3692E+3    0.59464
  4.3769E+3    0.58538
  4.4002E+3    0.57613
  4.4158E+3    0.56688
  4.4235E+3    0.57614
  4.4468E+3    0.58232
  4.4545E+3    0.57306
  4.4623E+3    0.58232
  4.4856E+3    0.58541
ENDDATA            357
ENDSUBENT          373
SUBENT        22741006   20070715   20071002   20071002       2186
BIB                  4          7
REACTION   (83-BI-209(N,INL)83-BI-209,PAR,SIG)
            Level cross section.
EN-SEC     (E-LVL,83-BI-209) Energy of excited level
ANALYSIS   .Level cross section was constructed on the base of
            measured gamma production cross sections and adopted
            level scheme of Bi-209.
STATUS     (CURVE) Fig.5(right) of main Reference. (smooth curve)
ENDBIB               7
COMMON               3          3
E-LVL      EN-ERR-DIG ERR-DIG
KEV        KEV        B
2564.16     3.0012     1.3508E-04
ENDCOMMON            3
DATA                 2        313
EN         DATA
KEV        B
  2.5834E+3  1.4873E-3
  2.5887E+3  6.6363E-3
  2.5887E+3  3.3592E-3
  2.5940E+3  8.0400E-3
  2.5941E+3  1.0381E-2
  2.6046E+3  1.2252E-2
  2.6100E+3  1.4124E-2
  2.6152E+3  1.5528E-2
  2.6258E+3  1.7399E-2
  2.6259E+3  1.9271E-2
  2.6417E+3  2.0673E-2
  2.6575E+3  2.2544E-2
  2.6576E+3  2.4885E-2
  2.6629E+3  2.7225E-2
  2.6682E+3  2.9565E-2
  2.6735E+3  3.1436E-2
  2.6841E+3  3.4244E-2
  2.6894E+3  3.6584E-2
  2.7000E+3  3.7987E-2
  2.7053E+3  3.9859E-2
  2.7105E+3  3.8454E-2
  2.7158E+3  3.7516E-2
  2.7211E+3  3.9856E-2
  2.7317E+3  4.1259E-2
  2.7317E+3  4.3132E-2
  2.7370E+3  4.5004E-2
  2.7423E+3  4.6876E-2
  2.7476E+3  4.8279E-2
  2.7529E+3  5.0151E-2
  2.7582E+3  5.2023E-2
  2.7635E+3  5.3427E-2
  2.7794E+3  5.3893E-2
  2.7846E+3  5.4828E-2
  2.7899E+3  5.2955E-2
  2.7951E+3  5.1550E-2
  2.8004E+3  5.0145E-2
  2.8110E+3  5.2484E-2
  2.8163E+3  5.4356E-2
  2.8216E+3  5.6228E-2
  2.8216E+3  5.8100E-2
  2.8216E+3  5.9973E-2
  2.8322E+3  6.1376E-2
  2.8375E+3  6.3716E-2
  2.8481E+3  6.5119E-2
  2.8534E+3  6.7459E-2
  2.8587E+3  6.9799E-2
  2.8640E+3  7.1202E-2
  2.8693E+3  7.2606E-2
  2.8746E+3  7.5414E-2
  2.8747E+3  7.7755E-2
  2.8852E+3  7.8690E-2
  2.8958E+3  7.9625E-2
  2.9011E+3  8.2901E-2
  2.9011E+3  8.1497E-2
  2.9117E+3  8.3836E-2
  2.9169E+3  8.2431E-2
  2.9327E+3  8.1492E-2
  2.9327E+3  7.9619E-2
  2.9379E+3  7.8682E-2
  2.9431E+3  7.4468E-2
  2.9432E+3  7.6809E-2
  2.9537E+3  7.7276E-2
  2.9537E+3  7.5403E-2
  2.9643E+3  7.8210E-2
  2.9643E+3  7.6338E-2
  2.9749E+3  8.1954E-2
  2.9749E+3  8.0081E-2
  2.9802E+3  8.5699E-2
  2.9802E+3  8.3826E-2
  2.9855E+3  8.6634E-2
  2.9960E+3  8.4760E-2
  3.0013E+3  8.6632E-2
  3.0014E+3  8.8504E-2
  3.0067E+3  9.2249E-2
  3.0067E+3  9.0376E-2
  3.0120E+3  9.5057E-2
  3.0173E+3  9.2247E-2
  3.0173E+3  9.3652E-2
  3.0226E+3  9.4587E-2
  3.0279E+3  9.5991E-2
  3.0331E+3  9.4118E-2
  3.0384E+3  9.2713E-2
  3.0437E+3  9.5053E-2
  3.0490E+3  9.6456E-2
  3.0543E+3  9.8796E-2
  3.0596E+3    0.10067
  3.0648E+3  9.5518E-2
  3.0648E+3  9.8795E-2
  3.0701E+3  9.6921E-2
  3.0754E+3  9.8325E-2
  3.0806E+3  9.6452E-2
  3.0859E+3  9.9728E-2
  3.1017E+3    0.10066
  3.1123E+3    0.10206
  3.1176E+3    0.10113
  3.1228E+3  9.9723E-2
  3.1281E+3    0.10113
  3.1334E+3      0.103
  3.1335E+3    0.10487
  3.1386E+3    0.10019
  3.1439E+3    0.10206
  3.1545E+3     0.1044
  3.1598E+3    0.10299
  3.1703E+3    0.10159
  3.1808E+3    0.10065
  3.1861E+3    0.10159
  3.1914E+3    0.10299
  3.1966E+3    0.10112
  3.2071E+3  9.9242E-2
  3.2124E+3  9.7369E-2
  3.2229E+3  9.4558E-2
  3.2387E+3  9.5961E-2
  3.2440E+3  9.8769E-2
  3.2546E+3    0.10017
  3.2652E+3    0.10438
  3.2652E+3    0.10204
  3.2705E+3    0.10719
  3.2811E+3    0.10906
  3.2864E+3     0.1114
  3.2970E+3    0.11047
  3.3128E+3    0.10953
  3.3286E+3    0.11093
  3.3444E+3    0.10905
  3.3602E+3    0.10999
  3.3655E+3    0.11186
  3.3708E+3    0.11326
  3.3919E+3    0.11232
  3.4077E+3    0.11279
  3.4130E+3    0.11513
  3.4236E+3      0.117
  3.4289E+3    0.11887
  3.4500E+3    0.11934
  3.4553E+3    0.12168
  3.4606E+3    0.12402
  3.4607E+3     0.1273
  3.4712E+3    0.12589
  3.4764E+3    0.12355
  3.4869E+3    0.12261
  3.4922E+3     0.1212
  3.4975E+3    0.12354
  3.5027E+3    0.12167
  3.5132E+3     0.1198
  3.5238E+3    0.11792
  3.5290E+3    0.11933
  3.5344E+3     0.1212
  3.5395E+3    0.11558
  3.5396E+3    0.11839
  3.5500E+3    0.11324
  3.5553E+3    0.11558
  3.5711E+3    0.11464
  3.5816E+3    0.11276
  3.5921E+3    0.11089
  3.6027E+3    0.10948
  3.6132E+3    0.10761
  3.6237E+3    0.10574
  3.6290E+3    0.10761
  3.6343E+3    0.10948
  3.6501E+3    0.11041
  3.6659E+3    0.10948
  3.6712E+3    0.11135
  3.6765E+3    0.11369
  3.6871E+3    0.11228
  3.6976E+3    0.11509
  3.6976E+3    0.11322
  3.6976E+3    0.11134
  3.7028E+3      0.109
  3.7081E+3    0.11134
  3.7134E+3    0.11321
  3.7187E+3    0.11462
  3.7240E+3    0.11602
  3.7398E+3    0.11555
  3.7451E+3    0.11415
  3.7556E+3    0.11602
  3.7609E+3    0.11368
  3.7661E+3    0.11133
  3.7767E+3     0.1132
  3.7873E+3    0.11508
  3.7926E+3    0.11788
  3.7978E+3    0.11648
  3.8031E+3    0.11461
  3.8083E+3     0.1118
  3.8136E+3    0.11367
  3.8189E+3    0.11507
  3.8294E+3    0.11601
  3.8452E+3     0.1146
  3.8505E+3    0.11226
  3.8558E+3     0.1146
  3.8611E+3      0.116
  3.8716E+3     0.1174
  3.8874E+3    0.11647
  3.8979E+3    0.11412
  3.9084E+3    0.11178
  3.9242E+3    0.10944
  3.9294E+3     0.1071
  3.9399E+3    0.10569
  3.9557E+3    0.10475
  3.9609E+3    0.10007
  3.9610E+3    0.10241
  3.9767E+3  9.8663E-2
  3.9925E+3  9.9597E-2
  3.9978E+3      0.101
  4.0084E+3    0.10053
  4.0136E+3  9.8657E-2
  4.0189E+3  9.7252E-2
  4.0347E+3  9.8654E-2
  4.0505E+3    0.10052
  4.0611E+3     0.1024
  4.0717E+3     0.1038
  4.0875E+3     0.1038
  4.0927E+3    0.10239
  4.1033E+3    0.10145
  4.1138E+3    0.10332
  4.1139E+3     0.1052
  4.1244E+3     0.1066
  4.1350E+3    0.10707
  4.1456E+3    0.10987
  4.1508E+3      0.108
  4.1560E+3    0.10425
  4.1561E+3    0.10566
  4.1666E+3    0.10425
  4.1718E+3    0.10191
  4.1876E+3    0.10191
  4.1928E+3    0.10004
  4.2034E+3  9.8630E-2
  4.2139E+3  9.7224E-2
  4.2191E+3  9.4882E-2
  4.2191E+3  9.3010E-2
  4.2296E+3  9.1136E-2
  4.2454E+3  9.2538E-2
  4.2612E+3  9.3004E-2
  4.2718E+3  9.1598E-2
  4.2823E+3  9.0192E-2
  4.2928E+3  8.9254E-2
  4.3034E+3  9.0657E-2
  4.3192E+3  9.2059E-2
  4.3297E+3  9.0653E-2
  4.3402E+3  8.9247E-2
  4.3455E+3  8.7374E-2
  4.3507E+3  8.5968E-2
  4.3560E+3  8.4095E-2
  4.3612E+3  8.2222E-2
  4.3770E+3  8.1751E-2
  4.3875E+3  8.0813E-2
  4.3980E+3  7.8939E-2
  4.4086E+3  7.9874E-2
  4.4192E+3  8.1745E-2
  4.4350E+3  8.2679E-2
  4.4403E+3  8.5019E-2
  4.4456E+3  8.7359E-2
  4.4509E+3  8.9699E-2
  4.4562E+3  9.1571E-2
  4.4615E+3  9.3443E-2
  4.4669E+3  9.5783E-2
  4.4722E+3  9.7187E-2
  4.4880E+3  9.7652E-2
  4.4986E+3  9.9524E-2
  4.5038E+3  9.7650E-2
  4.5196E+3  9.7648E-2
  4.5248E+3  9.5306E-2
  4.5354E+3  9.3900E-2
  4.5406E+3  9.2027E-2
  4.5458E+3  8.9685E-2
  4.5510E+3  8.7344E-2
  4.5562E+3  8.2661E-2
  4.5563E+3  8.5002E-2
  4.5615E+3  8.0788E-2
  4.5667E+3  7.9383E-2
  4.5719E+3  7.6573E-2
  4.5824E+3  7.4699E-2
  4.5929E+3  7.2357E-2
  4.6035E+3  7.1887E-2
  4.6087E+3  7.0482E-2
  4.6140E+3  6.9076E-2
  4.6193E+3  7.1885E-2
  4.6246E+3  7.4225E-2
  4.6404E+3  7.4222E-2
  4.6509E+3  7.3285E-2
  4.6615E+3  7.1879E-2
  4.6668E+3  7.4687E-2
  4.6773E+3  7.5622E-2
  4.6826E+3  7.7493E-2
  4.6879E+3  7.8897E-2
  4.6932E+3  8.0301E-2
  4.6985E+3  7.8427E-2
  4.7037E+3  7.7022E-2
  4.7143E+3  7.8425E-2
  4.7196E+3  7.9361E-2
  4.7301E+3  7.7955E-2
  4.7406E+3  7.6549E-2
  4.7511E+3  7.4675E-2
  4.7564E+3  7.3269E-2
  4.7616E+3  7.1864E-2
  4.7721E+3  6.9990E-2
  4.7774E+3  7.1862E-2
  4.7827E+3  7.3734E-2
  4.7933E+3  7.5605E-2
  4.8039E+3  7.6540E-2
  4.8092E+3  7.8411E-2
  4.8197E+3  7.7005E-2
  4.8249E+3  7.6068E-2
  4.8408E+3  7.7002E-2
  4.8619E+3  7.7467E-2
  4.8830E+3  7.7933E-2
  4.8935E+3  7.9804E-2
  4.9041E+3  7.9334E-2
  4.9146E+3  7.7928E-2
  4.9251E+3  7.5117E-2
  4.9356E+3  7.3243E-2
  4.9408E+3  7.1370E-2
  4.9566E+3  7.0431E-2
  4.9671E+3  6.9025E-2
  4.9776E+3  6.7619E-2
  4.9882E+3  6.7150E-2
ENDDATA            315
ENDSUBENT          331
SUBENT        22741007   20080119   20080402   20080318       2192
BIB                  3          3
REACTION   (83-BI-209(N,INL)83-BI-209,,SIG) Total inelastic CS
STATUS     (CURVE)   Fig.1 of reference 3 (2007NICE)
HISTORY    (20080119C)   SM
ENDBIB               3
COMMON               2          3
EN-ERR-DIG ERR-DIG
KEV        B
 9.5340     2.6760E-03
ENDCOMMON            3
DATA                 2        352
EN         DATA
KEV        B
     977.12 2.4476E-02
     977.14 6.4436E-02
     977.16    0.11439
 1.1044E+03    0.11438
 1.1807E+03    0.14435
 1.2571E+03    0.17432
 1.3334E+03    0.19929
 1.4098E+03    0.23925
 1.4861E+03    0.26922
 1.6388E+03    0.30418
 1.7152E+03    0.34914
 1.7406E+03    0.40408
 1.7916E+03    0.44903
 1.8679E+03      0.479
 1.9188E+03    0.52396
 1.9443E+03    0.56891
 1.9952E+03    0.60887
 2.0715E+03    0.64883
 2.1224E+03     0.6788
 2.1479E+03    0.71376
 2.2242E+03    0.73873
 2.2243E+03    0.77869
 2.3006E+03    0.82365
 2.4024E+03    0.84862
 2.4533E+03    0.88858
 2.5297E+03    0.91855
 2.5806E+03    0.94352
 2.6315E+03    0.98348
 2.6824E+03     1.0085
 2.7078E+03     1.0534
 2.7333E+03     1.0934
 2.7588E+03     1.1783
 2.7843E+03     1.2782
 2.7844E+03     1.3032
 2.8097E+03     1.3231
 2.8352E+03     1.3781
 2.8607E+03      1.418
 2.9116E+03      1.448
 2.9625E+03      1.478
 2.9879E+03     1.5429
 3.0389E+03     1.6228
 3.0643E+03     1.6678
 3.1152E+03     1.6428
 3.1154E+03     1.7077
 3.1407E+03     1.7477
 3.1916E+03     1.7777
 3.1918E+03     1.8026
 3.2171E+03     1.8326
 3.2425E+03     1.8826
 3.2934E+03     1.8576
 3.3189E+03     1.9225
 3.3443E+03     1.9425
 3.3698E+03     1.9675
 3.3953E+03     2.0024
 3.4462E+03     2.0324
 3.4716E+03     2.0474
 3.5225E+03     2.0824
 3.5480E+03     2.1073
 3.5989E+03     2.1323
 3.6243E+03     2.1573
 3.6752E+03     2.1373
 3.7007E+03     2.1972
 3.7262E+03     2.2372
 3.7770E+03     2.2172
 3.8025E+03     2.2921
 3.8279E+03     2.2622
 3.8534E+03     2.3671
 3.8788E+03      2.397
 3.8789E+03      2.417
 3.9044E+03      2.442
 3.9552E+03      2.447
 3.9807E+03      2.462
 4.0062E+03     2.4869
 4.0571E+03     2.5119
 4.0825E+03     2.5369
 4.1080E+03     2.5818
 4.1334E+03     2.6368
 4.1843E+03     2.5868
 4.2352E+03     2.5419
 4.2606E+03     2.5069
 4.2860E+03     2.4819
 4.3115E+03     2.5019
 4.3624E+03     2.4719
 4.3878E+03     2.4969
 4.4387E+03     2.5419
 4.4642E+03     2.5269
 4.5151E+03     2.5868
 4.5406E+03     2.6018
 4.5660E+03     2.5469
 4.5914E+03     2.5219
 4.6423E+03     2.5718
 4.6677E+03     2.5269
 4.7187E+03     2.6068
 4.7696E+03     2.5918
 4.8205E+03     2.6018
 4.8459E+03     2.5768
 4.8968E+03     2.5618
 4.9477E+03     2.5818
 4.9731E+03     2.5568
 4.9986E+03     2.5768
 5.0494E+03     2.5319
 5.1003E+03     2.5119
 5.1258E+03     2.5269
 5.1512E+03     2.4969
 5.1766E+03     2.4719
 5.2275E+03     2.4869
 5.2530E+03     2.5169
 5.2784E+03     2.4969
 5.3293E+03     2.5069
 5.3548E+03     2.4969
 5.4056E+03     2.5019
 5.4311E+03     2.5169
 5.4565E+03     2.4869
 5.5074E+03     2.4569
 5.5583E+03      2.422
 5.5837E+03      2.442
 5.6092E+03      2.402
 5.6601E+03      2.392
 5.7109E+03      2.367
 5.7618E+03      2.367
 5.8127E+03     2.3321
 5.8382E+03      2.352
 5.8890E+03     2.3421
 5.9399E+03     2.3371
 5.9908E+03      2.347
 6.0417E+03     2.3321
 6.0672E+03     2.3421
 6.1181E+03      2.352
 6.1435E+03     2.3221
 6.1944E+03     2.3271
 6.2198E+03      2.342
 6.2707E+03     2.3221
 6.2962E+03     2.3071
 6.3470E+03     2.3121
 6.3725E+03     2.2921
 6.4488E+03     2.2921
 6.4743E+03     2.3221
 6.4997E+03     2.3321
 6.5506E+03      2.342
 6.6015E+03      2.352
 6.6270E+03      2.342
 6.6524E+03     2.3271
 6.6778E+03     2.3121
 6.7033E+03     2.2871
 6.7287E+03     2.2571
 6.8050E+03     2.2521
 6.8305E+03     2.2371
 6.8559E+03     2.2571
 6.9068E+03     2.2471
 6.9577E+03     2.2721
 6.9831E+03     2.2521
 7.0340E+03     2.2621
 7.0595E+03     2.2621
 7.1104E+03     2.2821
 7.1613E+03     2.2921
 7.2122E+03     2.2821
 7.2631E+03     2.2971
 7.3140E+03     2.3071
 7.3394E+03      2.322
 7.3903E+03     2.3171
 7.4158E+03      2.337
 7.4412E+03     2.3171
 7.4666E+03      2.347
 7.5175E+03      2.362
 7.5684E+03      2.367
 7.6193E+03      2.362
 7.6702E+03      2.377
 7.6957E+03      2.362
 7.7211E+03      2.372
 7.7465E+03      2.352
 7.7974E+03      2.332
 7.8229E+03      2.317
 7.8738E+03     2.3071
 7.9246E+03     2.2971
 7.9501E+03     2.2821
 7.9755E+03     2.2621
 8.0264E+03     2.2521
 8.0518E+03     2.2371
 8.1027E+03     2.2221
 8.1282E+03     2.2022
 8.1790E+03     2.1872
 8.2045E+03     2.1722
 8.2299E+03     2.1622
 8.2554E+03     2.1422
 8.2807E+03     2.1272
 8.2808E+03     2.1122
 8.3316E+03     2.0973
 8.3317E+03     2.0823
 8.3571E+03     2.0673
 8.3826E+03     2.0523
 8.4080E+03     2.0273
 8.4334E+03     2.0123
 8.4589E+03     1.9924
 8.4843E+03     1.9674
 8.5097E+03     1.9474
 8.5352E+03     1.9274
 8.5606E+03     1.9025
 8.5860E+03     1.8775
 8.6115E+03     1.8575
 8.6369E+03     1.8325
 8.6624E+03     1.8175
 8.7132E+03     1.7826
 8.7387E+03     1.7726
 8.7640E+03     1.7576
 8.7641E+03     1.7476
 8.7895E+03     1.7176
 8.8404E+03     1.6977
 8.8659E+03     1.6727
 8.8913E+03     1.6527
 8.9167E+03     1.6377
 8.9422E+03     1.6077
 8.9676E+03     1.5878
 8.9930E+03     1.5728
 9.0439E+03     1.5578
 9.0694E+03     1.5328
 9.1202E+03     1.5178
 9.1457E+03     1.4979
 9.1711E+03     1.4779
 9.1712E+03     1.4579
 9.2220E+03     1.4379
 9.2474E+03     1.4179
 9.2729E+03      1.398
 9.3237E+03      1.373
 9.3492E+03      1.353
 9.3746E+03      1.338
 9.4001E+03      1.318
 9.4255E+03     1.2981
 9.4509E+03     1.2731
 9.4764E+03     1.2531
 9.4765E+03     1.2381
 9.5018E+03     1.2231
 9.5272E+03     1.2031
 9.5527E+03     1.1932
 9.5781E+03     1.1682
 9.6290E+03     1.1532
 9.6544E+03     1.1332
 9.6545E+03     1.1182
 9.7053E+03     1.0933
 9.7307E+03     1.0733
 9.7562E+03     1.0533
 9.7816E+03     1.0283
 9.8070E+03     1.0083
 9.8579E+03    0.97837
 9.8834E+03    0.95839
 9.9088E+03    0.93341
 9.9342E+03    0.91343
 9.9597E+03    0.88346
 9.9851E+03    0.86348
 1.0011E+04     0.8435
 1.0061E+04    0.83351
 1.0112E+04    0.82352
 1.0163E+04    0.80853
 1.0214E+04    0.79355
 1.0265E+04    0.77856
 1.0367E+04    0.76358
 1.0392E+04    0.74859
 1.0468E+04    0.72361
 1.0545E+04    0.71362
 1.0621E+04    0.69364
 1.0697E+04    0.68365
 1.0774E+04    0.66866
 1.0825E+04    0.65368
 1.0876E+04    0.63869
 1.0952E+04    0.62371
 1.1028E+04    0.60872
 1.1079E+04    0.59373
 1.1130E+04    0.58374
 1.1181E+04    0.56876
 1.1257E+04    0.55377
 1.1334E+04    0.54378
 1.1410E+04     0.5288
 1.1486E+04    0.51381
 1.1563E+04    0.49882
 1.1613E+04    0.48883
 1.1715E+04    0.47385
 1.1792E+04    0.46885
 1.1842E+04    0.45386
 1.1944E+04    0.44887
 1.2021E+04    0.43388
 1.2173E+04    0.41889
 1.2250E+04     0.4089
 1.2377E+04    0.39392
 1.2479E+04    0.38392
 1.2529E+04    0.37393
 1.2606E+04    0.36394
 1.2708E+04    0.36394
 1.2784E+04    0.35395
 1.2860E+04    0.34895
 1.2962E+04    0.34895
 1.3038E+04    0.34396
 1.3115E+04    0.33396
 1.3191E+04    0.33396
 1.3267E+04    0.32897
 1.3369E+04    0.32897
 1.3496E+04    0.32896
 1.3547E+04    0.32896
 1.3598E+04    0.32397
 1.3674E+04    0.31897
 1.3751E+04    0.31897
 1.3853E+04    0.31897
 1.3929E+04    0.31897
 1.3980E+04    0.31897
 1.4056E+04    0.31896
 1.4132E+04    0.31397
 1.4234E+04    0.31397
 1.4311E+04    0.30897
 1.4412E+04    0.30897
 1.4489E+04    0.30397
 1.4590E+04    0.30397
 1.4718E+04    0.29897
 1.4819E+04    0.29398
 1.4947E+04    0.29397
 1.5048E+04    0.29397
 1.5150E+04    0.29397
 1.5303E+04    0.29397
 1.5405E+04    0.28897
 1.5532E+04    0.28897
 1.5685E+04    0.28897
 1.5786E+04    0.28397
 1.5914E+04    0.27897
 1.6015E+04    0.27897
 1.6143E+04    0.27897
 1.6270E+04    0.27897
 1.6397E+04    0.27897
 1.6550E+04    0.27397
 1.6728E+04    0.27397
 1.6855E+04    0.26897
 1.6931E+04    0.26897
 1.7084E+04    0.26896
 1.7211E+04    0.26397
 1.7288E+04    0.26397
 1.7364E+04    0.25398
 1.7440E+04    0.25397
 1.7517E+04    0.24898
 1.7593E+04    0.24898
 1.7669E+04    0.23899
 1.7746E+04    0.23898
 1.7822E+04    0.22899
 1.7898E+04      0.224
 1.7975E+04      0.224
 1.8076E+04      0.214
 1.8178E+04    0.20901
 1.8255E+04    0.20901
 1.8331E+04    0.19902
 1.8433E+04    0.18902
 1.8534E+04    0.18902
 1.8636E+04    0.18902
 1.8738E+04    0.18902
 1.8891E+04    0.18402
 1.8992E+04    0.18402
 1.9120E+04    0.18402
 1.9196E+04    0.18402
ENDDATA            354
ENDSUBENT          366
ENDENTRY             7
