ENTRY            22912   20060226   20060525                  2176
SUBENT        22912001   20060226   20060525                  2176
BIB                 12         47
TITLE      .Complete spectroscopy of the 162-Dy nucleus
AUTHOR     (A.APRAHAMIAN,X.WU,S.R.LESHER,D.D.WARNER,W.GELLETLY,
           H.G.BORNER,F.HOYLER,K.SCHRECKENBACH,R.F.CASTEN,Z.R.SHI,
           D.KUZNEZOV,M.IBRAHIM,A.O.MACCHIAVELLI,M.A.BRINKMAN,
           J.A.BECKER)
INSTITUTE  (1USANOT) Aprahamian,Wu,Lesher
           (2UK CCH) Warner
           (2UK SUR) Gelletly
           (2FR ILL) Borner,Hoyler,Schreckenbach, and experimental
                     site
           (1USAYAL) Casten,Kuznezov,Ibrahim
           (3CPRAEP) Shi
           (1USABRK) Macchiavelli
           (1USALRL) Brinkman,Becker
REFERENCE  (J,NP/A,764,42,2006)
FACILITY   (REAC,2FR ILL) High flux reactor.
           (SPECC,2FR ILL) GAMS 1,2,3 three curved crystal
            spectrometers.
            Operate in DuMond geometry using principle of Bragg
            diffraction from 110 refraction planes in quartz
            crystals.
            Iron free, beta spectrometer BILL at 2FR ILL
SAMPLE     40 and 20 mg of Dy2-O3 oxide enriched to 90.41% in
           Dy-161 for gamma-ray measurements.
           Two targets for conversion electron spectra
           measurements:
           - 46 mg of Dy2-O3, for electron range 550keV-2MeV.
           - prepared by evaporation, thickness 160 microg/cm2,
           3x10 cm area. For electron range 30-600 keV.
           Target of 2.0 gm of enriched Dy-161 was irradiated with
           external thermal beam flux of 1.E+8 n/(cm2*s).
           10 mg/cm2 thickness, self-supporting, isotopic
           enrichment 98% in 160-Gd.
DETECTOR   (MWPC) 10 wire proportional counters to detect
            electrons.
           (GE) single Ge detector for gamma-rays.
METHOD     (GSPEC)
           (BSPEC)
           (COINC)
INC-SOURCE (REAC)
INC-SPECT  Thermal neutron of 5.5E+14 n/(cm2*s) flux for
           gamma-ray measurements.
           Thermal neutron of 3.E+14 n/(cm2*s) flux for
           conversion electron spectra measurements.
COMMENT     E-mail of corresponding author:
                  ani.aprahamian@nd.edu
HISTORY    (20060226C)  M.M. / S.M.
ENDBIB              47
COMMON               1          3
EN-DUMMY
EV
 0.0253
ENDCOMMON            3
ENDSUBENT           54
SUBENT        22912002   20060226   20060525                  2176
BIB                  5          9
REACTION   (66-DY-161(N,G)66-DY-162,,SPC,,REL/MXW)
            Gamma-transitions intensities.
            Intensity units are not presented in Reference.
FLAG       (1.) Spin of initial level is 3. or 4.
EN-SEC     (E,G) Energy of gamma transition
ERR-ANALYS (DATA-ERR)  Errors are not specified.
           (LVL-INI-ER) Error of LVL-INI energy
           (E-ERR) Error of gamma energy
STATUS      From Table 1 of Main Ref.
ENDBIB               9
NOCOMMON             0          0
DATA                 8        195
E          E-ERR      DATA       DATA-ERR   LVL-INI    LVL-INI-ER
LVL-FIN    FLAG
KEV        KEV        ARB-UNITS  ARB-UNITS  KEV        KEV
KEV        NO-DIM
  47.705      0.005      0.04     0.02      1999.085   0.006
   1951.383     1.
  80.659      0.007    170.9      8.4         80.      0.007
      0.000
  86.918      0.001      0.33     0.02      1297.001   0.001
   1210.084
  89.942      0.001      1.34     0.04      1575.608   0.002
   1485.666
  95.158      0.001      0.45     0.02      1485.666   0.002
   1390.507
  98.054      0.003      0.09     0.01      1060.986   0.001
    962.936
  98.175      0.006      0.03     0.01      1669.078   0.002
   1570.906
  98.753      0.001      1.9      0.1       1634.411   0.001
   1535.660
 114.245      0.005      4.7      0.3       1297.001   0.001
   1182.759
 117.467      0.001      0.93     0.04      1751.879   0.003
   1634.411
 120.819      0.006      0.05     0.01      1574.288   0.003
   1453.462
 121.774      0.002      0.14     0.01      1182.759   0.001
   1060.986
 149.100      0.002      3.4      0.1       1210.084   0.001
   1060.986
 150.653      0.005      0.52     0.02      1669.078   0.002
   1518.420
 154.026      0.004      0.073    0.09      1728.312   0.003
   1574.288
 160.489      0.004      0.16     0.01      1518.420   0.003
   1357.923
 161.209      0.005      0.14     0.02      1485.666   0.002
   1324.457
 168.093      0.004      0.18     0.02      1738.992   0.002
   1570.906
 172.835      0.003      0.82     0.03      1060.986   0.001
    888.158
 177.699      0.007      0.17     0.02      1453.462   0.004
   1275.767
 184.002      0.001    703.9      7.3        265.661   0.001
     80.659
 185.292      0.001     26.7      1.1       1148.226   0.001
    962.936
 188.663      0.003      0.25     0.02      1485.666   0.002
   1297.001
 192.344      0.005      0.22     0.02      1826.748   0.002
   1634.411
 211.711      0.003      0.59     0.02      1963.593   0.002
   1751.879
 212.983      0.001     12.7      0.2       1570.906   0.002
   1357.923
 216.193      0.013      0.59     0.02      1751.879   0.003
   1535.660
 216.365      0.013      0.060    0.007     1574.288   0.003
   1357.923
 219.823      0.001      2.0      0.1       1182.759   0.001
    962.936
 228.263      0.001      1.45     0.03      1862.672   0.002
   1634.411
 230.943      0.001      0.54     0.02      1766.602   0.002
   1535.660
 236.008      0.002     18.6      0.9       1297.001   0.001
   1060.986
 238.673      0.006      0.06     0.01      1535.660   0.001
   1297.001
 247.1479     0.0009    11.2      0.2       1210.084   0.001
    962.936
 251.139      0.024      0.18     0.04      1826.748   0.002
   1575.608
 251.139      0.024      0.18     0.04      1575.608   0.002
   1324.457
 260.067      0.008    129.       2.        1148.226   0.001
    888.158
 263.472      0.001      1.23     0.02      1324.457   0.002
   1060.986
 269.575      0.010      0.07     0.01      1840.480   0.003
   1570.906
 275.582      0.004      0.81     0.04      1485.666   0.002
   1210.084
 277.285      0.012      0.047    0.007     1574.288   0.003
   1297.001
 278.572      0.001      1.88     0.117     1669.078   0.002
   1390.507
 279.266      0.014      0.09     0.02      1637.190   0.002
   1357.923
 280.937      0.002      0.52     0.01      1766.602   0.002
   1485.666
 282.859      0.002    116.7      1.9        548.518   0.002
    265.661
 291.073      0.038      0.034    0.009     1826.748   0.002
   1535.660
 292.241      0.008      0.090    0.009     1745.710   0.007
   1453.462
 295.141      0.001     21.7      0.4       1570.906   0.002
   1275.767
 302.909      0.002      0.38     0.01      1485.666   0.002
   1182.759
 308.321      0.006      0.16     0.02      1826.748   0.002
   1518.420
 309.952      0.005      0.18     0.02      1634.411   0.001
   1324.457
 311.157      0.001     18.1      0.9       1669.078   0.002
   1357.923
 321.928      0.002     16.8      0.4       1210.084   0.001
    888.158
 327.012      0.001     13.9      0.2       1862.672   0.002
   1535.660
 329.184      0.001      3.1      0.2       1963.593   0.002
   1634.411
 329.524      0.002      1.43     0.03      1390.507   0.002
   1060.986
 329.987      0.015      0.40     0.03      1999.085   0.006
   1669.078     1.
 334.063      0.001     79.2      2.9       1297.001   0.001
    962.936
 337.406      0.009      0.05     0.01      1634.411   0.001
   1297.001
 341.081      0.003      0.27     0.03      1826.748   0.002
   1485.666
 348.488      0.032      0.37     0.09      1738.992   0.002
   1390.507
 352.897      0.006      0.45     0.08      1535.660   0.001
   1182.759
 360.824      0.003      0.54     0.03      1570.906   0.002
   1210.084
 361.419      0.002      0.50     0.06      1637.190   0.002
   1275.767
 364.212      0.008      0.116    0.007     1574.288   0.003
   1210.084
 370.389      0.003      0.45     0.02      1728.312   0.003
   1357.923
 372.074      0.003      0.83     0.053     1669.078   0.002
   1297.001
 377.015      0.005      0.22     0.01      1862.672   0.002
   1485.666
 381.069      0.003      0.32     0.02      1738.992   0.002
   1357.923
 387.017      0.021      0.009    0.003     1840.480   0.003
   1453.462
 387.976      0.012      0.10     0.01      1963.593   0.002
   1575.608
 391.541      0.014      0.22     0.02      1574.288   0.003
   1182.759
 392.485      0.010      0.18     0.02      1453.462   0.004
   1060.986
 392.851      0.005      0.54     0.02      1575.608   0.002
   1182.759
 394.333      0.003      0.58     0.03      1691.334   0.002
   1297.001
 408.678      0.005      0.24     0.01      1766.602   0.002
   1357.923
 415.569      0.003      2.7      0.2       1691.334   0.002
   1275.767
 422.692      0.009      0.75     0.09      1570.906   0.002
   1148.226
 424.676      0.004      0.48     0.03      1485.666   0.002
   1060.986
 427.110      0.002      1.15     0.06      1637.190   0.002
   1210.084
 427.433      0.005      0.50     0.04      1751.879   0.003
   1324.457
 427.932      0.002      1.91     0.03      1963.593   0.002
   1535.660
 436.241      0.004      0.51     0.02      1826.748   0.002
   1390.507
 441.988      0.005      0.36     0.02      1738.992   0.002
   1297.001
 451.649      0.002      2.2      0.02      1634.411   0.001
   1182.759
 452.535      0.08       0.41     0.7       1728.312   0.003
   1275.767
 457.485      0.040      0.04     0.01      1518.420   0.003
   1060.986
 458.991      0.002      1.6      0.2       1669.078   0.002
   1210.084
 463.224      0.004      0.9      0.1       1738.992   0.002
   1275.767
 469.602      0.003      1.00     0.007     1766.602   0.002
   1297.001
 474.676      0.004      4.5      0.3       1535.660   0.001
   1060.986
 486.322      0.008      0.31     0.05      1669.078   0.002
   1182.759
 488.963      0.005      1.20     0.09      1637.190   0.002
   1148.226
 490.510      0.008      0.59     0.03      1453.462   0.004
    962.936
 493.885      0.002      3.0      0.1       1851.805   0.002
   1357.923
 497.926      0.012      0.20     0.03      1951.383   0.004
   1453.462
 512.464      0.005      1.82     0.07      1060.986   0.001
    548.518
 513.314      0.008      0.51     0.03      1574.288   0.003
   1060.986
 520.890      0.018      0.11     0.02      1669.078   0.002
   1148.226
 528.901      0.005      7.2      0.2       1738.992   0.002
   1210.084
 529.749      0.004      3.24     0.09      1826.748   0.002
   1297.001
 543.107      0.003      4.8      0.2       1691.334   0.002
   1148.226
 543.477      0.004      1.38     0.08      1840.480   0.003
   1297.001
 552.486      0.021      0.089    0.013     1910.422   0.005
   1357.923
 554.802      0.003      4.7      0.3       1851.805   0.002
   1297.001
 556.519      0.002      6.3      0.4       1766.602   0.002
   1210.084
 565.316      0.012      0.37     0.06      1453.462   0.004
    888.158
 569.129      0.004      1.44     0.07      1751.879   0.003
   1182.759
 572.724      0.001     21.8      0.9       1535.660   0.001
    962.936
 573.422      0.002      8.62     0.23      1634.411   0.001
   1060.986
 590.767      0.003      3.65     0.9       1738.992   0.002
   1148.226
 597.429      0.053      0.20     0.03      1745.710   0.007
   1148.226
 611.228      0.047      0.12     0.02      1574.288   0.003
    962.936
 618.376      0.003      3.2      0.1       1766.602   0.002
   1148.226
 622.494      0.003      3.7      0.1        888.158   0.001
    265.661
 630.398      0.004      2.3      0.2       1840.480   0.003
   1210.084
 634.246      0.002     15.4      0.5       1182.759   0.001
    548.518
 639.144      0.011      0.44     0.06      1963.593   0.002
   1324.457
 641.715      0.004      2.0      0.2       1851.805   0.002
   1210.084
 643.989      0.002      4.3      0.2       1826.748   0.002
   1182.759
 647.502      0.002     50.1      0.8       1535.660   0.001
    888.158
 652.581      0.003      2.92     0.09      1862.672   0.002
   1210.084
 654.381      0.005      2.2      0.1       1951.383   0.004
   1297.001
 666.594      0.007      1.26     0.05      1963.593   0.002
   1297.001
 669.039      0.012      3.0      0.2       1851.805   0.002
   1182.759
 671.475      0.002     11.1      0.3       1634.411   0.001
    962.936
 678.009      0.003      6.0      0.2       1738.992   0.002
   1060.986
 678.519      0.028      0.55     0.05      1826.748   0.002
   1148.226
 682.770      0.081      0.13     0.06      1570.906   0.002
    888.158
 686.146      0.059      0.29     0.08      1574.288   0.003
    888.158
 697.277      0.002     59.9      2.4        962.936   0.001
    265.661
 702.109      0.109      0.16     0.04      1999.085   0.006
   1297.001     1.
 703.582      0.013      0.83     0.04      1851.805   0.002
   1148.226
 705.614      0.007      4.9      0.5       1766.602   0.002
   1060.986
 714.444      0.005      6.9      0.5       1862.672   0.002
   1148.226
 728.384      0.015      4.7      0.5       1691.334   0.002
    962.936
 741.313      0.013      1.60     0.08      1951.383   0.004
   1210.084
 753.500      0.011      1.8      0.2       1963.593   0.002
   1210.084
 765.756      0.009      2.8      0.2       1826.748   0.002
   1060.986
 775.941      0.003     11.0      0.7       1324.457   0.002
    548.518
 779.494      0.006      4.0      0.3       1840.480   0.003
   1060.986
 780.766      0.039      0.6      0.1       1963.593   0.002
   1182.759
 795.327      0.003    115.0      5.4       1060.986   0.001
    265.661
 803.677      0.008      5.1      0.2       1766.602   0.002
    962.936
 807.5010     0.002    190.8      4.8        888.158   0.001
     80.659
 840.204      0.057      0.5      0.2       1728.312   0.003
    888.158
 841.990      0.004     13.2      0.4       1390.507   0.002
    548.518
 849.435      0.007      7.1      0.2       1910.422   0.005
   1060.986
 850.870      0.030      1.0      0.1       1999.085   0.006
   1148.226     1.
 857.562      0.009      5.2      0.3       1745.710   0.007
    888.158
 863.808      0.005     10.6      0.2       1826.748   0.002
    962.936
 877.537      0.014      3.0      0.1       1840.480   0.003
    962.936
 878.444      0.006     11.2      0.3       1766.602   0.002
    888.158
 882.276      0.003    303.4     11.5        962.936   0.001
     80.659
 888.157      0.003    174.8      3.9        888.158   0.001
      0.000
 902.610      0.020      1.5      0.1       1963.593   0.002
   1060.986
 917.092      0.002     80.7      4.9       1182.759   0.001
    265.661
 937.144      0.007     12.0      0.8       1485.666   0.002
    548.518
 944.424      0.005     48.4      2.2       1210.084   0.001
    265.661
 947.484      0.008      8.9      0.3       1910.422   0.005
    962.936
 952.417      0.092      0.7      0.2       1840.480   0.003
    888.158
 969.908      0.006     10.9      0.4       1518.420   0.003
    548.518
 980.336      0.006     67.9      2.5       1060.986   0.001
     80.659
 987.150      0.217      0.5      0.2       1535.660   0.001
    548.518
 988.443      0.040      2.0      0.2       1951.383   0.004
    962.936
1022.278      0.011      8.3      0.5       1910.422   0.005
    888.158
1025.753      0.014      5.0      0.2       1574.288   0.003
    548.518
1027.149      0.070      3.5      0.6       1575.608   0.002
    548.518
1031.358      0.028      2.2      0.1       1297.001   0.001
    265.661
1058.779      0.012      6.5      0.2       1324.457   0.002
    265.661
1092.256      0.006     46.6      3.0       1357.923   0.002
    265.661
1110.839      0.169      1.3      0.2       1999.085   0.006
    888.158     1.
1124.839      0.010     34.6      0.9       1390.507   0.002
    265.661
1129.419      0.006     78.0      2.0       1210.084   0.001
     80.659
1187.777      0.012     12.7      0.3       1453.462   0.004
    256.661
1195.092      0.007     41.3      3.2       1275.767   0.002
     80.659
1219.978      0.034     26.6      0.8       1485.666   0.002
    265.661
1252.744      0.029     26.       2.        1518.420   0.003
    265.661
1275.810      0.018     30.3      0.8       1275.767   0.002
      0.000
1277.271      0.011     64.3      1.2       1357.923   0.002
     80.659
1308.627      0.015     24.       2.        1574.288   0.003
    265.661
1319.599      0.062      5.9      0.7       1400.258   0.062
     80.659
1372.790      0.021     18.1      0.8       1453.462   0.004
     80.659
1403.250      0.108      4.1      1.5       1669.078   0.002
    265.661
1415.295      0.176      2.2      0.6       1963.593   0.002
    548.518
1462.691      0.075      4.1      0.7       1728.312   0.003
    265.661
1473.261      0.053      4.5      0.5       1738.992   0.002
    265.661
1556.501      0.073      7.8      1.1       1637.190   0.002
     80.659
1574.662      0.092      4.9      0.6       1840.480   0.003
    265.661
1585.829      0.254      5.7      1.7       1851.805   0.002
    265.661
1647.617      0.067     12.7      1.1       1728.312   0.003
     80.659
1665.166      0.113      3.3      0.8       1745.710   0.007
     80.659
1685.791      0.143      5.4      1.1       1951.383   0.004
    265.661
1759.752      0.453      5.7      1.5       1840.480   0.003
     80.659
1918.600      0.199      6.7      1.2       1999.085   0.006
     80.659     1.
ENDDATA            394
ENDSUBENT          408
SUBENT        22912003   20060110   20060525                  2176
BIB                  4          9
REACTION   (66-DY-161(N,G)66-DY-162,,SPC,,REL/MXW)
            Unplaced gamma-transitions, where conversion electron
            lines were also observed from the neutron capture
            reaction.
            Intensity units are not presented in Reference.
EN-SEC     (E,G) Gamma energy
ERR-ANALYS (DATA-ERR)  Errors are not specified.
           (E-ERR) Error of gamma energy.
STATUS      From Table 2 of Main Ref.
ENDBIB               9
NOCOMMON             0          0
DATA                 4        282
E          E-ERR      DATA       DATA-ERR
KEV        KEV        ARB-UNITS  ARB-UNITS
1814.6189   0.0719     14.7832    1.2201
1786.987    0.214       6.9875    1.1141
1782.020    0.438      10.7599    4.4397
1773.721    0.193       6.9883    1.0832
1756.663    0.443       4.5522    1.2789
1504.574    0.121       2.5562    0.5701
1483.142    0.244       6.6797    1.6884
1464.4242   0.0885      3.3426    0.6876
1460.260    0.117       1.6169    0.4821
1456.554    0.384      12.1668    5.5088
1442.561    0.211       5.7304    1.2425
1438.5992   0.0986      6.4814    0.7890
1437.333    0.240       2.4681    0.6439
1428.156    0.149       2.4573    0.6638
1422.442    0.244       2.8889    0.8052
1413.323    0.254       1.4612    0.5002
1404.780    0.103       4.1529    1.0743
1394.548    0.184       2.4737    0.5422
1393.165    0.149       2.0904    0.5205
1385.144    0.178       2.9551    0.6193
1376.836    0.153       2.5288    0.9147
1375.057    0.217       1.6900    0.6994
1365.837    0.342      12.0216    3.8525
1364.054    0.150       2.7321    0.6817
1362.138    9.164       2.3452    0.5600
1355.133    0.141       3.6365    0.6747
1349.6807   0.851       4.4967    0.5137
1342.5897   0.823       5.0981    0.8253
1333.2429   0.895       3.0126    0.5369
1330.072    0.106       4.6672    0.9456
1327.093    0.169       3.1136    1.2012
1325.600    0.221       4.3022    1.7318
1317.491    0.106       4.6164    0.6174
1312.104    0.103       6.9004    0.5699
1294.780    0.126       7.4982    1.1995
1287.5667   0.0862      2.0894    0.4996
1281.6875   0.0890      2.0824    0.5862
1269.4637   0.0708      4.0572    0.5729
1267.726    0.200       1.8463    0.9212
1261.406    0.203       1.7340    0.5184
1257.997    0.244       3.0888    0.8031
1232.0750   0.0676      3.5832    0.4577
1227.9988   0.0751      2.1676    0.8346
1222.9728   0.0368      7.5349    0.5536
1217.5819   0.0463      6.3776    0.6768
1214.017    0.184       4.9827    1.6410
1209.0140   0.0652      1.9190    0.2605
1206.6389   0.0229      6.3253    0.4753
1204.1912   0.0501      2.7035    0.3042
1200.388    0.257       1.3355    0.2620
1186.684    0.130       1.2099    0.3110
1181.692    0.128       1.2988    0.2686
1178.2087   0.252       6.0777    0.4282
1177.1353   0.0967      1.3455    0.2404
1174.8005   0.0674      0.4326    0.3096
1173.1229   0.0724      0.8891    0.1058
1169.4225   0.0246      3.7972    0.4947
1167.598    0.196       0.8146    0.1634
1165.5520   0.0865      1.6559    0.1741
1161.2537   0.0943      1.3754    0.1773
1159.857    0.188       0.6325    0.1464
1156.796    0.113       2.0191    0.3506
1152.7174   0.0712      1.3254    0.3546
1150.892    0.105       1.3322    0.1481
1141.6436   0.0653      4.0078    0.6426
1141.180    0.101       1.8223    0.4846
1132.986    0.139       1.9071    0.1248
1132.986    0.139       1.9071    0.1248
1132.3738   0.0700      0.9997    0.1258
1126.1680   0.0394      5.4519    0.3345
1114.6898   0.0618      2.9819    0.1901
1113.4130   0.0471      4.5471    0.5592
1111.455    0.127       1.6695    0.4805
1108.853    0.176       2.1010    0.2569
1107.543    0.108       1.7834    0.3884
1100.5800   0.0665      1.5158    0.1795
1098.6891   0.0822      0.6227    0.2307
1096.6062   0.0495      1.8621    0.5300
1088.568    0.113       1.7173    0.2603
1082.5587   0.0505      2.4894    0.2141
1080.247    0.145       0.9775    0.1679
1079.0349   0.0608      2.0550    0.2284
1073.007    0.141       1.5307    0.1406
1066.7366   0.0218      3.7598    0.1629
1063.8542   0.0966      1.2023    0.1163
1050.2679   0.0878      0.6271    0.1040
1027.7328   0.0748      1.1242    0.1278
1020.386    0.198       0.6825    0.1810
1015.0318   0.0406      1.8067    0.2669
1012.0598   0.0596      0.6128    0.2483
1010.5464   0.0627      1.3824    0.1970
1009.0537   0.0103      8.8789    0.6047
1008.1574   0.0576      1.5090    0.2560
1007.0773   0.0766      1.7057    0.2093
 997.9590   0.0353      0.9898    0.1938
 994.5200   0.0897      2.1582    0.1816
 992.8378   0.0144      4.5424    0.1495
 977.254    0.121       0.6965    0.1469
 975.5616   0.0104     14.0989    0.8981
 973.229    0.159       0.5517    0.1270
 959.3152   0.0614      1.7036    0.1452
 957.5767   0.0615      2.6089    0.5626
 955.5305   0.0326      4.9887    0.6655
 952.9333   0.0390      1.7687    0.1507
 934.0937   0.0294      2.2295    0.0158
 933.0091   0.0494      1.4969    0.1311
 929.2979   0.0532      1.1012    0.1262
 913.186    0.119       0.3953    0.0942
 911.9468   0.0082      5.4366    0.2045
 900.7703   0.0091      4.9026    0.1487
 896.4249   0.0774      1.5633    0.2545
 894.2500   0.0103      3.8528    0.3811
 872.6531   0.0932      0.9744    0.1432
 870.8715   0.0680      1.3182    0.1639
 865.2416   0.0455      0.8727    0.1346
 854.0757   0.0463      1.2225    0.1160
 852.7610   0.0458      0.9595    0.1886
 852.3344   0.0671      0.9465    0.1300
 846.0714   0.0824      0.5740    0.1012
 844.8527   0.0638      0.4908    0.0814
 843.0609   0.0148      2.3204    0.1591
 834.3916   0.0462      1.1808    0.1099
 826.2693   0.0858      0.4400    0.0745
 820.8288   0.0581      0.5408    0.0621
 819.5469   0.0083      3.4431    0.1039
 816.1248   0.0344      0.8235    0.1995
 809.4170   0.0460      1.5184    0.2443
 801.6464   0.0794      0.5013    0.1921
 798.516    0.107       0.3694    0.0943
 790.1671   0.0088      4.4324    0.1600
 787.807    0.160       0.2551    0.1112
 782.0205   0.0122      1.6376    0.1533
 770.7834   0.0390      0.9036    0.0747
 768.7024   0.0093      3.4597    0.1666
 756.0464   0.0462      0.2933    0.0475
 750.951    0.110       0.2861    0.0429
 749.0260   0.0082      1.8584    0.0500
 747.2079   0.0066      3.8968    0.0896
 745.4669   0.0637      0.3932    0.0573
 742.7337   0.0747      0.2357    0.0472
 738.6932   0.0658      0.4326    0.0816
 737.333    0.123       0.2456    0.0590
 735.2424   0.0343      0.3707    0.1404
 733.2957   0.0203      0.7673    0.0591
 730.4047   0.0164      0.7618    0.0719
 729.3742   0.0077      1.9750    0.1587
 726.1432   0.0172      0.6678    0.0585
 721.643    0.113       0.2440    0.0711
 721.3405   0.0513      0.8738    0.1407
 718.9075   0.0657      0.1365    0.0351
 711.4260   0.0091      1.3177    0.3170
 710.6182   0.0225      0.4256    0.0450
 709.7857   0.0845      0.1026    0.0430
 708.2623   0.0756      0.2539    0.0581
 703.0405   0.0130      1.0821    0.0578
 695.3039   0.0697      0.2780    0.0826
 693.8692   0.0129      1.2183    0.0816
 690.6785   0.0289      1.4836    0.2576
 687.5416   0.0653      0.2661    0.0307
 687.2006   0.0498      0.1702    0.0336
 685.3622   0.0051      1.7496    0.0927
 684.4098   0.0122      0.6242    0.0367
 681.4709   0.0272      0.3224    0.0728
 677.7056   0.0170      1.6367    0.1387
 676.0565   0.0853      0.2742    0.0490
 669.9883   0.0880      0.1616    0.0659
 664.7567   0.0422      0.2134    0.0326
 658.5953   0.0510      0.2568    0.0617
 656.5486   0.0466      0.4408    0.0270
 649.6252   0.0141      0.7718    0.0581
 638.0090   0.0112      0.3815    0.0887
 636.8798   0.0312      0.1787    0.0269
 627.6581   0.0825      0.2646    0.0362
 627.1845   0.0210      0.3085    0.0296
 626.2280   0.0064      1.3116    0.1078
 625.5985   0.0158      0.5280    0.2114
 623.8214   0.0792      0.1015    0.0271
 621.3372   0.0225      0.4026    0.0363
 616.6802   0.0040      1.8075    0.0400
 616.1344   0.0118      0.4949    0.0313
 615.1823   0.0441      0.1614    0.0245
 613.3268   0.0126      0.5497    0.0618
 610.7694   0.0064      1.0673    0.0611
 609.4704   0.0342      0.9024    0.2179
 607.1033   0.0268      0.2515    0.0189
 599.5708   0.0208      0.1567    0.0347
 587.9210   0.0339      0.3435    0.1085
 585.6566   0.0312      0.5542    0.1916
 584.0813   0.0028     11.5794    0.1702
 566.2736   0.0337      0.4481    0.0521
 554.8017   0.0027      4.7323    0.2847
 550.9105   0.0032      2.1681    0.0896
 544.3186   0.0057      0.8726    0.0303
 528.6356   0.0256      0.7498    0.1063
 523.1743   0.0059      1.8116    0.0592
 518.3761   0.0112      0.4491    0.1102
 514.8794   0.0072      0.9004    0.0668
 513.5261   0.0111      1.5419    0.1708
 509.8764   0.0098      0.6537    0.0782
 494.5212   0.0025      1.8203    0.2972
 475.3686   0.0015      3.7588    0.6604
 471.8942   0.0389      0.1383    0.0150
 468.7947   0.0049      0.4938    0.0618
 467.2767   0.0070      5.3577    0.3915
 459.7101   0.0097      0.2195    0.0135
 442.9785   0.0041      0.5985    0.0213
 442.2203   0.0037      0.5251    0.1363
 437.4227   0.0064      0.2288    0.0356
 434.9598   0.0258      0.0809    0.0131
 433.4489   0.0034      0.5116    0.0139
 431.0198   0.0033      0.5115    0.0670
 427.6607   0.0014      4.6242    0.3470
 422.2430   0.0312      0.1459    0.0395
 411.4519   0.0319      0.1901    0.0250
 407.6027   0.0020      0.7746    0.1328
 398.9316   0.0034      1.7470    0.3511
 395.2611   0.0061      0.5121    0.0209
 393.0956   0.0045      1.4200    0.2442
 385.6353   0.0055      0.7659    0.0515
 378.1251   0.0102      0.1239    0.0178
 373.9042   0.0042      0.1931    0.0123
 372.5967   0.0026      1.6952    0.0280
 366.7883   0.0604      0.0444    0.0105
 364.5706   0.0114      0.0801    0.0063
 358.0810   0.0069      0.1049    0.0113
 349.2546   0.0097      1.7579    0.0715
 347.3750   0.0016      9.6624    0.2250
 347.1935   0.0034      1.6432    0.0821
 336.3243   0.0135      0.0808    0.0657
 333.4002   0.0010      2.0993    0.1466
 322.6878   0.0117      0.2567    0.0621
 319.6728   0.0048      0.2335    0.0148
 318.1013   0.0026      1.1749    0.4092
 315.0589   0.0038      1.4114    0.0624
 303.3484   0.0079      0.0901    0.0061
 282.8591   0.0018    116.6700    1.9186
 265.7942   0.0115      0.0807    0.0092
 263.0881   0.0084      0.4460    0.1021
 258.0162   0.0021      4.2901    0.0816
 257.1138   0.0021      0.8042    0.0200
 253.1916   0.0037      0.1443    0.0113
 249.2151   0.0007      2.3645    0.0389
 244.6132   0.0126      0.1919    0.0270
 243.9527   0.0123      0.1116    0.0436
 221.7333   0.0012      0.3109    0.0091
 221.1883   0.0046      0.0878    0.0096
 208.1237   0.0074      0.1224    0.0093
 199.1555   0.0024      0.2549    0.0118
 197.9079   0.0256      0.0405    0.0115
 196.4428   0.0111      0.1449    0.0120
 183.5148   0.0108      0.0461    0.0308
 180.4481   0.0124      0.0845    0.0136
 177.4406   0.0018      1.2211    0.1773
 174.7064   0.0066      0.1245    0.0144
 172.0738   0.0110      0.1558    0.0550
 169.1899   0.0059      0.1017    0.0161
 167.3410   0.0023      1.4377    0.2017
 164.4128   0.0055      0.0947    0.0106
 163.4593   0.0063      0.0748    0.0091
 148.2971   0.0043      0.4397    0.0243
 142.0799   0.0107      0.0454    0.0151
 139.1022   0.0017      0.8509    0.1165
 135.7158   0.0024      0.1182    0.0133
 133.6856   0.0034      0.1437    0.0174
 124.7931   0.0017      0.2391    0.0156
 122.4345   0.0109      0.0417    0.0103
 120.0628   0.0080      0.0465    0.0108
 118.2417   0.0021      0.2179    0.0636
 116.7672   0.0049      0.3865    0.0447
 115.7998   0.0102      0.0390    0.0100
 108.1621   0.0009      2.1948    0.0567
  94.6794   0.0035      0.4444    0.1540
  93.8972   0.0013      0.2263    0.0133
  92.7929   0.0062      0.0519    0.0158
  89.9420   0.0008      1.3448    0.0436
  86.9184   0.0009      0.3344    0.0174
  84.8005   0.0058      0.0623    0.0212
  80.6588   0.0007    170.9048    8.4238
  77.2879   0.0037      0.0528    0.0154
  76.8646   0.0036      0.0319    0.0115
  76.5198   0.0015      0.1348    0.0150
  41.0430   0.0043      0.0396    0.0203
ENDDATA            284
ENDSUBENT          298
ENDENTRY             3
