ENTRY            22979   20140404   20140820   20140807       2238
SUBENT        22979001   20140404   20140820   20140807       2238
BIB                 11        161
TITLE       Measurement of the neutron capture cross section of
            236U
REFERENCE  (C,2006VANCOU,,(B072),200609)  Main reference, graphs
           (J,NIM/A,531,392,2004)  Experimental details
REL-REF    (I,,D.Tronc+,J,NIM/A,228,217,1985)  Description of the
              linear accelerator facility
AUTHOR     (F.Gunsing, P.Schillebeeckx, R.Wynants, S.Andriamonje,
           E.Berthoumieux, A.Borella, W.Dridi, W.Furman,
           A.Goverdovski, C.Lampoudis, H.Alvarez, U.Abbondanno,
           G.Aerts, F.Alvarez-Velarde, J.Andrzejewski,
           P.Assimakopoulos, L.Audouin, G.Badurek, P.Baumann,
           F.Becvar, F.Calvino, D.Cano-Ott, R.Capote,
           A.Carrillo de Albornoz, P.Cennini, V.Chepel,E.Chiaveri,
           N.Colonna, G.Cortes, A.Couture, J.Cox, M.Dahlfors,
           S.David, I.Dillman, R.Dolfini, C.Domingo-Pardo,I.Duran,
           C.Eleftheriadis, M.Embid-Segura, L.Ferrant, A.Ferrari,
           R.Ferreira-Marques, H.Frais-Koelbl, K.Fujii,
           I.Goncalves, E.Gonzalez-Romero, F.Gramegna,
           E.Griesmayer, C.Guerrero, B.Haas, R.Haight, M.Heil,
           A.Herrera-Martinez, M.Igashira, S.Isaev, E.Jericha,
           F.Kaeppeler, Y.Kadi, D.Karadimos, D.Karamanis,
           M.Kerveno, V.Ketlerov, P.Koehler, V.Konovalov,
           E.Kossionides, M.Krticka, H.Leeb, A.Lindote, I.Lopes,
           M.Lozano, S.Lukic, J.Marganiec, L.Marques, S.Marrone,
           C.Massimi, P.Mastinu, A.Mengoni, P.M.Milazzo, C.Moreau,
           M.Mosconi, F.Neves, H.Oberhummer, S.O'Brien, M.Oshima,
           J.Pancin, C.Papachristodoulou, C.Papadopoulos,
           C.Paradela, N.Patronis, A.Pavlik, P.Pavlopoulos,
           L.Perrot, M.T.Pigni, R.Plag, A.Plompen, A.Plukis,
           A.Poch, C.Pretel, J.Quesada, T.Rauscher, R.Reifarth,
           M.Rosetti, C.Rubbia, G.Rudolf, P.Rullhusen, J.Salgado,
           L.Sarchiapone, I.Savvidis, C.Stephan, G.Tagliente,
           J.L.Tain, L.Tassan-Got, L.Tavora, R.Terlizzi,
           G.Vannini, P.Vaz, A.Ventura, D.Villamarin,
           M.C.Vincente, V.Vlachoudis, R.Vlastou, F.Voss,
           S.Walter, H.Wendler, M.Wiescher, K.Wisshak)
INSTITUTE  (2FR SAC)  CEA/Saclay - DSM/DAPNIA, Gif-sur-Yvette,
             France. F.Gunsing..corresponding author:
             gunsing@cea.fr; A.Borella, A.Plukis, C.Lampoudis,
             E.Berthoumieux, G.Aerts, J.Pancin, L.Perrot,
             S.Andriamonje, S.David,, W.Dridi, S.Lukic.
           (2ZZZGEL)  CEC-JRC-IRMM, Geel, Belgium. A.Plompen,
             P.Rullhusen, P.Schillebeeckx, R.Wynants.
             Experimental site.
           (2ZZZCER) CERN, Geneva, Switzerland. A.Ferrari,
             A.Herrera-Martinez, A.Mengoni, E.Chiaveri, H.Wendler,
             L.Sarchiapone, M.Dahlfors, P.Cennini, V.Ketlerov,
             V.Konovalov, V.Vlachoudis, Y.Kadi.
           (3ZZZIAE) International Atomic Energy Agency (IAEA),
             Nuclear Data Section, Vienna, Austria. A.Mengoni,
             E.Griesmayer, H.Frais-Koelbl, R.Capote.
           (4ZZZDUB)  Joint Institute for Nuclear Research, Frank
             Laboratory of Neutron Physics, Dubna, Russia.
             S.Lukic, V.Konovalov, W.Furman.
           (4RUSFEI)  Institute of Physics and Power Engineering,
             Kaluga region, Obninsk, Russia. A.Goverdovski,
             V.Ketlerov.
           (2GRCARU)   Aristotle University of Thessaloniki,
             Greece. C.Eleftheriadis, C.Lampoudis, I.Savvidis.
           (2SPNSAU) Universidade de Santiago de Compostela,
             Spain. C.Paradela, H.Alvarez, I.Duran.
           (2ITYTRI)  Istituto Nazionale di Fisica Nucleare,
             Trieste, Italy. C.Moreau, K.Fujii, P.M.Milazzo,
             U.Abbondanno.
           (3POLLOU) University of Lodz, Lodz, Poland.
             J.Andrzejewski, J.Marganiec.
           (2GRCIOA) University of Ioannina, Greece. D.Karadimos,
             C.Papachristodoulou, D.Karamanis, N.Patronis,
             P.Assimakopoulos.
           (2FR PAR) Centre National de la Recherche Scientifique/
             IN2P3 - IPN, Orsay, France. C.Stephan, L.Audouin,
             L.Ferrant, L.Tassan-Got, S.Isaev.
           (2AUSTHV) Atominstitut der Oesterreichischen Universi-
             taeten, Technische Universitaet Wien, Austria.
             E.Jericha, G.Badurek, H.Leeb, H.Oberhummer,
             M.T.Pigni.
           (2FR STR) Centre National de la Recherche Scientifique/
             IN2P3 - IReS, Strasbourg, France. G.Rudolf,M.Kerveno,
             P.Baumann.
           (3CZRCHU) Charles University, Prague, Czech Republic.
             F.Becvar, M.Krticka.
           (2SPNSPN) Universidad Politecnica de Madrid, Spain.
             F.Calvigno.
           (2SPNSEU) Universidad de Sevilla, Spain. J.Quesada,
             M.Lozano, R.Capote.
           (2PRTLIS) Instituto Tecnologico e Nuclear(ITN), Lisbon,
             Portugal. A.Carrillo de Albornoz, J.Salgado,
             L.Marques, L.Tavora, P.Vaz.
           (2PRTPRT) LIP - Coimbra & Departamento de Fisica
             da Universidade de Coimbra, Portugal. A.Lindote,
             F.Neves, I.Goncalves, I.Lopes, R.Ferreira-Marques,
             V.Chepel.
           (2ITYBAU) Istituto Nazionale di Fisica Nucleare, Bari,
             Italy. G.Tagliente, N.Colonna, R.Terlizzi, S.Marrone.
           (2SPNPCM)  Centro de Investigaciones Energeticas
             Medioambientales y Technologicas, Madrid, Spain.
             C.Guerrero, D.Cano-Ott, D.Villamarin,
             E.Gonzalez-Romero, F.Alvarez-Velarde, M.C.Vincente,
             M.Embid-Segura.
           (2SPNUPC) Universitat Politecnica de Catalunya,
             Barcelona, Spain. A.Poch, C.Pretel, G.Cortes.
           (1USANOT) University of Notre Dame, Notre Dame, USA.
             A.Couture, J.Cox, M.Wiescher, S.O'Brien.
           (2GERKFK) Forschungszentrum Karlsruhe GmbH (FZK),
             Institut fuer Kernphysik, Germany. F.Kaeppeler,
             F.Voss, I.Dillman, K.Wisshak, M.Heil, M.Mosconi,
             R.Plag, S.Walter.
           (2ITYPAV) Universita degli Studi Pavia, Pavia, Italy.
             C.Rubbia, R.Dolfini.
           (2SPNVAL) Instituto de Fisica Corpuscular, CSIC-
             Universidad de Valencia, Spain. C.Domingo-Pardo,
             J.L.Tain.
           (2ITYPAD) Istituto Nazionale di Fisica Nucleare(INFN),
             Laboratori Nazionali di Legnaro, Italy. F.Gramegna,
             P.Mastinu.
           (2FR BOR) Centre National de la Recherche Scientifique/
             IN2P3 - CENBG, Bordeaux, France. B.Haas.
           (1USALAN) Los Alamos National Laboratory, New Mexico,
             USA. R.Haight, R.Reifarth.
           (2JPNTIT) Tokyo Institute of Technology, Tokyo, Japan.
             M.Igashira.
           (1USAORL) Oak Ridge National Laboratory, Physics
             Division, Oak Ridge, USA. P.Koehler.
           (2GRCATH) NCSR, Athens, Greece. E.Kossionides.
           (2ITYUBO) Dipartimento di Fisica, Universita di
             Bologna, and Sezione INFN di Bologna, Italy.
             C.Massimi, G.Vannini.
           (2JPNJAE) Japan Atomic Energy Research Institute,
             Tokai-mura, Japan. M.Oshima.
           (2GRCTUA) National Technical University of Athens,
             Greece. C.Papadopoulos, R.Vlastou.
           (2AUSIRK) Institut fur Isotopenforschung und
             Kernphysik, Universitaet Wien, Austria. A.Pavlik.
           (2FR FR ) Pole Universitaire Leonard de Vinci, Paris
             La Defense, France. P.Pavlopoulos.
           (2SWTBAS) Department of Physics and Astronomy -
             University of Basel, Basel, Switzerland. T.Rauscher.
           (2ITYBOL) ENEA, Bologna, Italy. A.Ventura, M.Rosetti.
FACILITY   (LINAC,2ZZZGEL) Pulsed GEEL linear electron
              accelerator GELINA, beam energy is 100 MeV, averaged
              electron current 70 microAmp. compressed 1 ns width
              electron bursts, repetition rate 800 Hz
INC-SOURCE (PHOTO)  Gamma-n and Gamma-fission reactions induced
                    by Bremsstrahlung from electron beam hitting
              a rotating, mercury cooled uranium target.
           (THCOL)  Water moderated fast neutron beam
METHOD     (TOF)  Time-of-Flight, flight base is 28.6 m
           (PHD)  Pulse-height distribution
DETECTOR   (SCIN)  Two C6-D6 hidrogen-free liquid scintillator
             gamma ray detector NE230 each coupled with a boron-
             free quartz window to a EMEMI9823 KQB phomultiplier
           (BF3)  Boron ionization chamber with 40 microgram/cm2
             deposit of B-10. For neutron flux monitoring.
SAMPLE     .Enriched uranium oxide U3-O8 pressed into pellet
            10 mm diameter placed inside 0.25 mm thick high
            purity aluminium 10 mm inner, 15 mm outer diameter.
            Weight 338 milligram, isotopic composition -
            U-235 0.05%, U-236 99.85%, U-238 0.10%.
HISTORY    (20070917C)  SM
           (20140404U) SD: INSTITUTE=2AUSPVI -> 2AUSIRK according
            to MEMO CP-D/771.
ENDBIB             161
NOCOMMON             0          0
ENDSUBENT          164
SUBENT        22979002   20070803   20071206   20071125       2187
BIB                  3          4
REACTION   (92-U-236(N,G)92-U-237,,SIG,,REL)  Capture yield
ERR-ANALYS (EN-ERR-DIG) Energy digitizing error
           (ERR-DIG)    Data digitizing error
STATUS     (CURVE)    Fig.3 of main reference
ENDBIB               4
COMMON               2          3
EN-ERR-DIG ERR-DIG
EV         ARB-UNITS
 0.65898    9.9454E-04
ENDCOMMON            3
DATA                 2       5336
EN         DATA
EV         ARB-UNITS
     11.865     3.9795
     11.869     4.1227
     11.872     4.2421
     12.589     3.5737
     12.592     3.6931
     12.595     3.7885
     12.597      3.884
     13.314     3.2395
     13.318     3.3589
     13.321     3.4782
     14.047      3.144
     14.771     2.7621
     14.773     2.8575
     14.776      2.953
     14.779     3.0485
     16.239     2.7143
     16.242     2.8336
     16.244     2.9052
     16.247     3.0007
     16.967     2.4756
     16.969     2.5472
     16.971     2.6188
     16.973     2.6904
     16.976     2.7859
     16.978     2.8813
      17.71      2.762
     18.433     2.3562
     18.436     2.4516
     18.438     2.5232
      18.44     2.5949
     18.442     2.6903
     19.167     2.3323
     19.169     2.4039
     19.171     2.4755
     19.174      2.571
     20.632     2.1651
     20.635     2.2606
     20.637     2.3322
     20.639     2.4277
     20.642     2.5232
     21.365     2.0935
     21.368     2.2129
      21.37     2.2845
     21.372     2.3561
     21.375     2.4516
      22.83     1.9502
     22.832      1.998
     22.834     2.0935
     22.837     2.1889
      22.84     2.2844
     23.565     1.9263
     23.568     2.0457
     23.571      2.165
     23.574     2.2605
     25.033     1.9024
     25.035      1.974
     25.037     2.0457
      25.04     2.1411
       26.5     1.8069
     26.503     1.9024
     26.505     1.9979
     27.968     1.7353
     27.971     1.8546
     27.973     1.9501
     28.704     1.8068
     29.436     1.7113
      29.44     1.8307
     29.441     1.9023
      30.17     1.6875
     30.173     1.7829
     30.175     1.8545
     30.177       1.95
      30.18     2.0455
     30.183     2.1649
     30.187     2.2842
     30.189     2.3797
     30.192      2.499
     31.638     1.6158
      31.64     1.7113
     31.643     1.8068
      32.37     1.5203
     33.108     1.6396
      33.11     1.7351
     33.841     1.5919
     33.844     1.7112
     33.848     1.8544
     33.852     1.9738
     33.855     2.0931
     33.858     2.2125
     33.861      2.308
     33.864     2.4273
     33.867     2.5228
      33.87     2.6422
     33.873     2.7615
     33.876      2.857
     34.578     1.6635
     34.581     1.7828
     34.584     1.9022
     34.588     2.0454
     34.592     2.1647
     34.595     2.2841
     34.598     2.4034
     34.603     2.5705
     34.606     2.6899
     34.609     2.8092
     34.612     2.9286
     34.615     3.0241
     34.618     3.1434
     35.307     1.4725
     35.309     1.5441
     35.312     1.6396
     36.775     1.4008
     36.779      1.544
     36.781     1.6157
     38.244     1.3769
     38.246     1.4485
     38.247     1.5201
     39.713     1.3769
     39.715     1.4485
     39.717     1.5201
     41.182      1.353
     41.184     1.4246
     41.186     1.4962
     42.651     1.3529
     42.654     1.4484
     42.656       1.52
     43.392     1.5916
     43.395     1.6871
     44.121     1.3767
     44.123     1.4484
     44.125       1.52
     44.128     1.6393
      44.13     1.7109
     44.132     1.7825
     44.135      1.878
     44.137     1.9735
      44.14      2.069
     44.143     2.1645
     44.145     2.2599
     44.148     2.3554
      44.15     2.4509
     44.153     2.5464
     44.156     2.6419
     44.158     2.7373
     44.161     2.8328
     44.164     2.9522
     44.167     3.0477
     44.169     3.1431
     44.173     3.2625
     44.175      3.358
     44.178     3.4773
     44.857     1.4245
     44.859     1.4961
     44.862     1.5916
     44.864      1.687
     44.868     1.8303
     44.871     1.9257
     44.874     2.0451
     44.877     2.1406
     44.881     2.3077
     44.885      2.427
     44.888     2.5702
     45.588     1.2812
     45.591     1.3767
     45.593     1.4722
     47.057     1.2573
     47.059     1.3289
     47.061     1.4244
     47.795     1.3766
     49.258     1.1618
     49.261     1.2572
     49.263     1.3527
     50.728     1.1856
      50.73     1.2572
     50.732     1.3288
     52.198     1.1855
       52.2     1.2572
     52.202     1.3288
     53.667     1.1855
      53.67      1.281
     54.403     1.2332
     55.871     1.1616
     55.873     1.2571
     55.875     1.3287
     57.339     1.1138
      57.34     1.1615
     57.342     1.2331
     58.807     1.0899
      58.81     1.1854
     58.812      1.257
     60.277     1.1137
      60.28     1.2092
     61.747     1.1375
     61.749     1.2091
      62.48     1.0659
     63.218     1.1614
      63.95     1.0897
     64.688     1.1852
     65.419     1.0658
     65.421     1.1374
     65.423      1.209
     66.889     1.0896
     66.892     1.1851
     68.357     1.0419
     68.358     1.0896
      68.36     1.1612
     69.827     1.0418
     69.829     1.1134
     70.565     1.1611
      70.62      3.214
     71.301     1.2089
     71.303     1.3043
     71.306     1.3998
     71.308     1.4953
     71.311     1.5908
     71.314     1.6863
     71.316     1.7818
     71.319     1.8772
     71.321     1.9727
     71.324     2.0682
     71.327     2.1637
     71.329     2.2592
     71.332     2.3546
     71.334     2.4501
     71.337     2.5456
      71.34     2.6411
     71.342     2.7366
     71.344     2.8082
     71.347     2.9037
     71.349     2.9991
     71.351     3.0707
     71.354     3.1662
     72.033     1.1134
     72.037     1.2566
      72.04     1.3759
     72.044     1.5192
     72.046     1.6146
      72.05      1.734
     72.054     1.9011
     72.058     2.0443
     72.063     2.2114
     72.067     2.3785
     72.076     2.7127
     72.081     2.8798
     72.766     1.0656
     72.769      1.185
     73.499    0.99397
     74.235     1.0656
     74.237     1.1372
     74.968    0.97006
     75.702    0.94617
     75.704     1.0178
     75.706     1.0894
     77.172    0.99387
     77.174     1.0655
     77.908     1.0177
     78.644     1.0893
      80.11    0.94604
     80.113     1.0654
     80.115      1.137
     80.846     1.0176
     81.579    0.92213
     81.583     1.0892
     82.315    0.99372
     83.048    0.92209
     83.053     1.0892
     83.785     1.0175
     84.518    0.94592
     85.251    0.89815
     85.254    0.99364
     85.256     1.0652
     85.992      1.113
     85.995     1.2084
     85.997     1.3039
        86.     1.3994
     86.002     1.4949
     86.005     1.5904
     86.008     1.6858
      86.01     1.7813
     86.013     1.8768
     86.015     1.9723
     86.018     2.0678
     86.021     2.1633
     86.023     2.2587
     86.026     2.3542
     86.028     2.4497
     86.032      2.569
     86.035     2.6884
     86.037     2.7839
      86.04     2.8794
     86.043     2.9748
     86.727     1.1368
     86.731     1.2562
     86.734     1.3755
     86.736      1.471
      86.74     1.6142
     86.743     1.7097
     86.746     1.8052
     86.748     1.9007
     86.751       2.02
     86.753     2.0916
     86.757      2.211
      86.76     2.3303
     86.764     2.4735
     86.767     2.5929
      86.77     2.7122
     86.774     2.8555
     86.777     2.9509
     87.458    0.99357
     87.461     1.1129
     87.467     1.3278
      87.48     1.7813
     88.191    0.92194
     88.195     1.0652
     88.928    0.99353
     90.396    0.94575
     90.398     1.0174
     91.864    0.92183
     91.867     1.0173
     93.332    0.87405
     93.336     0.9934
     94.069    0.94564
     94.802    0.87401
     95.537    0.89786
      95.54    0.99334
     97.007    0.89782
      97.01     1.0172
     97.743    0.96941
     98.477    0.92164
      99.21    0.87388
     99.944    0.84999
     99.947    0.94547
     100.68    0.92158
     101.41    0.87382
     102.15    0.94541
     102.15      1.017
     102.16      1.208
     102.16     1.1125
     102.88    0.87378
     102.89    0.99313
     102.89     1.0647
     103.62    0.94537
     104.35    0.84986
     105.09    0.94532
     105.09    0.82597
     105.82    0.89756
     106.56    0.96915
     107.29    0.87365
     108.03    0.96911
     108.76    0.92135
     109.49    0.82585
     110.23    0.92131
     110.23     0.8497
      111.7    0.84965
     112.44    0.92124
     113.17    0.84961
     114.64    0.92118
     115.37    0.82568
     116.11    0.89727
     116.84    0.92112
     116.84    0.80177
     116.85     1.0166
     117.58    0.84948
     119.05    0.92105
     119.05     1.0165
     119.05    0.82557
     120.52     1.0404
     120.52      1.112
     120.53     1.2075
     120.53     1.3029
     120.53     1.4939
     120.53     1.3984
     120.54     1.5894
     120.54     1.6849
     120.54     1.8758
     120.54     1.7803
     120.55     2.0668
     120.55     2.1623
     120.55     1.9713
     120.55     2.2577
     120.56     2.3532
     120.56     2.4487
     120.56     2.5442
     121.26     1.2313
     121.26     1.3507
     121.26     1.1358
     121.27       1.47
     121.27     1.6371
     121.28     1.9235
     121.28     2.1145
     121.28     1.8281
     121.29     2.3055
     121.29       2.21
     121.99     1.0642
     121.99    0.96871
     121.99    0.87323
     122.72    0.89708
     123.45    0.82545
     124.19    0.96864
     124.19     0.9209
      124.2     1.1596
      124.2     1.2551
      124.2     1.3506
      124.2     1.0641
     124.21      1.446
     124.21     1.5415
     124.21      1.637
     124.21     1.7325
     124.22     1.9235
     124.22      1.828
     124.22     2.1144
     124.22     2.0189
     124.23     2.2099
     124.23     2.3054
     124.23     2.4009
     124.24     2.6396
     124.24      2.735
     124.93     1.1118
     124.93    0.99249
     124.93    0.94475
     124.94     1.4222
     124.94     1.5654
     124.94     1.3028
     124.95     1.8041
     124.95     1.6609
     124.95     1.9712
     124.96     2.2576
     124.96     2.0905
     124.97     2.4247
     124.97     2.7111
     124.97     2.5918
     124.97     2.5202
     125.66    0.84925
      126.4    0.94471
     127.13    0.87308
     127.86    0.80145
     129.33    0.82528
     130.07    0.92074
      130.8    0.82523
     132.27    0.87293
       133.    0.77743
     133.74     0.9445
     133.74    0.84902
     133.75       1.04
     134.48    0.99222
     134.48     1.1116
     135.21    0.89672
     135.21    0.80124
     135.21     1.0161
     136.68    0.84893
     137.41    0.80117
     137.42    0.99213
     137.42    0.89665
     138.88    0.87274
     139.62    0.80111
     141.09     0.7772
     141.09    0.87268
     142.55    0.75329
     143.29      0.801
     144.76    0.75322
     144.76     0.8487
     146.23    0.77705
     146.97    0.89638
      147.7    0.82475
     148.43    0.72925
     149.17    0.70535
      149.9    0.80081
     151.37    0.84851
      152.1    0.72914
     152.11    0.87236
     152.84    0.77686
     154.31    0.75295
     154.31    0.82456
     155.78    0.80065
     157.25    0.72899
     158.72    0.80056
     159.45    0.72893
     159.46    0.87215
     160.92    0.75276
     160.92    0.82437
     162.39    0.72884
     163.13     0.8243
     163.86    0.70493
      164.6     1.0868
      164.6     1.0152
      164.6    0.91974
      164.6    0.82426
     164.61     1.1823
     165.33    0.75263
     165.33    0.89585
     165.34     1.1107
     165.34    0.99133
      166.8    0.70485
     167.53    0.77644
     168.27    0.82416
       169.    0.72865
     169.74    0.80024
     170.47    0.70474
     171.94    0.77631
     172.67    0.68081
     173.41    0.72853
     174.14    0.68077
     174.88    0.77623
     175.61    0.70459
     176.35    0.82392
     177.09    0.75229
     178.55    0.70451
     178.56    0.82386
     180.02    0.77608
     180.76    0.70445
     181.49    0.65668
     182.23    0.79988
     182.96    0.82373
     182.96    0.70438
     184.43    0.72821
     184.43    0.79982
      185.9    0.68043
      185.9    0.77591
     187.37    0.70426
     187.37    0.79974
      188.1    0.68036
     188.84    0.75195
     190.31    0.70417
     191.04    0.77576
     191.78    0.84735
     191.78     0.9667
     191.79     1.1577
     191.79     1.0622
     192.53     1.3009
     192.53     1.3963
     192.53     1.2054
     192.53     1.4918
     192.54     1.7783
     192.54     1.5873
     192.54     1.6828
     193.26     1.0383
     193.99     1.1099
       194.     1.3963
       194.     1.2053
       194.     1.4918
       194.     1.3008
     194.01     1.5873
     194.01     1.8498
     194.01     1.7782
     194.01     1.6827
     194.02     2.0647
     194.02     2.2556
     194.02     1.9453
     194.02     2.1601
     194.03     2.3511
     194.03     2.4466
     194.03     2.5421
     194.72    0.94275
     194.73     1.3247
     194.73     1.2292
     194.73     1.1337
     194.73     1.0382
     194.74     1.4679
     194.74      1.635
     195.45    0.75176
     195.46    0.87111
     196.19    0.82335
     197.66    0.77557
     197.66    0.70396
     197.66    0.84718
     199.12    0.68005
     199.86    0.75164
     200.59    0.70388
     202.06    0.67996
     203.53    0.65605
     203.54     0.7754
     204.27     0.6799
     205.74    0.77534
     205.74    0.67986
     207.21    0.67981
     208.68    0.72751
     208.68    0.79912
     209.41    0.67975
     210.15    0.82295
     210.88    0.70358
     211.62    0.89452
     211.62    0.77517
     211.65     1.9687
     211.65     1.8732
     212.36     1.0138
     212.36     1.1093
     212.36     1.2048
     212.36    0.91837
     212.37     1.5867
     212.37     1.4913
     212.37     1.3958
     212.37     1.3003
     212.38     1.7538
     212.38     1.8493
     212.38     1.9448
     212.38     1.6822
     213.09    0.77513
     213.09    0.87061
     213.09    0.96609
     213.09     1.0854
      213.1     1.2525
      213.1     1.3241
      213.1     1.4196
     213.11     1.6106
     213.11     1.7299
     213.11     1.5151
     213.82    0.72737
     215.29    0.75119
     216.02    0.70343
     217.49    0.79887
     218.23    0.70337
      219.7    0.75107
     220.43     0.7033
     221.17    0.67941
      221.9      0.751
     223.37    0.77483
      224.1    0.67933
     226.31    0.67927
     227.04    0.65537
     227.78    0.72696
     229.25    0.70305
     229.25    0.77466
     229.25    0.94175
     229.25    0.87014
     229.26     1.0372
     229.98    0.75077
     229.99    0.84625
     229.99     0.9656
     229.99     1.0611
     230.72    0.67914
     232.19    0.72684
     232.92    0.67908
     233.66    0.75066
     234.39    0.63129
     235.13    0.72675
     235.86    0.65512
      236.6    0.72671
     237.33    0.63121
      238.8    0.70278
     239.53    0.63114
     240.27    0.70273
     241.74    0.65495
     241.74    0.75043
     243.21    0.65491
     243.21    0.72652
     244.68    0.70261
     246.14    0.63095
     246.15    0.72644
     246.88    0.75028
     247.61    0.67865
     248.35    0.58315
     249.08    0.67861
     249.82    0.63085
     250.55    0.60696
     251.28     0.5592
     252.02     0.7024
     252.02    0.60692
     252.76    0.72624
     254.23    0.67846
      255.7    0.65455
     256.43    0.72614
     257.16    0.65451
     258.63    0.60672
     259.37    0.70218
      260.1    0.65442
     261.57    0.63051
     262.31     0.7021
     263.04    0.63047
     264.51    0.70204
     265.98    0.67812
     266.72    0.74971
     267.45    0.60647
     267.45    0.70195
     268.92    0.65417
     268.92    0.74965
     270.39    0.63026
     270.39    0.72574
     271.86    0.86892
     271.86    0.74957
     271.87     1.2031
     271.87     0.9644
     271.88     1.2986
     271.88     1.4418
     271.88     1.5373
     271.89     1.7282
     271.89     1.6328
      272.6    0.94051
      272.6      1.036
      272.6    0.82115
     272.61     1.2269
     272.61     1.4179
     272.61     1.1315
     272.61     1.3224
     272.62     1.5611
     272.62     1.6566
     272.62     1.7521
     272.63     2.0147
     272.63     2.1101
     272.63     1.8237
     272.63     1.9192
     273.33    0.72565
     273.33    0.79726
     273.34     1.0837
     273.34    0.91661
     273.34     1.2031
     273.35     1.4656
     273.35     1.6327
     273.35     1.2985
     273.36     1.7282
     273.36     1.8476
     273.36     1.9669
     273.37     2.0863
      274.8    0.63013
      274.8    0.72561
     276.27    0.58235
     276.27    0.65396
     277.74    0.60618
     277.74    0.65392
     279.21    0.65387
     279.21    0.72548
     280.68    0.65383
     280.68    0.72544
     282.15    0.74927
     282.15    0.67766
     284.35     0.6776
     285.82    0.62981
     285.82    0.72529
     287.29    0.70138
     288.03    0.77297
     288.03    0.96393
     288.03    0.86845
     288.03     1.0594
     288.04     1.2504
     288.04     1.4413
     288.04     1.3459
     288.04     1.1549
     288.05     1.5368
     288.77     1.1787
     288.77     1.2742
     288.78     1.4652
     288.78     1.5607
     288.78     1.3697
     289.49    0.70132
      289.5    0.89228
      289.5     0.7968
      289.5    0.98776
      289.5     1.0832
     290.96    0.65354
     290.96    0.72515
     292.43    0.70123
     293.17    0.74895
     293.17    0.65347
     294.63    0.60569
     294.64     0.6773
     294.64    0.77278
      296.1    0.65339
     296.84    0.72498
     297.57    0.65335
     299.04    0.62943
     299.04    0.70104
     300.51    0.65326
     301.25    0.72485
     301.99    0.89192
     301.99     0.9874
     301.99     1.0829
     301.99    0.79644
       302.     1.1784
       302.     1.2738
       302.     1.3693
       302.     1.4409
     302.01     1.5125
     302.74      1.608
     302.74     1.7035
     302.75     1.8944
     302.75     1.9899
     302.75      1.799
     303.46      1.059
     303.46     1.1306
     303.46    0.98736
     303.47     1.2261
     303.47     1.4886
     303.47      1.417
     303.47     1.3215
     303.48     1.7512
     303.48     1.8706
     303.48     1.5841
     303.49      1.966
     304.19    0.96347
     304.19    0.89186
     304.19    0.82025
     304.19    0.72477
      304.2     1.0828
     305.65    0.62924
     305.66    0.74859
     306.39     0.7247
     307.13    0.70081
     307.86    0.60531
     309.33    0.65301
     310.06    0.60525
     311.53    0.58133
     312.26    0.53357
     312.27    0.65292
     313.73     0.5574
     313.74    0.65288
      315.2    0.55736
     315.94    0.60508
     317.41    0.60503
     318.15    0.70049
     318.88    0.62886
     319.62    0.67658
     319.62    0.77206
     319.62    0.84367
     320.35    0.81978
     320.35     0.7243
     320.36    0.91526
     320.36     1.0107
     320.36     1.0824
     321.82    0.67652
     321.82    0.74813
     323.29    0.72422
     324.02    0.65258
     324.76     0.7003
     325.49    0.72415
     326.23    0.62865
     326.96    0.70024
     328.43    0.72407
     329.17    0.67631
     330.64      0.724
     331.37    0.65237
      332.1    0.62848
     332.11    0.72396
     333.57    0.65231
     333.58    0.74779
     334.31    0.84325
     334.32    0.93873
     334.32     1.0342
     334.32     1.1058
     334.32     1.2013
     335.05     1.0819
     335.05    0.98645
     335.05    0.89097
     335.05    0.72388
     335.06     1.1774
     335.78    0.86708
     335.78    0.79547
     335.78    0.67612
     336.51    0.72384
     337.25    0.62833
     338.71    0.58055
     338.72    0.67603
     340.18    0.60438
     340.92    0.72371
     341.65    0.60434
     341.66    0.69982
     343.12    0.62816
     344.59    0.60425
      344.6    0.69973
      346.8    0.65193
     347.53     0.5803
     348.27    0.67576
       349.      0.628
     350.47    0.67569
     351.94    0.62791
     353.41    0.67561
     353.41      0.604
     354.88    0.67557
     354.88    0.58009
     355.62    0.69942
     356.35    0.60391
     357.08     0.6755
     358.55    0.60385
     359.29    0.67544
     360.02    0.69929
     360.76    0.62766
     362.23    0.60374
      363.7    0.62757
     364.43    0.57981
      365.9    0.67525
     366.63    0.62749
      368.1    0.60358
     368.11    0.67519
     369.57     0.6274
     370.31    0.62738
     370.31    0.72286
     370.31    0.81834
     370.32     1.0093
     370.32     1.1048
     370.32     1.2003
     370.32    0.91382
     371.05      1.057
     371.06     1.3196
     371.06     1.2241
     371.06     1.1286
     371.06     1.4151
     371.07     1.5106
     371.78     0.8183
     371.78    0.88991
     371.78    0.74669
     371.79    0.96152
     371.79     1.0331
     372.51    0.67506
     373.25    0.57956
     373.25    0.65117
     374.71    0.53178
     374.72    0.65113
     376.18     0.5556
     376.92    0.67493
     376.92    0.60332
     377.66    0.74652
     379.13    0.72261
     379.13    0.81809
     379.13    0.91357
     379.13     1.0091
     379.14        1.2
     379.14     1.2955
     379.14     1.1045
     379.15     1.4865
     379.15     1.5819
     379.15     1.6774
     379.15      1.391
     379.87     1.1523
     379.88     1.5342
     379.88     1.4148
     379.88     1.3193
     379.88     1.2239
     379.89     1.6774
     379.89     1.6058
     380.59    0.60322
      380.6    0.67483
      380.6    0.96127
      380.6    0.86579
      380.6    0.77031
     380.61     1.1284
     380.61     1.0568
     382.06     0.5793
      382.8    0.62702
     384.27    0.65085
       385.    0.57922
     386.47    0.57918
     387.21    0.60303
     388.67    0.57911
     388.68    0.65072
     390.88    0.60292
     392.35    0.57901
     393.82    0.65058
     393.82    0.50736
     394.55    0.67443
     394.55    0.57894
     396.02    0.60277
     397.49    0.57886
     398.23    0.62658
     398.96    0.53108
     398.96    0.72204
     399.69     0.5788
      399.7    0.65041
      399.7    0.72202
     401.16    0.60262
     402.64    0.65032
     404.11    0.67415
     405.57    0.62637
     406.31    0.57861
     407.04    0.55472
     407.78     0.6263
     408.51    0.65015
     409.25    0.57852
     409.98    0.55463
     410.72    0.65009
     411.45    0.60233
     412.92    0.69777
     412.92    0.62616
     414.39     0.7216
      414.4    0.81708
      414.4    0.91256
      414.4      1.008
      414.4     1.1035
     414.41     1.2945
     414.41      1.199
     415.13    0.64996
     415.13    0.74544
     415.13    0.84092
     415.13    0.93641
     415.14     1.1274
     415.14     1.2228
     415.14     1.2945
     415.14     1.0319
     415.86     0.6022
     416.59    0.53057
     417.33    0.60216
      418.8    0.57825
     419.53    0.64984
     420.27    0.57821
       421.    0.67366
       421.    0.53044
     422.47    0.62588
      423.2    0.53038
     423.94    0.60197
     424.67    0.55421
     425.41     0.6258
     426.14     0.5303
     427.61    0.60186
     428.35    0.67345
     429.82    0.76889
     429.82    0.67341
     429.83    0.86437
     429.83    0.95985
     429.83     1.0553
     429.83     1.1508
     429.84     1.3418
     429.84     1.4373
     429.84     1.5327
     429.84     1.2463
     430.56     0.9837
     430.56    0.88822
     430.57     1.3656
     430.57     1.2701
     430.57     1.1747
     430.57     1.0792
     430.58     1.5327
     430.58     1.4611
     431.29    0.79272
     431.29    0.69724
     431.29    0.86433
     432.02    0.60174
     432.03    0.72109
     433.49    0.64944
     433.49    0.57782
     434.96    0.53004
     434.96    0.60165
     436.43       0.53
     437.17    0.62546
     438.64    0.67316
     438.64    0.62542
     439.37    0.74475
     439.38    0.84023
     439.38    0.93571
     439.38     1.0312
     439.38     1.1267
     439.39     1.2938
     439.39     1.3892
     439.39     1.5086
     439.39     1.1983
      439.4     1.6518
      439.4     1.5802
     440.12     1.1028
     440.12     1.2221
     440.12     1.3176
     440.13     1.5563
     440.13     1.6518
     440.13      1.437
     440.84     0.7447
     440.84    0.64922
     440.85    0.84019
     440.85    0.93567
     440.85     1.0073
     441.57    0.60146
     443.04    0.62529
     443.78    0.57753
     445.25    0.57749
     445.25    0.67297
     446.72    0.64905
     447.45    0.57742
     448.18    0.55353
     448.19    0.64901
     449.66     0.6251
     450.39    0.57734
     451.86    0.60117
     451.86    0.52956
     453.33    0.55338
     454.06    0.62497
     455.53    0.55332
       457.    0.60102
     457.74    0.55326
     459.21     0.6487
     459.94    0.55319
     460.67     0.5293
     461.41    0.64863
     463.62    0.64857
     463.62    0.74405
     463.62    0.83953
     463.62    0.93501
     463.63     1.0782
     463.63     1.0305
     464.36      1.126
     465.09    0.72014
     465.09    0.81562
     465.09    0.98271
     465.09    0.88723
      465.1     1.1498
      465.1     1.0543
     465.82    0.60076
     465.82    0.74399
     466.55    0.57687
     466.56    0.69622
     468.02    0.55296
     468.02    0.67231
     468.76    0.60068
     469.49    0.52905
     470.96    0.60062
     472.43    0.55283
     473.17    0.64829
     474.63    0.60051
     475.37     0.6721
      476.1    0.60047
     476.84    0.76754
     476.84    0.67206
     476.85    0.86302
     476.85     0.9585
     476.85      1.054
     476.85     1.1495
     476.86     1.3166
     476.86      1.412
     476.86     1.2449
     477.59     1.2927
     477.59     1.1733
      477.6      1.412
     478.31    0.62428
     478.31    0.69589
     478.31    0.79137
     478.32    0.98233
     478.32     1.0778
     478.32     1.1494
     478.32    0.88685
     479.04    0.55264
     480.51    0.60034
     481.25    0.52871
     482.72    0.55254
     484.19    0.60024
     484.92    0.62409
     485.65    0.57632
     487.12    0.52854
     487.86    0.60013
     488.59    0.55237
     490.06    0.52846
      490.8    0.50457
     492.27        0.6
     492.27    0.52839
     493.74    0.52835
     494.47    0.59994
     495.94    0.64764
     496.67    0.55214
     497.41    0.59986
     498.88    0.67142
      523.5    -0.7566
     555.66    0.53333
     555.67    0.54666
     555.68    0.55999
     555.68    0.56999
     555.69    0.58333
      555.7    0.59333
     557.58    0.50332
     557.59    0.51999
     557.59    0.50999
     559.55    0.52665
     559.56    0.53998
     559.57    0.55998
     559.57    0.54998
     559.58    0.57332
     559.59    0.58332
     563.45    0.52998
     563.46    0.54331
     563.47    0.55664
     563.48    0.57331
     563.49    0.58664
      563.5    0.59998
     563.51    0.61331
     563.52    0.62664
     563.53    0.63998
     563.54    0.65331
     563.55    0.66664
     563.57    0.68331
     563.58    0.69998
     563.59    0.71331
      563.6    0.72664
     563.61    0.74331
     563.62    0.75998
     563.63    0.77331
     563.65    0.78997
     563.66    0.80331
     563.67    0.81664
     563.68    0.83331
     563.69    0.84997
      563.7    0.86664
     563.71    0.87997
     563.73    0.89664
     563.74    0.91331
     563.75    0.92664
     563.76    0.94331
     563.77    0.95997
     563.79    0.97664
      563.8    0.99331
     563.81     1.0066
     563.82       1.02
     563.83     1.0366
     563.84     1.0533
     563.86       1.07
     563.87     1.0833
     563.88        1.1
     563.89     1.1166
      563.9     1.1333
     563.91     1.1466
     563.93     1.1633
     563.94     1.1766
     563.95     1.1933
     563.96     1.2066
     563.97       1.22
     563.98     1.2366
     563.99       1.25
       564.     1.2633
     564.02       1.28
     564.03        1.3
     564.04     1.3133
     564.05     1.3266
     564.06     1.3433
     565.44    0.57997
     565.45     0.5933
     565.46    0.60664
     565.47    0.62997
     565.48     0.6433
     565.51    0.67664
     565.52     0.6933
     565.54    0.71664
     565.56    0.74664
     565.58     0.7633
     565.59    0.77997
      565.6    0.79997
     565.62    0.81997
     565.63    0.83997
     565.64     0.8533
     565.69    0.91997
     565.71    0.94664
     565.73     0.9733
     565.74    0.98664
     565.75    0.99664
     565.77     1.0266
     565.79       1.05
     565.82     1.0933
     565.83     1.1066
     565.85     1.1266
     565.87       1.15
     565.88     1.1666
     565.89     1.1866
     565.94     1.2466
     565.96     1.2733
     565.98     1.3066
     567.36    0.54663
     567.36    0.53997
     569.32     0.5533
     569.33    0.56663
     569.33    0.57663
     569.34    0.58663
     569.35    0.59663
     569.36    0.60663
     573.22    0.56329
     573.23    0.57329
     573.24    0.59329
     573.24    0.58329
     573.25    0.60329
     573.26    0.61662
     573.27    0.62995
     573.28    0.64329
     573.29    0.65329
      573.3    0.66329
     575.18    0.57995
     575.21    0.61995
     575.25    0.67328
     575.26    0.68662
     575.27    0.69995
     575.28    0.71328
     575.29    0.72662
     575.31    0.74328
     575.32    0.75662
     575.33    0.76995
     575.34    0.78662
     575.35    0.79995
     575.36    0.81662
     575.37    0.82995
     575.38    0.84328
     575.39    0.85662
      575.4    0.87328
     575.42    0.88995
     575.43    0.90662
     575.44    0.91995
     575.45    0.93662
     575.46    0.95328
     575.47    0.96662
     575.48    0.97995
      575.5    0.99662
     575.51     1.0099
     575.52     1.0266
     575.53     1.0399
     575.54     1.0533
     575.55     1.0666
     575.56     1.0833
     575.57     1.0966
     575.58     1.1133
      575.6     1.1333
     575.61     1.1466
     575.62     1.1599
     575.63     1.1766
     575.65     1.1933
     575.66     1.2066
     575.67     1.2199
     575.68     1.2333
     575.69     1.2466
      575.7     1.2599
     575.71     1.2799
     577.14    0.59328
     577.18    0.64661
      577.2    0.66328
     577.22    0.69328
     577.24    0.71661
     577.25    0.73661
     577.27    0.76328
     577.29    0.78328
      577.3    0.80661
     577.35    0.86328
     577.36    0.87994
     577.37    0.89328
     577.38    0.91328
      577.4    0.92994
     577.41    0.94994
     577.43    0.96994
     577.44    0.98661
     577.45     1.0033
     577.46     1.0199
     577.48     1.0366
     577.49     1.0566
      577.5     1.0699
     577.52     1.0899
     577.53     1.1066
     577.54     1.1233
     577.55     1.1399
     577.57     1.1633
     577.59     1.1833
      577.6     1.1999
     577.61     1.2166
     577.63     1.2399
     577.64     1.2566
     577.65     1.2733
     577.67     1.2899
     577.68     1.3033
     577.68     1.3133
     577.69     1.3266
      577.7     1.3399
     577.71     1.3533
      579.1    0.59994
     579.11    0.61327
     579.12    0.62661
     579.12    0.63661
     579.15    0.67661
     579.17    0.70327
     579.19    0.72994
     579.21    0.75327
     579.23    0.77661
     579.24    0.79661
     579.26    0.81994
     579.27    0.83327
     579.29    0.85327
     579.65     1.3366
     579.67     1.3566
     581.04     0.5866
     582.97    0.57327
     582.98    0.58327
     582.99     0.5966
       583.     0.6066
     583.01    0.61993
     586.87    0.56326
     586.88    0.57659
     586.89    0.58992
      586.9    0.60326
     586.91    0.62659
     586.91    0.61659
     588.82    0.56659
     588.83    0.57992
     588.84    0.59659
     588.85    0.60992
     588.86    0.62325
     590.77    0.57325
     590.79    0.59325
      590.8    0.61325
     592.71    0.55991
     594.67    0.56991
     594.68    0.58324
     594.69    0.59324
      594.7    0.60657
     596.58     0.5199
     596.58    0.52657
     596.59     0.5399
      596.6    0.55324
     596.65     0.6099
     598.55    0.54657
     598.56     0.5599
     598.57     0.5699
     598.57     0.5799
     598.58     0.5899
     598.59     0.5999
     602.43    0.51989
     602.43    0.52989
     602.44    0.53989
     602.45    0.54989
     602.46    0.56322
     602.47    0.57656
     604.42    0.58322
     604.44    0.59989
     604.45    0.61322
     604.46    0.62655
     604.47    0.63989
     606.37    0.57988
     606.37    0.57321
     606.38    0.59321
     606.39    0.60655
      606.4    0.62321
     606.41    0.63655
     606.43    0.65321
     606.44    0.66655
     606.45    0.68321
     606.46    0.69988
     606.47    0.71655
     606.49    0.73321
      606.5    0.74988
     606.51    0.76655
     606.52    0.78321
     606.54    0.79988
     606.55    0.81655
     606.56    0.83321
     606.57    0.84988
     606.59    0.86655
     608.29    0.54321
      608.3    0.54988
     608.31    0.56321
     608.32    0.58654
     608.34    0.61321
     608.36    0.62988
     608.37    0.64654
     608.39    0.67654
     608.41    0.69321
     608.42    0.70988
     608.43    0.72321
     608.44    0.73988
     608.45    0.75321
     608.46    0.76988
     608.48    0.78988
     608.49    0.80654
      608.5    0.82321
     608.52    0.84321
     608.53    0.85988
     608.55    0.87988
     608.56    0.89654
     608.57    0.91321
     608.58    0.92988
      608.6    0.94654
     608.61    0.96321
     608.62    0.97654
     608.63    0.98988
     610.23    0.52987
     610.24    0.53987
     610.25    0.55654
     610.26    0.56987
     612.18     0.5332
      612.2    0.54987
     614.16     0.5632
     614.17     0.5832
     614.18     0.5932
     614.19     0.6032
      614.2    0.61653
     616.09    0.54986
     616.11    0.57319
     616.12    0.58986
     616.14    0.61319
     616.15    0.62986
     616.16    0.64319
     616.17    0.65653
     616.18    0.66986
     616.19    0.68319
      616.2    0.69653
     616.21    0.70986
     616.22    0.72319
     616.23    0.73653
     616.24    0.74986
     616.25    0.76319
     616.27    0.77986
     616.28    0.79319
     616.29    0.80653
      616.3    0.81986
     616.31    0.83319
     616.32    0.84653
     616.33    0.85986
     616.34    0.87319
     616.35    0.88653
     616.36    0.89986
     616.37    0.91319
     616.38    0.92653
     616.39    0.93986
      616.4    0.95319
     616.41    0.96653
     616.42    0.97986
     616.43    0.99319
     616.44     1.0065
     616.45     1.0199
     616.46     1.0332
     616.47     1.0465
     616.48     1.0599
     616.49     1.0732
      616.5     1.0865
     616.51     1.0999
     616.52     1.1132
     616.53     1.1265
     616.54     1.1399
     616.55     1.1532
     616.56     1.1665
     616.57     1.1799
     616.58     1.1932
     616.59     1.2065
      616.6     1.2199
     616.61     1.2332
     616.62     1.2465
     616.63     1.2599
     616.64     1.2732
     616.65     1.2865
     616.66     1.2999
     616.67     1.3132
     616.68     1.3265
     616.69     1.3399
      618.1    0.62319
     618.11    0.63652
     618.39     1.0099
      618.4     1.0232
     618.41     1.0399
     618.42     1.0499
     618.43     1.0665
     618.45     1.0832
     618.46     1.1065
     618.48     1.1232
     618.49     1.1365
      618.5     1.1599
     618.52     1.1765
     618.53     1.1965
     618.54     1.2099
     618.55     1.2232
     618.56     1.2365
     618.57     1.2499
     618.58     1.2632
     618.59     1.2765
      618.6     1.2899
     618.61     1.3065
     618.63     1.3232
     618.64     1.3365
     620.04    0.60985
     620.06    0.63318
     620.07    0.64985
     620.08    0.66318
     620.09    0.67652
      620.1    0.68985
     620.11    0.70318
     620.12    0.71652
     620.13    0.72985
     620.14    0.74318
     620.15    0.75652
     620.16    0.76985
     620.17    0.78318
     620.18    0.79652
     620.19    0.80985
      620.2    0.82652
     620.21    0.84318
     620.23    0.85985
     620.24    0.87652
     620.25    0.88985
     620.26    0.90318
     620.27    0.91652
     620.28    0.92985
     620.29    0.94318
      620.3    0.95652
     620.31    0.96985
     620.32    0.98652
     620.33    0.99985
     621.95    0.56318
     621.96    0.57651
     621.97    0.58985
     621.98    0.60318
     621.99    0.61985
       622.    0.62985
     625.84    0.54317
     625.85     0.5565
     625.86    0.56984
     625.87    0.58317
     625.88     0.5965
     625.89    0.60984
      625.9    0.62317
     627.76    0.50983
     627.77    0.52983
     627.77    0.51983
     629.72    0.52316
     629.73    0.53983
     629.74    0.55316
     629.75     0.5665
     629.76     0.5765
     629.77    0.58983
     629.78    0.60316
     629.79    0.61316
     631.68    0.53316
     633.63    0.53982
     633.64    0.55982
     633.64    0.54982
     633.65    0.57315
     633.66    0.58649
     633.67    0.59315
     633.68    0.61315
     633.69    0.62649
     635.62    0.59982
     635.64    0.61982
     635.65    0.63982
     635.66    0.65315
     637.62    0.66315
     637.63    0.67648
     637.64    0.68981
     637.65    0.70315
     637.66    0.71648
     637.67    0.72981
     637.68    0.74315
     637.69    0.75648
      637.7    0.76981
     637.71    0.78315
     637.72    0.79648
     637.73    0.80981
     637.74    0.82314
     637.75    0.83648
     637.76    0.84981
     637.77    0.86314
     637.78    0.87648
     637.79    0.88981
      637.8    0.90314
     637.81    0.91648
     637.82    0.92981
     637.83    0.94314
     637.84    0.95648
     637.85    0.96981
     637.86    0.98314
     637.87    0.99648
     637.88     1.0098
     637.89     1.0231
      637.9     1.0365
     637.91     1.0498
     637.92     1.0631
     637.93     1.0765
     637.94     1.0898
     637.95     1.1031
     637.96     1.1165
     637.97     1.1298
     637.98     1.1431
     637.99     1.1565
       638.     1.1698
     638.01     1.1831
     638.02     1.1965
     638.03     1.2098
     638.04     1.2231
     639.51    0.58314
     639.52    0.59314
     639.53    0.60647
     639.54    0.61647
     639.55    0.62981
     639.56    0.65314
     639.56    0.64314
     639.57    0.66647
     639.58    0.67981
     639.59    0.69314
      639.6    0.70647
     639.61    0.71981
     639.62    0.73314
     639.63    0.74647
     639.64    0.75981
     639.65    0.77314
     639.66    0.78647
     639.67    0.79981
     639.68    0.81314
     639.69    0.82647
      639.7    0.83981
     639.71    0.85314
     639.72    0.86647
     639.73    0.87981
     639.74    0.89314
     639.75    0.90647
     639.77    0.92314
     639.78    0.93981
     639.79    0.95981
      639.8    0.97314
     639.81    0.98647
     639.82    0.99981
     639.83     1.0131
     639.84     1.0265
     639.85     1.0398
     639.86     1.0531
     639.87     1.0665
     639.88     1.0798
     639.89     1.0931
      639.9     1.1065
     639.91     1.1198
     639.92     1.1331
     639.94     1.1498
     639.95     1.1665
     639.96     1.1798
     639.97     1.1931
     639.98     1.2065
     639.99     1.2198
     641.43    0.54647
     641.44     0.5598
     641.45    0.57314
     643.38    0.54313
     643.39    0.55647
     643.41    0.58647
     643.42     0.5998
     643.43    0.61313
     643.46     0.6498
     645.37    0.60313
     645.39    0.62646
      645.4     0.6398
     645.42    0.65979
     645.43    0.67313
     645.44    0.68646
     645.45    0.69979
     645.46    0.71313
     645.47    0.72646
     645.48    0.73979
     645.49    0.75646
      645.5    0.76979
     645.51    0.77979
     647.39    0.68979
      647.4    0.70646
     647.41    0.72312
     647.42    0.73646
     647.43    0.74979
     647.44    0.76312
     647.45    0.77646
     649.21    0.52645
     649.22    0.53979
     649.23    0.54979
     649.24    0.56312
     649.25    0.57645
     649.26    0.58979
     649.27    0.60312
     649.28    0.61645
     649.29    0.62979
      649.3    0.64312
     649.31    0.65312
     649.32    0.66645
     649.33    0.67645
     649.33    0.68645
     651.19    0.55645
      651.2    0.56978
     651.22    0.59645
     653.17    0.60644
     653.18    0.62311
     653.19    0.63644
      653.2    0.64978
     653.22    0.66644
     653.23    0.67978
     653.24    0.69311
     653.25    0.70644
     653.26    0.71978
     653.27    0.73311
     653.28    0.74644
     653.29    0.75978
      653.3    0.77978
     655.26    0.78644
     655.27    0.80977
     655.27    0.79977
     655.28    0.82311
     655.29    0.83644
      655.3    0.84977
     655.31    0.86311
     655.32    0.87644
     655.33    0.88977
     655.34    0.90311
     655.35    0.91644
     655.36    0.92977
     655.38    0.94311
     655.39    0.95644
      655.4    0.96977
     655.41    0.98311
     655.42    0.99644
     655.43     1.0098
     655.44     1.0231
     655.45     1.0364
     655.46     1.0498
     655.47     1.0631
     655.48     1.0764
     655.49     1.0931
      655.5     1.1064
     655.51     1.1198
     655.52     1.1364
     655.53     1.1498
     655.54     1.1664
     655.55     1.1798
     655.56     1.1931
     655.57     1.2064
     655.58     1.2198
     655.59     1.2331
      655.6     1.2464
     657.02    0.53977
     657.03     0.5531
     657.04    0.56644
     657.05    0.57977
     657.06     0.5931
     657.07    0.60644
     657.08    0.61977
     657.09     0.6331
      657.1    0.64644
     657.11    0.65977
     657.12     0.6731
     657.13     0.6831
     657.14    0.69644
     657.15    0.70977
     657.16     0.7231
     657.17    0.73644
     657.18    0.74644
     657.19    0.75977
     657.19    0.76977
      657.2    0.77977
     657.21     0.7931
     657.23     0.8131
     657.24    0.82644
     657.25    0.83977
     657.26     0.8531
     657.27    0.86644
     657.28    0.87977
     657.29     0.8931
      657.3    0.90644
     657.31    0.91977
     657.32     0.9331
     657.33    0.94644
     657.34    0.95977
     657.35     0.9731
     657.36    0.98643
     657.37    0.99977
     657.38     1.0131
     657.39     1.0264
      657.4     1.0398
     657.41     1.0531
     657.42     1.0664
     657.43     1.0798
     657.44     1.0964
     657.45     1.1098
     657.46     1.1264
     657.47     1.1398
     657.48     1.1531
      657.5     1.1731
     657.51     1.1831
     657.52     1.1998
     657.53     1.2164
     657.54     1.2298
     657.55     1.2431
     660.92    0.54643
     660.92    0.53643
     660.93    0.55976
     660.94    0.57309
     660.95    0.58309
     660.96    0.58976
     662.85    0.51309
     662.86    0.52642
     662.88    0.55309
     662.89    0.56976
     662.91    0.59642
     662.92    0.60642
     662.93    0.61976
      664.8    0.52309
     664.85    0.57975
     666.75    0.51308
     666.76    0.53308
     666.77    0.54641
     666.78    0.55975
     666.81    0.59641
     668.74    0.56974
     668.75    0.58641
     668.77    0.60641
     668.78    0.62308
     668.79    0.63641
      668.8    0.64974
     668.81    0.65974
     670.76    0.66641
     670.77    0.67974
     672.73    0.68973
     672.74    0.70307
     672.75     0.7164
     672.76    0.72973
     672.77    0.74307
     672.78     0.7564
     672.79    0.77307
      672.8     0.7864
     672.81    0.80307
     672.82     0.8164
     672.84    0.83307
     672.85     0.8464
     672.86    0.85973
     672.87    0.87307
     672.88    0.88973
     672.89    0.90307
      672.9     0.9164
     672.91    0.92973
     672.92    0.94307
     672.93    0.95973
     672.94     0.9764
     672.95    0.98973
     672.97     1.0064
     672.98     1.0197
     672.99     1.0331
       673.     1.0497
     673.01     1.0631
     673.02     1.0764
     673.03     1.0897
     673.04     1.1031
     673.05     1.1164
     673.06     1.1297
     673.07     1.1431
     673.08     1.1564
     673.09     1.1697
      673.1     1.1831
     673.11     1.1964
     673.12     1.2097
     673.13     1.2231
     674.58     0.5664
     674.59    0.57973
      674.6    0.58973
     674.61    0.60306
     674.62     0.6164
     674.63    0.62973
     674.64    0.63973
     674.65    0.65306
     674.66     0.6664
     674.67    0.67973
     674.68    0.69306
     674.69     0.7064
      674.7    0.71973
     674.71    0.73306
     674.72     0.7464
     674.73    0.75973
     674.74     0.7764
     674.75    0.79306
     674.77    0.80973
     674.78    0.82306
     674.79     0.8364
      674.8    0.84973
     674.81    0.86306
     674.82    0.87973
     674.83     0.8964
     674.85    0.91973
     674.86     0.9364
     674.87    0.94973
     674.88     0.9664
      674.9    0.98306
     674.91    0.99973
     674.92     1.0131
     674.93     1.0297
     674.95     1.0464
     674.96     1.0597
     674.97     1.0731
     674.98     1.0864
     674.99     1.0997
       675.     1.1131
     675.01     1.1264
     675.02     1.1397
     675.03     1.1631
     675.04     1.1764
     675.05     1.1897
     675.07     1.2064
     675.08     1.2197
     676.51    0.53306
     676.52    0.54639
     676.53    0.55639
     678.48    0.56972
      680.4    0.52305
     680.41    0.54305
     680.41    0.53305
     680.42    0.55638
     680.44    0.57638
     680.45    0.58972
     680.46    0.60305
     680.47    0.62305
     680.49    0.63972
      680.5    0.65305
     680.51    0.66638
     680.52    0.68305
     682.43    0.62971
     682.44    0.64305
     682.45    0.65971
     682.46    0.66971
     682.47    0.67971
     684.29    0.51638
      684.3    0.52971
     684.31    0.53971
     684.32    0.55304
     684.33    0.56304
     686.25    0.53304
     686.28    0.56637
     686.29    0.58637
     686.29    0.57637
      686.3     0.5997
     686.31    0.61304
     686.32    0.62637
     686.33    0.63637
     690.18    0.56636
     690.19     0.5797
      690.2    0.59303
     690.21    0.60636
     690.22     0.6197
     690.23    0.63303
     690.24    0.64636
     690.25     0.6597
     690.26    0.67303
     690.27     0.6897
     690.28    0.70303
     690.29    0.71636
      690.3     0.7297
     690.31    0.74636
     690.33    0.76303
     690.34    0.77636
     690.35    0.79303
     690.36     0.8097
     690.37    0.82303
     690.38    0.83636
     690.39    0.85303
      690.4    0.86636
     690.42    0.88303
     690.43     0.8997
     690.44    0.91303
     690.45     0.9297
     690.46    0.94303
     690.47    0.95636
     690.48    0.97303
     690.49    0.98636
      690.5     0.9997
     690.52     1.0164
     690.53     1.0297
     690.54      1.043
     690.55     1.0597
     690.56      1.073
     690.57     1.0897
     690.58      1.103
     690.59     1.1164
      690.6     1.1297
     692.11    0.53969
     692.12    0.55636
     692.13    0.57303
     692.17    0.62636
     692.18    0.64303
      692.2    0.66636
     692.21    0.67969
     692.22    0.69303
     692.23    0.70636
     692.24    0.71969
     692.25    0.73636
     692.27    0.75302
     692.28    0.76969
     692.29    0.78636
      692.3    0.79969
     692.31    0.81302
     692.32    0.82636
     692.34    0.85636
     692.34    0.84302
     692.36    0.87302
     692.37    0.88969
     692.38    0.90302
     692.39    0.91969
     692.41    0.93636
     692.42    0.95302
     692.43    0.96636
     692.44    0.98302
     692.45    0.99636
     692.46      1.013
     692.47     1.0264
     692.48     1.0397
      692.5     1.0564
     692.51     1.0697
     692.52     1.0864
     692.53     1.0997
     692.54      1.113
     692.55     1.1264
     694.05    0.52635
     694.06    0.54302
     694.07    0.55302
     694.08    0.56635
     694.09    0.58302
     695.99    0.51968
     696.03    0.57302
     697.93    0.50301
     697.94    0.51635
     697.95    0.53968
     697.95    0.52968
     697.96    0.54635
     697.97    0.55968
     697.98    0.57968
     701.83    0.50634
     701.84    0.51634
     701.84    0.52967
     701.86    0.54634
     701.87    0.55967
     701.88      0.573
     701.89    0.58967
      701.9      0.603
     701.91    0.61634
     701.92    0.62967
     701.93    0.64634
     703.89    0.65633
      703.9    0.66967
     703.91      0.683
     703.92    0.69633
     703.93    0.70967
     703.94      0.723
     703.95    0.73633
     703.96    0.74967
     703.97      0.763
     703.98    0.77633
     703.99    0.78967
       704.      0.803
     704.01    0.81633
     704.02    0.82967
     704.03      0.843
     704.04    0.85633
     704.05    0.86967
     704.06      0.883
     704.07    0.89633
     704.08    0.90967
     704.09    0.92633
      704.1    0.93967
     704.11      0.953
     704.12    0.96633
     704.13    0.97967
     704.14      0.993
     704.15     1.0063
     704.16     1.0197
     704.17      1.033
     704.18     1.0463
     704.19     1.0597
      704.2      1.073
     705.82    0.63633
     705.83    0.64966
     705.87      0.703
     705.88      0.713
     705.89    0.72633
      705.9    0.73966
     705.91    0.75299
     705.92    0.76633
     705.93    0.77966
     705.94    0.79299
     705.95    0.80633
     705.96    0.81966
     705.97    0.83299
     705.98    0.84633
     705.99    0.85966
       706.    0.87299
     706.01    0.88633
     706.02    0.89966
     706.03    0.91633
     706.04    0.92966
     706.05    0.94299
     706.06    0.95633
     706.08    0.96966
     706.09    0.98299
      706.1    0.99633
     706.11      1.013
     706.12     1.0263
     706.13      1.043
     706.14     1.0563
     706.15     1.0697
      707.7    0.53299
     707.71    0.55632
     707.71    0.54632
     707.72    0.56966
     707.73    0.58299
     707.74    0.59632
     707.76    0.61299
     707.77    0.62632
     707.78    0.64299
     707.79    0.66299
      707.8    0.67632
     707.81    0.68632
     707.82    0.69632
     709.62    0.50632
     709.63    0.51632
     709.64    0.52632
     709.68    0.57632
      709.7    0.60632
      711.6    0.54298
     711.61    0.55298
     711.62    0.56298
     711.63    0.58632
     711.64    0.59298
     713.52    0.49965
     713.53    0.51631
     713.54    0.52631
     713.57    0.56964
     713.58    0.57964
     715.48    0.51297
     715.49    0.53631
      715.5    0.54964
     715.54    0.59297
     717.46    0.55964
     717.47    0.57297
     717.48    0.58297
     719.44    0.59297
     719.45     0.6063
     719.46    0.61963
     719.47    0.63297
     719.48     0.6463
     719.49    0.65963
      719.5    0.67297
     719.51     0.6863
     719.52    0.69963
     719.53    0.71297
     719.54    0.72963
     719.55    0.74296
     719.56     0.7563
     719.57    0.76963
     719.58    0.78296
     719.59     0.7963
      719.6    0.80963
     719.61    0.82296
     719.62     0.8363
     719.63    0.84963
     719.64    0.86296
     719.65    0.87963
     719.66    0.89296
     719.67    0.90963
     719.68    0.92296
     719.69     0.9363
      719.7    0.94963
     719.71    0.96296
     719.72     0.9763
     719.73    0.98963
     719.74      1.003
     719.75     1.0163
     719.76     1.0296
     719.77      1.043
     719.78     1.0563
      719.8      1.073
     719.81     1.0896
     719.82      1.103
     719.83     1.1163
     719.84     1.1296
     719.85      1.143
     721.34    0.53963
     721.35    0.55296
     721.37    0.56963
     721.38    0.58296
     721.39    0.59963
     721.41    0.62296
     721.42    0.63629
     721.43    0.64963
     721.44    0.66296
     721.45    0.67629
     721.46    0.68963
     721.47    0.70296
     721.48    0.71963
     721.49    0.73296
      721.5    0.74629
     721.51    0.75963
     721.52    0.77296
     721.53    0.78629
     721.54    0.79963
     721.55    0.81296
     721.56    0.82629
     721.57    0.83963
     721.58    0.85296
     721.59    0.86963
      721.6    0.88296
     721.62    0.89963
     721.63    0.91296
     721.64    0.92629
     721.65    0.93963
     721.66    0.95296
     721.67    0.96629
     721.68    0.97963
     721.69    0.99296
      721.7     1.0063
     721.71     1.0196
     721.72      1.033
     721.73     1.0496
     721.74     1.0663
     721.75     1.0796
     721.76     1.0963
     721.77     1.1063
     725.23    0.52629
     725.24    0.53962
     725.25    0.54962
     725.26    0.56295
     725.27    0.57629
     725.28    0.58962
     725.29    0.60295
     725.29    0.59629
     729.13    0.51961
     729.14    0.54294
     729.14    0.53294
     729.15    0.55294
     729.16    0.56294
     729.17    0.57294
     729.18    0.58628
     731.07    0.51294
     731.08    0.52627
      731.1    0.54961
     731.13    0.58961
     733.04     0.5396
     733.05    0.54627
     733.06     0.5596
     733.07    0.57627
     733.08    0.58627
     734.98    0.53293
     736.93    0.52293
     736.94    0.53959
     738.85    0.48626
     738.86    0.49959
     738.87    0.51292
     738.89    0.54626
      740.8    0.48959
     740.81    0.50292
     740.82    0.51959
     740.83    0.53292
     742.78    0.53625
     742.79    0.54958
      742.8    0.56291
     742.81    0.57625
     742.82    0.58958
     742.84    0.60958
     742.84    0.61625
     742.87    0.64958
     742.88    0.66958
     742.89    0.68291
     742.91    0.69958
     742.92    0.71625
     742.92    0.72291
     742.94    0.74291
     742.96    0.76958
     742.97    0.78291
     742.98    0.79625
     743.01    0.83625
     744.75    0.55958
     744.78    0.59958
      744.8    0.62958
      744.8    0.61958
     744.81    0.63958
     744.82    0.65291
     744.83    0.66624
     744.84    0.67958
     744.85    0.69291
     744.86    0.70624
     744.87    0.71958
     744.88    0.73291
     744.89    0.74624
      744.9    0.75958
     744.91    0.77291
     744.92    0.78958
     744.93    0.80291
     744.94    0.81624
     744.95    0.82958
     744.96    0.84291
     744.98    0.85958
     744.99    0.87291
       745.    0.88958
     745.01    0.90624
     745.02    0.91958
     745.03    0.93291
     745.04    0.94624
     745.05    0.95958
     745.06    0.97291
     745.07    0.98624
     745.08    0.99957
     745.09     1.0129
     746.67    0.51957
     746.68    0.53957
     746.68    0.52957
     746.69    0.55291
     746.72    0.58624
     746.86    0.76624
     746.91    0.83957
     746.93    0.86624
     746.96    0.89957
     746.97     0.9129
     748.62    0.51623
     748.63     0.5329
     748.64    0.54623
     748.65    0.55623
      750.6    0.55623
     750.61    0.56956
     750.62     0.5829
     750.63     0.6029
     752.52    0.52623
     752.53    0.53956
     752.54    0.55289
     752.57    0.59289
      754.5    0.56289
     754.51    0.58289
     754.51    0.57289
     756.42    0.52622
     756.43    0.53955
     756.44    0.55288
     756.46    0.57955
     758.35    0.49955
     758.36    0.51621
     758.37    0.52955
      760.3    0.50621
     760.32    0.52288
     760.33    0.54288
     760.34    0.55621
     760.35    0.56954
     762.27    0.52954
     762.28    0.53954
     762.31    0.57954
     764.23     0.5462
     764.24    0.55953
     764.25    0.56953
     764.27    0.58953
     764.28    0.61287
     764.28    0.60287
      766.2     0.5662
     768.15    0.57619
     768.16    0.58619
     768.17    0.59952
     768.18    0.61619
     768.19    0.62619
      768.2    0.63619
     768.21    0.64619
     768.22    0.65952
     768.23    0.67286
     768.24    0.68619
     768.25    0.69952
     768.26    0.71286
     768.27    0.72619
     768.28    0.73952
     768.29    0.75286
      768.3    0.76619
     768.31    0.77952
     768.32    0.79286
     768.33    0.80619
     768.34    0.81952
     768.35    0.83286
     768.36    0.84619
     768.37    0.85952
     768.38    0.87286
     768.39    0.88619
      768.4    0.89952
     768.41    0.91286
     768.42    0.92619
     768.43    0.93952
     768.44    0.95286
     768.45    0.96619
     768.46    0.97952
     768.47    0.99286
     768.48     1.0062
     768.49     1.0195
      768.5     1.0329
     768.51     1.0462
     768.52     1.0595
     768.53     1.0729
     770.16    0.65285
     770.17    0.66285
     770.18    0.67619
     770.19    0.68952
      770.2    0.70285
     770.21    0.71619
     770.22    0.72952
     770.23    0.74619
     770.24    0.76285
     770.26    0.78285
     770.27    0.79619
     770.28    0.80952
     770.29    0.82285
      770.3    0.83952
     770.31    0.85619
     770.33    0.87952
     770.34    0.89619
     770.36    0.91619
     770.37    0.92952
     770.38    0.94285
     770.39    0.95619
      770.4    0.96952
     770.41    0.98285
     770.42    0.99619
     770.43     1.0129
     770.44     1.0295
     770.45     1.0429
     770.46     1.0562
     770.47     1.0695
     772.02    0.53618
     772.03    0.54618
     772.04    0.55618
     772.05    0.56952
     772.06    0.58285
     772.07    0.59618
     772.08    0.60952
     772.09    0.62285
      772.1    0.63618
     772.11    0.64952
     775.92    0.53617
     775.93    0.54951
     775.94    0.56284
     775.95    0.57951
     777.86     0.5295
     777.87    0.54284
     777.88    0.55617
      777.9    0.57284
     779.78     0.4895
     779.79     0.4995
      779.8    0.51283
     779.81    0.52283
     779.84    0.56617
     779.86    0.58617
     779.87     0.5995
     781.72    0.47616
     781.74    0.49616
     781.75    0.50616
     781.77    0.53949
     781.81    0.59283
      783.7    0.50949
     783.71    0.52616
     783.72    0.53282
     785.67    0.53949
     785.68    0.55282
     785.69    0.56615
      785.7    0.57949
     785.71    0.59282
     785.72    0.60615
     785.73    0.61615
     785.73    0.62615
     785.74    0.63949
     785.75    0.65282
     785.76    0.66615
     785.77    0.67949
     785.78    0.69282
     785.79    0.70615
      785.8    0.71949
     785.81    0.73282
     785.83    0.74615
     785.84    0.75949
     785.85    0.77282
     785.86    0.78615
     785.87    0.79949
     785.89    0.82615
      785.9    0.84615
     785.92    0.87282
     785.94    0.89282
     785.95    0.91282
     785.96    0.92615
     785.97    0.93948
     785.98    0.95282
     785.99    0.96615
       786.    0.97948
     786.03     1.0128
     786.04     1.0262
     786.05     1.0395
     786.06     1.0528
     786.07     1.0662
     787.61    0.52282
     787.62    0.54615
     787.73    0.68948
     787.75    0.71615
     787.78    0.75615
      787.8    0.78281
     787.81    0.78948
     787.83    0.81615
     787.84    0.83948
     787.86    0.86281
     787.88    0.88615
     787.89    0.90281
     787.91    0.92281
     787.96    0.98948
     787.97     1.0028
     788.03     1.0795
     788.04     1.0961
     789.55    0.51614
     789.56    0.53281
     789.58    0.55614
     789.59    0.56614
      789.6    0.57614
     789.61    0.58948
     789.61    0.59948
     789.62    0.60948
     789.63    0.62281
     789.64    0.63281
     789.65    0.64614
     789.66    0.65948
     789.67    0.67281
     789.68    0.68281
     789.69    0.70281
     789.71    0.72948
     789.72    0.74281
     789.74    0.76948
     789.76    0.79614
     789.77    0.80948
     789.79    0.82948
      789.8    0.85281
     789.82    0.87614
     789.83    0.89281
     789.85    0.91281
     789.87    0.93614
     789.88    0.94948
     789.88    0.95948
     789.89    0.96948
      789.9    0.97614
     789.91    0.99614
     789.92     1.0095
     789.93     1.0228
     789.94     1.0361
     789.95     1.0495
     789.96     1.0628
     789.97     1.0728
     789.98     1.0828
     789.98     1.0928
      791.5    0.51947
     791.52    0.54281
     793.49     0.5728
      793.5     0.5828
     793.51     0.5928
     795.42    0.54946
     795.43     0.5628
     795.46    0.59946
     795.48    0.62946
     795.48    0.61946
     797.34    0.50613
     797.35    0.52279
     797.36    0.53946
     797.39    0.57613
      797.4    0.58613
     797.42    0.60946
     797.43    0.63279
     799.32    0.55279
     799.33    0.56612
     803.22    0.55278
     803.23    0.56278
     803.24    0.57945
     803.25    0.59278
     803.27    0.60945
     803.28    0.62278
     803.29    0.63611
      803.3    0.65278
     803.31    0.66611
     803.32    0.67945
     803.33    0.69278
     803.34    0.70945
     803.35    0.72611
     803.36    0.73945
     803.38    0.75611
     803.39    0.77278
      803.4    0.78611
     803.41    0.80611
     803.42    0.81945
     803.44    0.83945
     803.45    0.85945
     803.47    0.87945
     803.48    0.89278
     803.49    0.91278
     805.24    0.64278
     805.25    0.65611
     805.26    0.66944
     805.27    0.68278
     805.28    0.69944
     805.29    0.71611
     805.31    0.73278
     805.32    0.74944
     805.33    0.76611
     805.35    0.79611
     805.36    0.80944
     805.38    0.82944
      805.4    0.85278
     805.41    0.87278
     805.43    0.89944
     807.11    0.54277
     807.12    0.55611
     807.13    0.56944
     807.15    0.58944
     807.16    0.60277
     807.17    0.61611
     807.18    0.62944
     807.19    0.63944
     809.02    0.49277
     809.02    0.48277
     809.03     0.5061
     809.04    0.51943
     809.06     0.5361
     809.09    0.57943
     810.96     0.4761
     810.98    0.49943
       811.    0.52943
     811.01    0.54276
     811.02     0.5561
     812.99    0.57609
     814.91    0.54609
     814.92    0.55942
     816.88    0.56608
     816.89    0.57942
      816.9    0.59275
     816.91    0.60608
     816.92    0.61942
     816.93    0.63942
     816.93    0.63275
     818.89    0.65275
      818.9    0.66608
     818.91    0.67941
     818.92    0.69275
     818.93    0.70608
     818.94    0.71941
     818.95    0.73275
     818.96    0.74941
     820.78    0.57608
     820.79    0.58941
      820.8    0.60274
     820.81    0.61608
     820.82    0.62941
     820.84    0.64608
     820.85    0.66274
     822.72    0.56607
     824.68    0.57607
     824.69    0.58607
      824.7    0.60273
     824.71    0.61273
     824.72    0.62607
     824.73     0.6394
     824.74    0.65273
     824.75     0.6694
     824.76    0.68607
     824.77     0.6994
     824.78    0.71273
     824.79    0.72607
      824.8     0.7394
     824.81    0.75273
     824.82    0.76607
     824.83     0.7794
     824.84    0.79273
     824.85    0.80607
     824.87    0.82273
     824.88    0.83607
     824.89     0.8494
      824.9    0.86273
     824.91     0.8794
     824.92    0.89273
     824.93    0.90607
     824.94    0.92273
     824.95    0.93607
     824.96     0.9494
     824.97    0.96273
     824.98    0.97607
       825.    0.99273
     825.01     1.0061
     825.02     1.0194
     825.03     1.0327
     825.04     1.0461
     825.05     1.0627
     825.06     1.0761
     825.07     1.0894
     826.66     0.6094
     826.67    0.63273
      826.7    0.66273
     826.71    0.67606
     826.72    0.69606
     826.74    0.71606
     826.75     0.7294
     826.76    0.74273
     826.77    0.75606
     826.78     0.7694
     826.79    0.78273
      826.8    0.79606
     826.81    0.81273
     826.82    0.82606
     826.83    0.83939
     826.84    0.85273
     826.85     0.8694
     826.86    0.88606
     826.87    0.89939
     826.89    0.91606
     826.91    0.94273
     826.92    0.95939
     826.94    0.98273
     826.95    0.99606
     826.96     1.0127
     826.97     1.0294
     826.98     1.0427
     828.54    0.51939
     828.55    0.53273
     828.57    0.55939
     828.58    0.57272
     828.59    0.58939
      828.6    0.60272
     830.47    0.50272
     830.48    0.51605
     830.49    0.52939
     830.51    0.54939
     832.45    0.54272
     834.39    0.53271
     834.39    0.52271
      836.3    0.47271
     836.31    0.48937
     836.32    0.49937
     836.33    0.51271
     836.35    0.53937
     836.36    0.54937
     838.25    0.47937
     838.29    0.52604
     840.18    0.44937
     840.19    0.46603
     840.21     0.4927
     840.23     0.5127
     840.27     0.5627
     840.29    0.59937
      840.3    0.60603
      842.2    0.54269
     842.22    0.57269
     842.23    0.58603
     842.25    0.61269
     844.19    0.59602
     846.12    0.56602
     846.13    0.58935
     846.13    0.57935
     846.15    0.60935
     846.17    0.63269
     846.18    0.65269
      846.2    0.67269
     848.03    0.52268
     848.04    0.53602
     848.05    0.54935
     848.06    0.55935
     848.09    0.60268
     848.11    0.62268
     848.12    0.64268
     848.14    0.66268
     850.02    0.56934
     850.03    0.59268
     850.03    0.58268
     851.96    0.55601
     851.97    0.57267
     851.99    0.59934
     853.93    0.58934
     853.94    0.60934
     855.81    0.49933
     855.82    0.51266
     855.83      0.526
     855.84    0.53933
     855.85    0.55266
     855.86      0.566
     855.87    0.57933
     855.89    0.60266
     857.77    0.50599
     859.73    0.53266
     859.73    0.52266
     859.74    0.54599
     859.75    0.55932
     859.76    0.56932
     861.72    0.57932
     861.73    0.59599
     861.74    0.61265
     861.76    0.62932
     861.77    0.64265
     861.78    0.65932
     861.79    0.67265
      861.8    0.68932
     861.81    0.70598
     861.82    0.71932
     861.84    0.73598
     861.85    0.75265
     861.86    0.76598
     861.87    0.77932
     861.88    0.79265
     861.89    0.80932
     861.91    0.82598
     861.92    0.83932
     861.93    0.85598
     861.94    0.87265
     863.65    0.55265
     863.66    0.56598
     863.67    0.58598
     863.69    0.60265
      863.7    0.61931
     863.71    0.63598
     863.72    0.64931
     863.73    0.66265
     863.74    0.67931
     863.75    0.69265
     863.77    0.71265
     863.78    0.72265
     863.79    0.73931
      863.8    0.75598
     863.81    0.77265
     863.82    0.78598
     863.84    0.81265
     863.84    0.80265
     863.86    0.83265
     863.87    0.84598
     863.88    0.85931
     863.89    0.86931
     865.59    0.53931
     867.52    0.51264
     867.53    0.52931
     867.55    0.55931
     869.47     0.5193
     869.49    0.54263
     869.51    0.57263
      871.4    0.49596
     871.41     0.5093
     871.43    0.53596
     871.45    0.55596
     871.46     0.5693
     873.34    0.48263
     873.37    0.52596
     873.39    0.54263
     875.27    0.45596
     875.28    0.47262
      875.3    0.49262
     875.31    0.50596
     875.32    0.51929
     875.34    0.55262
     877.28    0.53595
     877.29    0.54595
      877.3    0.56262
     879.19    0.48595
      879.2    0.49928
     879.21    0.51261
     879.22    0.52261
     881.11    0.44928
     881.12    0.46261
     881.13    0.47594
     881.18    0.53928
      881.2    0.55928
     883.11     0.5126
     883.12    0.52927
     883.14    0.54927
     883.15    0.56927
     885.17    0.65593
     887.05     0.5626
     887.05     0.5726
     887.06    0.58593
     887.07    0.59593
     887.08    0.60926
     887.09    0.61926
      887.1     0.6326
     887.11    0.64593
     887.12    0.66593
     887.13    0.67593
     887.14    0.68926
     887.15    0.69926
     887.16     0.7126
     888.97    0.53259
     888.97    0.52259
     888.98    0.54259
     888.99    0.55259
     889.01    0.58259
     889.04    0.61593
     889.05    0.63592
     889.07    0.65592
     889.09    0.68259
      889.1    0.70592
      892.8    0.43592
     892.81    0.45258
     892.82    0.46592
     892.83    0.47925
     892.84    0.49258
     892.85    0.50592
     892.86    0.51925
     892.87    0.52925
     892.88    0.54258
     894.75    0.43258
     894.75    0.44258
     894.77    0.45925
     894.79    0.48591
     894.81    0.51258
     894.84    0.56258
     894.84    0.55258
      896.8    0.57591
     896.81    0.58924
     896.82    0.60257
     896.83    0.61591
     896.84    0.62924
     896.85    0.64257
     896.86    0.65591
     896.87    0.66924
     896.88    0.68257
     896.89    0.69591
     898.74     0.5659
     898.74     0.5559
     898.75    0.57924
     898.77     0.5959
     898.79    0.62257
      898.8     0.6359
     898.81    0.64924
     898.82    0.66257
     898.84    0.69924
     898.84    0.68924
     900.62     0.4659
     900.63    0.48257
     900.64     0.4959
     900.65    0.50923
     900.66    0.52257
     900.67     0.5359
     900.68    0.54923
     902.58     0.4759
     904.52    0.46589
     904.53    0.48256
     904.54    0.49256
     904.55    0.51589
     904.55    0.50589
     906.51    0.52589
     906.52    0.53589
     906.53    0.54589
     908.45    0.50922
     908.46    0.51922
     908.47    0.53922
     910.39    0.49921
     912.31    0.46587
     912.32    0.47921
     912.33    0.48921
     912.35    0.51587
     914.29    0.49587
     916.25    0.51253
     916.26    0.52587
     916.27     0.5392
     916.28    0.55586
     916.29    0.57253
     918.19    0.49919
     918.22    0.54586
     920.14    0.50586
     920.15    0.51919
     920.16    0.53252
     922.06    0.46252
     922.07    0.48252
     922.08    0.49585
     922.12    0.54585
     922.13    0.55919
     922.14    0.57252
     922.15    0.58585
     924.01    0.47251
     924.03    0.48918
     924.04    0.50251
     924.05    0.52585
     925.99    0.51251
     926.01    0.53584
     926.02    0.54584
     926.03    0.55584
     926.04    0.56918
     926.04    0.57918
       928.    0.58917
     928.01    0.60251
     928.02    0.61584
     928.03    0.63251
     928.04    0.64584
     928.06    0.66251
     928.07    0.67584
     928.08    0.69251
     928.09    0.70917
      928.1    0.72251
     928.11    0.73584
     929.88     0.5025
     929.88     0.4925
     929.89    0.51584
      929.9    0.52917
     929.92    0.54917
     929.93     0.5625
     929.97     0.6125
     929.99    0.63917
       930.    0.65917
     930.02     0.6825
     930.04     0.7025
     930.05    0.71917
     930.06     0.7325
     931.82    0.48583
     931.86    0.53916
     931.89     0.5825
     931.89     0.5725
      931.9    0.59583
     931.91    0.60916
     933.76    0.47249
     933.77    0.48249
     933.78    0.49916
     933.79    0.50916
      933.8    0.52583
     933.82    0.55249
     933.83    0.56583
     933.85    0.58583
     933.86    0.60583
     935.72    0.48916
     935.73    0.50582
     935.74    0.51916
     935.76    0.54582
     937.65    0.45915
     937.66    0.47248
      937.7    0.53248
     937.72    0.55582
      939.6    0.45581
     939.62    0.48248
     939.63    0.49915
     939.65    0.52248
     939.66    0.53915
     939.68    0.57248
     941.61    0.54581
     941.62    0.55914
     941.64    0.58248
     941.65    0.59581
     941.66    0.61248
     941.67    0.62581
     941.68    0.63581
     945.55    0.59247
     945.56     0.6058
     945.57    0.62913
     945.57    0.61913
     945.58    0.63913
     945.59    0.65247
      945.6     0.6658
     945.61    0.67913
     945.62     0.6958
     945.63    0.70913
     945.64    0.72247
     945.65     0.7358
     945.66    0.74913
     945.67    0.76247
     945.68     0.7758
     945.69    0.78913
      945.7    0.80247
     945.71     0.8158
     945.72    0.82913
     945.73    0.84247
     945.74     0.8558
     945.75    0.86913
     945.76    0.88247
     945.77     0.8958
     945.78    0.90913
     945.79    0.92247
      945.8     0.9358
     945.81    0.94913
     947.49    0.58246
     947.57    0.68913
     947.58     0.7058
     947.59     0.7158
     947.61    0.74246
     947.63    0.76913
     947.65     0.7958
     947.67    0.82246
     947.69    0.84913
     947.71     0.8758
     947.74     0.9158
     947.75    0.92913
     949.43    0.56913
     949.44    0.58913
     949.45    0.60246
     949.46    0.61246
     949.47    0.63246
     949.48    0.64579
     949.49    0.65913
     949.51    0.67579
     949.59    0.78579
     951.42    0.62245
     951.45    0.66912
     951.46    0.68579
     951.48    0.70579
     951.49    0.72245
      951.5    0.73912
     951.52    0.75912
     951.53    0.77579
     951.63    0.90579
     953.33    0.56912
     953.34    0.58245
     953.35    0.59578
     953.36    0.61912
     953.36    0.60912
     953.37    0.62912
     953.38    0.64245
     953.39    0.65245
      953.4    0.66245
     953.41    0.67578
     953.42    0.69578
     953.44    0.71578
     953.45    0.72912
     953.46    0.74912
     953.48    0.76912
     953.49    0.78245
      953.5    0.79578
     953.51    0.80912
     953.52    0.83245
     953.52    0.82245
     953.53    0.84578
     953.54    0.85912
     953.55    0.86912
     953.56    0.88578
     953.57    0.89578
     953.59    0.92578
     953.59    0.91578
     955.25    0.53911
     955.26    0.54911
     955.27    0.55911
     955.36    0.68245
     955.51    0.87578
     957.17    0.49911
     957.18    0.51578
     957.19    0.52578
     959.16    0.55244
     961.08     0.5091
     961.09    0.52243
      961.1    0.54577
      961.1    0.53577
     961.11     0.5591
     961.13    0.57577
     961.14     0.5891
     961.15    0.60243
     961.16    0.61577
     961.16    0.62243
     963.03    0.51576
     963.05    0.54243
     963.07     0.5691
      963.1     0.6091
     965.01    0.54909
     965.04    0.59242
     965.06    0.61909
     965.07    0.63242
     965.08    0.64909
     965.09    0.66242
      965.1    0.67909
     965.11    0.68909
     965.12    0.70242
     965.25    0.87576
     965.27    0.89576
     966.99    0.59909
       967.    0.60909
     967.02    0.63909
     967.04    0.65575
     967.05    0.67242
     967.07    0.69575
     967.08    0.71242
     967.09    0.72909
     967.11    0.75242
     967.12    0.77242
     967.12    0.76242
     967.13    0.78242
     967.14    0.79242
     967.15    0.80242
     967.15    0.81242
     967.16    0.82575
     967.17    0.83575
     967.18    0.84575
     967.19    0.85575
     967.19    0.86575
     967.21    0.88575
     967.22    0.90575
     967.23    0.91909
     969.05    0.73908
     970.89    0.59574
      970.9    0.61574
      970.9    0.60574
     972.77    0.51241
     972.78    0.52574
     972.79    0.53907
     972.81    0.55574
     972.82    0.56907
     972.83    0.58241
     976.67     0.5024
     976.68    0.51573
     976.69    0.52907
      976.7    0.54573
      978.6    0.48239
     978.61    0.49573
     978.64    0.53906
     978.66    0.55573
     978.67    0.56906
     980.56    0.49906
     980.57    0.51572
     980.58    0.52906
     980.61    0.55906
     980.62    0.57239
     982.52    0.50905
     982.54    0.53572
     982.55    0.54905
     984.47    0.51571
      984.5    0.55571
     986.43    0.53238
     986.43    0.52238
     986.44    0.54238
     986.46    0.56571
     988.42    0.57571
     990.37     0.5857
     990.38    0.59904
     990.39    0.61237
     990.41    0.62903
     990.42    0.64237
     990.43     0.6557
     990.44    0.66903
     990.45     0.6857
     990.46    0.69903
     990.47    0.71237
     990.48     0.7257
     990.49    0.74237
      990.5     0.7557
     990.51    0.76903
     990.52    0.78237
     990.53     0.7957
     990.55     0.8157
     990.56    0.83903
     990.57    0.85237
     990.59    0.86903
      990.6    0.88237
     990.61     0.8957
     990.62    0.91237
     990.63     0.9257
     990.64    0.94237
     990.65     0.9557
     990.66    0.96903
     990.67    0.98237
     992.44     0.7357
     992.45    0.74903
     992.46    0.77236
     992.46    0.76236
     992.48    0.79903
     992.48    0.78903
     992.49    0.80903
     992.51    0.82903
     992.52    0.84236
     992.53    0.85903
     992.54    0.87236
     992.55     0.8857
     992.56    0.90236
     992.57     0.9157
     992.58    0.93236
     992.59     0.9457
      992.6    0.95903
     992.61    0.97236
     992.62     0.9857
      994.3    0.62236
     994.31    0.64236
     994.33    0.66236
     994.34    0.68236
     994.36    0.70569
     994.38    0.72569
     996.23    0.59236
     996.23    0.59902
     996.24    0.61236
     996.26    0.63236
     996.27    0.65236
     996.29    0.67236
      996.3    0.69569
     996.32    0.71569
     996.33    0.73569
     998.12    0.52568
     998.12    0.51902
     998.13    0.53902
     998.15    0.55235
     998.16    0.57235
     998.17    0.58568
  1.0020E+3    0.51568
  1.0020E+3    0.52901
  1.0020E+3    0.54234
  1.0020E+3    0.55568
  1.0021E+3    0.57568
  1.0021E+3    0.56568
  1.0059E+3    0.51233
  1.0059E+3    0.52567
  1.0059E+3      0.559
  1.0059E+3    0.54567
  1.0059E+3    0.53567
  1.0060E+3    0.58233
  1.0060E+3    0.57233
  1.0079E+3    0.55233
  1.0079E+3    0.59233
  1.0079E+3    0.60566
  1.0079E+3      0.619
  1.0079E+3      0.529
  1.0099E+3    0.62899
  1.0099E+3    0.64566
  1.0099E+3    0.65899
  1.0099E+3    0.67233
  1.0099E+3    0.68566
  1.0100E+3    0.69899
  1.0118E+3    0.59565
  1.0118E+3    0.60899
  1.0118E+3    0.61899
  1.0118E+3    0.58232
  1.0119E+3    0.67899
  1.0119E+3    0.69232
  1.0119E+3    0.63565
  1.0119E+3    0.65565
  1.0137E+3    0.53565
  1.0137E+3    0.55898
  1.0137E+3    0.54898
  1.0138E+3    0.57232
  1.0157E+3    0.58565
  1.0157E+3    0.59898
  1.0157E+3    0.61231
  1.0157E+3    0.62565
  1.0157E+3    0.54231
  1.0158E+3    0.64565
  1.0158E+3    0.63565
  1.0196E+3    0.61564
  1.0196E+3    0.62897
  1.0197E+3    0.63897
  1.0197E+3    0.64897
  1.0197E+3     0.6623
  1.0197E+3    0.67564
  1.0197E+3     0.6923
  1.0197E+3    0.70564
  1.0197E+3    0.71897
  1.0197E+3    0.73564
  1.0197E+3    0.74897
  1.0197E+3     0.7623
  1.0198E+3    0.77897
  1.0198E+3    0.78897
  1.0198E+3     0.8023
  1.0198E+3    0.81564
  1.0198E+3    0.82564
  1.0198E+3     0.8423
  1.0198E+3     0.8523
  1.0198E+3    0.86897
  1.0198E+3     0.8823
  1.0216E+3     0.5923
  1.0216E+3    0.60563
  1.0216E+3     0.6423
  1.0216E+3    0.66563
  1.0216E+3    0.69897
  1.0216E+3     0.6823
  1.0217E+3     0.7923
  1.0217E+3    0.80897
  1.0217E+3    0.76897
  1.0217E+3    0.75563
  1.0217E+3     0.7423
  1.0217E+3    0.72563
  1.0217E+3     0.7123
  1.0217E+3     0.8323
  1.0217E+3     0.7823
  1.0218E+3     0.8623
  1.0218E+3    0.87563
  1.0218E+3     0.8923
  1.0218E+3    0.84897
  1.0235E+3    0.57896
  1.0235E+3    0.58563
  1.0254E+3    0.56896
  1.0254E+3    0.55562
  1.0254E+3    0.54229
  1.0254E+3    0.52896
  1.0254E+3    0.51562
  1.0254E+3    0.50229
  1.0254E+3    0.48896
  1.0274E+3    0.58562
  1.0274E+3    0.59895
  1.0274E+3    0.61229
  1.0274E+3    0.62562
  1.0274E+3    0.63895
  1.0275E+3    0.64895
  1.0275E+3    0.72562
  1.0275E+3    0.68562
  1.0275E+3    0.70562
  1.0275E+3    0.66895
  1.0293E+3    0.57562
  1.0294E+3    0.67895
  1.0294E+3    0.69562
  1.0294E+3    0.65895
  1.0295E+3    0.75228
  1.0295E+3    0.76562
  1.0295E+3    0.73895
  1.0295E+3    0.71562
  1.0295E+3    0.77895
  1.0295E+3    0.80562
  1.0295E+3    0.83228
  1.0295E+3    0.81895
  1.0295E+3    0.79228
  1.0296E+3    0.84562
  1.0296E+3    0.85895
  1.0312E+3    0.50895
  1.0313E+3    0.52561
  1.0313E+3    0.63561
  1.0313E+3    0.61894
  1.0313E+3    0.60561
  1.0313E+3    0.59228
  1.0313E+3    0.58228
  1.0313E+3    0.56561
  1.0313E+3    0.55228
  1.0313E+3    0.53895
  1.0314E+3    0.65561
  1.0314E+3    0.64561
  1.0332E+3    0.50561
  1.0352E+3     0.5256
  1.0352E+3     0.5156
  1.0352E+3    0.53894
  1.0371E+3    0.45893
  1.0371E+3    0.49893
  1.0371E+3     0.4856
  1.0371E+3    0.47227
  1.0390E+3    0.50226
  1.0390E+3    0.47893
  1.0390E+3    0.46559
  1.0390E+3    0.51226
  1.0391E+3    0.52226
  1.0391E+3    0.53559
  1.0429E+3    0.51225
  1.0430E+3    0.51892
  1.0430E+3    0.52892
  1.0430E+3    0.54225
  1.0449E+3    0.55225
  1.0449E+3    0.56891
  1.0450E+3    0.58558
  1.0468E+3    0.51224
  1.0469E+3    0.52224
  1.0469E+3    0.53558
  1.0469E+3    0.58224
  1.0469E+3    0.57224
  1.0469E+3    0.56224
  1.0488E+3    0.54557
  1.0488E+3    0.55891
  1.0507E+3     0.5089
  1.0508E+3    0.52224
  1.0508E+3    0.53224
  1.0508E+3    0.55224
  1.0527E+3    0.54223
  1.0527E+3    0.50556
  1.0547E+3    0.55556
  1.0547E+3    0.53556
  1.0547E+3    0.58223
  1.0547E+3    0.52223
  1.0547E+3    0.56889
  1.0566E+3    0.50556
  1.0566E+3    0.48889
  1.0566E+3    0.54556
  1.0585E+3    0.51555
  1.0585E+3    0.49555
  1.0586E+3    0.52888
  1.0605E+3    0.54555
  1.0605E+3    0.56555
  1.0605E+3    0.57555
  1.0605E+3    0.58888
  1.0605E+3    0.55555
  1.0606E+3    0.60555
  1.0606E+3    0.61888
  1.0606E+3    0.63555
  1.0606E+3    0.64888
  1.0606E+3    0.66221
  1.0606E+3    0.71888
  1.0606E+3    0.70555
  1.0606E+3    0.68888
  1.0606E+3    0.67555
  1.0607E+3    0.73221
  1.0607E+3    0.74555
  1.0607E+3    0.76221
  1.0607E+3    0.77888
  1.0607E+3    0.79221
  1.0607E+3    0.80888
  1.0607E+3    0.82221
  1.0607E+3    0.83888
  1.0607E+3    0.85221
  1.0624E+3    0.51888
  1.0625E+3    0.52888
  1.0625E+3    0.54221
  1.0625E+3    0.58221
  1.0625E+3    0.59888
  1.0625E+3    0.60888
  1.0625E+3    0.62554
  1.0625E+3    0.63888
  1.0625E+3    0.65554
  1.0626E+3    0.69554
  1.0626E+3    0.67888
  1.0626E+3    0.66554
  1.0626E+3    0.71221
  1.0626E+3    0.72221
  1.0626E+3    0.73554
  1.0626E+3    0.75221
  1.0626E+3    0.76888
  1.0626E+3    0.78554
  1.0627E+3    0.79888
  1.0627E+3    0.81554
  1.0627E+3    0.82888
  1.0627E+3    0.84554
  1.0644E+3    0.49887
  1.0644E+3    0.48554
  1.0644E+3    0.50887
  1.0663E+3     0.4822
  1.0683E+3     0.4922
  1.0683E+3    0.50553
  1.0683E+3    0.51553
  1.0702E+3    0.52553
  1.0703E+3    0.55219
  1.0703E+3    0.53886
  1.0722E+3    0.56219
  1.0741E+3    0.46552
  1.0741E+3    0.47885
  1.0741E+3    0.49218
  1.0741E+3    0.50552
  1.0741E+3    0.51885
  1.0742E+3    0.54552
  1.0742E+3    0.55552
  1.0742E+3    0.57218
  1.0742E+3    0.53218
  1.0780E+3    0.47218
  1.0780E+3    0.48551
  1.0780E+3    0.45884
  1.0800E+3     0.4955
  1.0800E+3    0.50884
  1.0800E+3     0.5255
  1.0800E+3    0.53884
  1.0800E+3     0.5555
  1.0800E+3    0.56884
  1.0800E+3    0.58217
  1.0820E+3    0.57217
  1.0839E+3    0.56216
  1.0839E+3     0.5455
  1.0839E+3    0.53216
  1.0839E+3     0.5155
  1.0839E+3    0.50216
  1.0839E+3    0.48883
  1.0839E+3    0.47216
  1.0858E+3    0.48216
  1.0858E+3    0.49883
  1.0858E+3    0.53882
  1.0858E+3    0.52216
  1.0878E+3    0.50549
  1.0897E+3    0.53215
  1.0897E+3    0.51882
  1.0917E+3    0.54548
  1.0917E+3    0.49881
  1.0936E+3    0.51214
  1.0936E+3    0.53547
  1.0936E+3    0.52547
  1.0955E+3    0.47214
  1.0956E+3    0.50214
  1.0956E+3    0.48547
  1.0956E+3    0.55547
  1.0975E+3    0.52213
  1.0975E+3    0.49547
  1.0975E+3     0.4788
  1.0975E+3    0.46213
  1.0976E+3    0.54547
  1.0995E+3    0.57879
  1.0995E+3    0.59213
  1.0995E+3    0.60546
  1.0995E+3    0.56213
  1.0996E+3    0.62213
  1.0996E+3    0.63546
  1.0996E+3    0.65213
  1.0996E+3    0.66879
  1.0996E+3    0.68546
  1.0996E+3    0.70213
  1.0996E+3    0.71879
  1.0996E+3    0.73213
  1.0997E+3    0.74546
  1.1015E+3    0.65879
  1.1015E+3    0.67212
  1.1016E+3    0.77212
  1.1016E+3    0.70879
  1.1016E+3    0.72212
  1.1016E+3    0.73546
  1.1016E+3    0.74879
  1.1016E+3    0.75879
  1.1016E+3    0.79879
  1.1016E+3    0.78546
  1.1016E+3    0.69212
  1.1017E+3    0.82546
  1.1017E+3    0.83879
  1.1017E+3    0.85212
  1.1017E+3    0.86546
  1.1017E+3    0.81212
  1.1017E+3    0.87879
  1.1017E+3    0.89212
  1.1017E+3    0.90546
  1.1034E+3    0.58212
  1.1034E+3    0.60212
  1.1034E+3    0.58879
  1.1035E+3    0.61545
  1.1035E+3    0.65212
  1.1035E+3    0.62879
  1.1035E+3    0.64212
  1.1054E+3    0.57212
  1.1054E+3    0.55878
  1.1054E+3    0.58545
  1.1073E+3    0.54878
  1.1073E+3    0.53544
  1.1073E+3    0.52544
  1.1073E+3    0.51544
  1.1073E+3    0.50544
  1.1092E+3    0.50211
  1.1112E+3    0.52544
  1.1112E+3    0.53877
  1.1112E+3    0.55544
  1.1112E+3    0.56877
  1.1112E+3    0.57877
  1.1112E+3     0.5121
  1.1131E+3    0.54876
  1.1132E+3    0.58543
  1.1132E+3    0.57543
  1.1151E+3    0.51876
  1.1151E+3    0.50543
  1.1151E+3    0.53209
  1.1170E+3    0.53876
  1.1189E+3    0.47209
  1.1189E+3    0.48542
  1.1190E+3    0.52542
  1.1190E+3    0.49875
  1.1190E+3    0.51209
  1.1209E+3    0.53208
  1.1229E+3    0.55874
  1.1229E+3    0.54208
  1.1248E+3    0.52207
  1.1248E+3    0.50874
  1.1248E+3    0.49541
  1.1248E+3    0.53207
  1.1268E+3     0.5054
  1.1268E+3    0.52873
  1.1268E+3    0.55207
  1.1268E+3    0.56873
  1.1268E+3     0.5854
  1.1268E+3    0.60207
  1.1268E+3    0.61873
  1.1269E+3    0.64873
  1.1269E+3     0.6654
  1.1269E+3     0.6754
  1.1269E+3     0.6354
  1.1288E+3     0.6854
  1.1308E+3    0.64206
  1.1308E+3    0.65539
  1.1308E+3    0.67539
  1.1308E+3    0.71539
  1.1308E+3    0.72873
  1.1308E+3    0.74206
  1.1308E+3    0.70206
  1.1308E+3    0.75539
  1.1309E+3    0.80873
  1.1309E+3    0.79539
  1.1309E+3    0.78206
  1.1309E+3    0.76873
  1.1309E+3    0.82206
  1.1309E+3    0.84873
  1.1309E+3    0.86206
  1.1309E+3    0.87539
  1.1309E+3    0.83539
  1.1327E+3    0.66539
  1.1346E+3    0.62538
  1.1346E+3    0.60205
  1.1346E+3    0.61205
  1.1347E+3    0.69538
  1.1347E+3    0.63538
  1.1347E+3    0.64872
  1.1347E+3    0.68205
  1.1347E+3    0.76205
  1.1347E+3    0.74872
  1.1347E+3    0.73538
  1.1347E+3    0.72205
  1.1347E+3    0.70872
  1.1348E+3    0.82872
  1.1348E+3    0.77538
  1.1348E+3    0.87872
  1.1348E+3    0.86872
  1.1348E+3    0.89205
  1.1348E+3    0.78872
  1.1348E+3    0.84205
  1.1348E+3    0.80205
  1.1348E+3    0.85538
  1.1348E+3    0.81538
  1.1349E+3    0.90538
  1.1366E+3    0.58538
  1.1366E+3    0.59538
  1.1384E+3    0.49538
  1.1385E+3    0.57538
  1.1385E+3    0.53204
  1.1385E+3    0.51871
  1.1385E+3    0.50871
  1.1385E+3    0.54871
  1.1385E+3    0.56204
  1.1404E+3    0.53537
  1.1404E+3    0.51204
  1.1424E+3    0.55203
  1.1443E+3    0.54203
  1.1443E+3     0.5287
  1.1443E+3    0.51536
  1.1443E+3    0.50536
  1.1443E+3    0.49203
  1.1443E+3    0.47536
  1.1462E+3    0.49869
  1.1462E+3    0.48536
  1.1463E+3    0.55203
  1.1482E+3    0.53202
  1.1482E+3    0.52202
  1.1482E+3    0.51202
  1.1482E+3    0.56535
  1.1483E+3    0.57869
  1.1483E+3    0.59535
  1.1483E+3    0.60869
  1.1483E+3    0.61869
  1.1483E+3    0.62869
  1.1502E+3    0.54202
  1.1502E+3    0.55535
  1.1521E+3    0.56868
  1.1522E+3    0.57868
  1.1522E+3    0.58868
  1.1522E+3    0.60201
  1.1522E+3    0.63201
  1.1522E+3    0.61535
  1.1522E+3    0.63868
  1.1522E+3    0.65868
  1.1522E+3    0.67535
  1.1522E+3    0.69534
  1.1523E+3    0.71534
  1.1541E+3    0.54867
  1.1541E+3    0.62534
  1.1541E+3    0.56201
  1.1541E+3    0.53534
  1.1541E+3    0.51534
  1.1542E+3    0.73534
  1.1542E+3    0.68534
  1.1542E+3    0.74867
  1.1542E+3    0.66867
  1.1542E+3    0.76201
  1.1542E+3    0.72201
  1.1542E+3    0.64867
  1.1542E+3    0.70534
  1.1543E+3    0.78867
  1.1543E+3    0.82867
  1.1543E+3    0.88201
  1.1543E+3    0.77534
  1.1543E+3    0.86867
  1.1543E+3    0.80201
  1.1543E+3    0.81534
  1.1543E+3    0.84201
  1.1560E+3    0.52534
  1.1560E+3      0.492
  1.1560E+3    0.50534
  1.1560E+3    0.45534
  1.1560E+3    0.46534
  1.1560E+3    0.47867
  1.1561E+3    0.59534
  1.1561E+3    0.57534
  1.1561E+3    0.61534
  1.1561E+3    0.69534
  1.1563E+3    0.85534
  1.1563E+3    0.84867
  1.1579E+3      0.462
  1.1599E+3    0.49533
  1.1618E+3    0.50532
  1.1619E+3    0.51532
  1.1619E+3    0.52532
  1.1619E+3    0.53532
  1.1619E+3    0.54866
  1.1619E+3    0.56532
  1.1619E+3    0.57866
  1.1619E+3    0.59199
  1.1619E+3    0.60866
  1.1619E+3    0.62532
  1.1619E+3    0.64199
  1.1620E+3    0.65532
  1.1639E+3    0.64865
  1.1639E+3    0.63199
  1.1639E+3    0.61532
  1.1639E+3    0.66532
  1.1658E+3    0.60198
  1.1658E+3    0.58865
  1.1658E+3    0.57532
  1.1658E+3    0.56198
  1.1658E+3    0.55198
  1.1658E+3    0.54198
  1.1677E+3    0.52864
  1.1697E+3    0.53531
  1.1716E+3    0.52197
  1.1736E+3    0.53863
  1.1736E+3    0.55196
  1.1736E+3     0.5653
  1.1736E+3    0.58196
  1.1755E+3    0.52529
  1.1775E+3    0.57862
  1.1775E+3    0.56862
  1.1775E+3    0.55862
  1.1775E+3    0.54862
  1.1775E+3    0.53529
  1.1795E+3    0.59195
  1.1795E+3    0.61195
  1.1795E+3    0.62529
  1.1795E+3    0.63862
  1.1795E+3    0.65195
  1.1795E+3    0.66528
  1.1795E+3    0.67862
  1.1795E+3    0.69528
  1.1795E+3    0.71195
  1.1796E+3    0.77528
  1.1796E+3    0.76195
  1.1796E+3    0.74528
  1.1796E+3    0.72862
  1.1796E+3    0.78862
  1.1796E+3    0.80528
  1.1796E+3    0.82195
  1.1796E+3    0.83528
  1.1796E+3    0.85195
  1.1797E+3    0.86862
  1.1815E+3    0.71861
  1.1815E+3    0.70195
  1.1815E+3    0.73528
  1.1815E+3    0.75195
  1.1815E+3    0.76528
  1.1815E+3    0.77861
  1.1816E+3    0.81195
  1.1816E+3    0.82528
  1.1816E+3    0.85861
  1.1816E+3    0.84528
  1.1816E+3    0.79861
  1.1833E+3    0.57528
  1.1833E+3    0.58528
  1.1833E+3    0.56194
  1.1834E+3    0.66861
  1.1834E+3    0.64528
  1.1834E+3    0.63194
  1.1834E+3    0.61861
  1.1834E+3    0.60528
  1.1834E+3    0.59528
  1.1834E+3    0.67861
  1.1834E+3    0.68861
  1.1834E+3    0.65861
  1.1872E+3    0.57527
  1.1872E+3    0.53527
  1.1872E+3     0.5486
  1.1872E+3    0.56193
  1.1872E+3     0.5886
  1.1891E+3    0.52193
  1.1892E+3    0.58193
  1.1911E+3    0.55859
  1.1911E+3    0.56859
  1.1911E+3    0.54193
  1.1911E+3    0.52526
  1.1912E+3    0.61526
  1.1912E+3    0.60526
  1.1912E+3    0.59526
  1.1931E+3    0.54859
  1.1931E+3    0.59859
  1.1931E+3    0.57859
  1.1931E+3    0.53192
  1.1969E+3    0.52858
  1.1969E+3    0.51525
  1.1969E+3    0.49858
  1.1969E+3    0.48525
  1.1969E+3    0.46858
  1.1989E+3    0.49191
  1.1989E+3    0.50524
  1.1989E+3    0.53858
  1.1989E+3    0.47524
  1.2008E+3     0.5219
  1.2008E+3     0.5119
  1.2028E+3    0.53523
  1.2047E+3    0.51523
  1.2047E+3    0.52523
  1.2086E+3    0.52189
  1.2105E+3    0.44522
  1.2105E+3    0.45855
  1.2105E+3    0.43188
  1.2106E+3    0.47188
  1.2106E+3    0.48522
  1.2106E+3    0.49855
  1.2106E+3    0.51188
  1.2125E+3    0.42855
  1.2144E+3    0.43854
  1.2144E+3    0.45188
  1.2144E+3    0.46521
  1.2145E+3    0.47854
  1.2145E+3    0.49187
  1.2145E+3    0.50521
  1.2145E+3    0.52187
  1.2145E+3    0.53854
  1.2145E+3    0.55187
  1.2145E+3    0.56521
  1.2145E+3    0.58187
  1.2145E+3    0.59854
  1.2146E+3    0.62521
  1.2146E+3    0.61187
  1.2165E+3    0.60187
  1.2165E+3    0.58854
  1.2165E+3    0.57187
  1.2165E+3     0.5552
  1.2165E+3     0.6152
  1.2184E+3    0.54853
  1.2203E+3    0.54186
  1.2203E+3    0.50186
  1.2203E+3    0.52853
  1.2203E+3     0.5152
  1.2223E+3    0.50852
  1.2223E+3    0.53519
  1.2242E+3    0.52519
  1.2243E+3    0.54852
  1.2262E+3    0.51518
  1.2262E+3    0.53518
  1.2281E+3    0.52518
  1.2281E+3    0.50184
  1.2300E+3    0.47184
  1.2301E+3    0.48851
  1.2320E+3    0.50517
  1.2339E+3     0.4785
  1.2339E+3     0.4585
  1.2340E+3    0.51517
  1.2340E+3    0.52517
  1.2340E+3    0.49183
  1.2359E+3    0.46849
  1.2359E+3    0.50183
  1.2378E+3    0.46182
  1.2379E+3    0.61516
  1.2379E+3    0.60182
  1.2379E+3    0.48849
  1.2379E+3    0.52182
  1.2379E+3    0.53516
  1.2379E+3    0.55182
  1.2379E+3    0.56849
  1.2379E+3    0.58516
  1.2380E+3    0.62516
  1.2398E+3    0.51182
  1.2398E+3    0.47849
  1.2417E+3    0.45848
  1.2418E+3    0.53181
  1.2418E+3    0.49181
  1.2437E+3    0.52181
  1.2456E+3    0.45847
  1.2456E+3    0.47181
  1.2456E+3    0.48181
  1.2457E+3    0.52847
  1.2457E+3    0.49514
  1.2457E+3    0.51181
  1.2476E+3    0.50514
  1.2476E+3    0.53847
  1.2476E+3    0.51847
  1.2476E+3    0.47514
  1.2476E+3     0.5518
  1.2495E+3    0.48513
  1.2496E+3     0.6218
  1.2496E+3    0.49513
  1.2496E+3    0.60846
  1.2496E+3    0.56513
  1.2496E+3    0.57846
  1.2496E+3    0.59513
  1.2497E+3    0.63513
  1.2515E+3    0.53179
  1.2515E+3    0.51179
  1.2515E+3    0.52179
  1.2515E+3    0.54513
  1.2515E+3    0.55513
  1.2516E+3    0.62513
  1.2516E+3    0.57179
  1.2516E+3    0.58513
  1.2516E+3    0.61179
  1.2535E+3    0.50512
  1.2535E+3    0.59846
  1.2554E+3    0.54845
  1.2554E+3    0.53512
  1.2554E+3    0.56178
  1.2554E+3    0.49178
  1.2554E+3    0.52512
  1.2554E+3    0.51512
  1.2555E+3    0.57512
  1.2573E+3    0.48178
  1.2573E+3    0.46178
  1.2574E+3    0.50845
  1.2574E+3    0.49845
  1.2593E+3    0.48844
  1.2593E+3    0.47178
  1.2593E+3    0.52511
  1.2613E+3    0.51511
  1.2613E+3    0.50177
  1.2613E+3     0.5351
  1.2613E+3    0.55177
  1.2613E+3     0.5651
  1.2613E+3    0.58177
  1.2632E+3    0.54177
  1.2633E+3    0.57177
  1.2652E+3    0.55843
  1.2671E+3    0.53843
  1.2671E+3    0.55176
  1.2691E+3    0.53509
  1.2691E+3    0.52175
  1.2691E+3    0.51175
  1.2710E+3    0.48508
  1.2710E+3    0.47175
  1.2710E+3    0.45842
  1.2710E+3    0.49842
  1.2729E+3    0.46508
  1.2729E+3    0.49175
  1.2730E+3    0.53508
  1.2730E+3    0.51841
  1.2730E+3    0.56508
  1.2730E+3    0.55175
  1.2730E+3    0.57508
  1.2749E+3    0.50507
  1.2769E+3    0.51174
  1.2769E+3    0.52507
  1.2769E+3    0.54507
  1.2769E+3    0.58507
  1.2769E+3    0.56507
  1.2788E+3     0.5584
  1.2788E+3    0.55173
  1.2789E+3    0.57507
  1.2827E+3    0.55172
  1.2827E+3    0.53839
  1.2847E+3    0.56172
  1.2847E+3    0.57839
  1.2847E+3    0.59505
  1.2847E+3    0.61172
  1.2847E+3    0.62505
  1.2847E+3    0.64172
  1.2848E+3    0.65505
  1.2866E+3    0.56838
  1.2867E+3    0.68172
  1.2867E+3    0.69505
  1.2867E+3    0.66838
  1.2868E+3    0.71172
  1.2868E+3    0.75838
  1.2868E+3    0.77505
  1.2868E+3    0.72838
  1.2868E+3    0.74505
  1.2868E+3    0.78838
  1.2886E+3    0.59504
  1.2886E+3    0.57504
  1.2886E+3    0.58504
  1.2886E+3    0.60504
  1.2886E+3    0.61504
  1.2886E+3    0.62838
  1.2886E+3    0.63838
  1.2887E+3    0.66171
  1.2887E+3    0.64838
  1.2888E+3    0.77838
  1.2905E+3    0.55171
  1.2905E+3    0.51837
  1.2905E+3    0.48504
  1.2905E+3    0.46837
  1.2905E+3    0.50171
  1.2905E+3    0.53504
  1.2905E+3    0.56837
  1.2905E+3    0.45171
  1.2906E+3    0.70837
  1.2906E+3    0.69504
  1.2907E+3    0.74171
  1.2907E+3    0.75504
  1.2907E+3    0.72171
  1.2907E+3    0.76837
  1.2944E+3    0.47503
  1.2944E+3    0.48837
  1.2944E+3    0.49837
  1.2944E+3     0.5117
  1.2944E+3    0.52503
  1.2944E+3    0.45837
  1.2963E+3    0.46503
  1.2964E+3    0.52836
  1.2964E+3    0.54169
  1.2983E+3    0.50169
  1.2983E+3    0.49169
  1.2983E+3    0.47836
  1.2983E+3    0.51502
  1.2983E+3    0.52502
  1.3022E+3    0.46501
  1.3022E+3    0.47502
  1.3041E+3    0.50501
  1.3041E+3    0.48834
  1.3042E+3    0.52168
  1.3061E+3    0.55167
  1.3061E+3    0.53501
  1.3061E+3    0.47167
  1.3061E+3    0.49834
  1.3080E+3    0.43167
  1.3080E+3      0.485
  1.3080E+3      0.415
  1.3080E+3    0.51834
  1.3080E+3    0.46167
  1.3080E+3      0.445
  1.3080E+3    0.50834
  1.3081E+3      0.555
  1.3081E+3    0.54167
  1.3119E+3    0.41833
  1.3119E+3    0.45166
  1.3119E+3    0.46833
  1.3119E+3    0.48166
  1.3119E+3    0.43833
  1.3119E+3    0.42833
  1.3119E+3    0.49499
  1.3119E+3    0.51166
  1.3120E+3    0.54499
  1.3120E+3    0.56166
  1.3120E+3    0.57499
  1.3120E+3    0.58833
  1.3120E+3    0.52833
  1.3139E+3    0.58166
  1.3158E+3    0.49165
  1.3158E+3    0.50498
  1.3158E+3    0.51832
  1.3159E+3    0.54165
  1.3159E+3    0.55498
  1.3159E+3    0.56832
  1.3159E+3    0.53165
  1.3178E+3    0.55831
  1.3178E+3    0.50831
  1.3198E+3    0.57831
  1.3198E+3    0.59498
  1.3198E+3    0.61164
  1.3198E+3    0.62831
  1.3198E+3    0.64831
  1.3199E+3    0.67164
  1.3218E+3    0.61497
  1.3218E+3    0.66164
  1.3236E+3    0.49163
  1.3236E+3     0.5083
  1.3236E+3    0.52497
  1.3237E+3     0.5583
  1.3237E+3    0.54163
  1.3237E+3     0.5883
  1.3237E+3    0.60497
  1.3237E+3    0.62497
  1.3237E+3    0.57163
  1.3255E+3     0.4583
  1.3255E+3     0.4383
  1.3256E+3    0.47496
  1.3275E+3    0.46829
  1.3275E+3    0.48829
  1.3275E+3    0.51496
  1.3275E+3    0.49829
  1.3275E+3    0.52829
  1.3275E+3    0.44829
  1.3276E+3    0.53829
  1.3314E+3    0.48828
  1.3314E+3    0.52162
  1.3314E+3    0.53495
  1.3314E+3    0.50495
  1.3315E+3    0.54828
  1.3315E+3    0.56495
  1.3315E+3    0.58828
  1.3315E+3    0.60162
  1.3315E+3    0.57495
  1.3335E+3    0.61495
  1.3354E+3    0.57828
  1.3354E+3    0.62827
  1.3354E+3    0.59494
  1.3354E+3    0.64161
  1.3354E+3    0.65827
  1.3354E+3    0.60494
  1.3355E+3    0.67827
  1.3355E+3    0.73827
  1.3355E+3    0.75494
  1.3355E+3    0.77161
  1.3355E+3    0.79161
  1.3355E+3    0.69827
  1.3355E+3    0.71827
  1.3356E+3    0.80827
  1.3374E+3    0.70494
  1.3374E+3    0.68494
  1.3374E+3    0.66827
  1.3374E+3    0.61827
  1.3374E+3    0.72494
  1.3375E+3     0.7416
  1.3375E+3    0.77827
  1.3375E+3    0.79827
  1.3375E+3    0.75827
  1.3393E+3    0.65493
  1.3393E+3    0.63493
  1.3393E+3    0.64493
  1.3393E+3     0.5416
  1.3393E+3    0.55827
  1.3393E+3    0.57493
  1.3393E+3     0.5916
  1.3393E+3    0.60827
  1.3412E+3    0.56826
  1.3412E+3    0.58493
  1.3412E+3     0.6016
  1.3412E+3     0.5516
  1.3413E+3    0.62493
  1.3432E+3    0.61492
  1.3432E+3    0.66159
  1.3432E+3    0.64159
  1.3433E+3    0.67826
  1.3433E+3    0.69826
  1.3433E+3    0.71492
  1.3433E+3    0.73492
  1.3452E+3    0.74159
  1.3452E+3    0.72492
  1.3453E+3    0.75159
  1.3471E+3    0.60825
  1.3471E+3    0.57825
  1.3471E+3    0.59492
  1.3471E+3    0.61825
  1.3471E+3    0.67158
  1.3471E+3    0.65492
  1.3471E+3    0.64492
  1.3471E+3    0.63158
  1.3472E+3    0.70158
  1.3472E+3    0.71158
  1.3472E+3    0.68825
  1.3490E+3    0.58824
  1.3490E+3    0.56824
  1.3490E+3    0.55491
  1.3490E+3    0.54158
  1.3509E+3    0.53157
  1.3510E+3    0.55157
  1.3529E+3    0.51824
  1.3529E+3    0.49824
  1.3548E+3     0.5349
  1.3548E+3    0.50823
  1.3568E+3    0.54489
  1.3568E+3    0.56156
  1.3568E+3    0.57489
  1.3568E+3    0.58823
  1.3568E+3    0.52156
  1.3588E+3    0.60156
  1.3588E+3    0.61822
  1.3588E+3    0.67489
  1.3588E+3    0.64156
  1.3588E+3    0.65822
  1.3589E+3    0.69156
  1.3589E+3    0.70822
  1.3589E+3    0.72489
  1.3589E+3    0.74489
  1.3607E+3    0.58822
  1.3608E+3    0.63155
  1.3609E+3    0.83489
  1.3609E+3    0.79155
  1.3609E+3    0.77155
  1.3609E+3    0.84822
  1.3609E+3    0.81155
  1.3609E+3    0.75489
  1.3626E+3    0.51488
  1.3626E+3    0.54488
  1.3626E+3    0.50155
  1.3626E+3    0.52822
  1.3627E+3    0.62155
  1.3627E+3    0.56155
  1.3627E+3    0.68155
  1.3627E+3    0.66821
  1.3627E+3    0.65488
  1.3627E+3    0.57821
  1.3627E+3    0.59488
  1.3627E+3    0.64155
  1.3627E+3    0.60821
  1.3628E+3    0.73488
  1.3628E+3    0.72155
  1.3628E+3    0.69821
  1.3628E+3    0.76155
  1.3628E+3    0.71155
  1.3628E+3    0.80155
  1.3628E+3    0.78155
  1.3629E+3    0.82488
  1.3645E+3    0.48154
  1.3645E+3    0.47154
  1.3646E+3    0.49154
  1.3665E+3    0.48487
  1.3685E+3     0.5082
  1.3685E+3    0.49487
  1.3704E+3    0.53153
  1.3704E+3     0.5182
  1.3723E+3    0.45153
  1.3723E+3    0.47153
  1.3723E+3    0.48819
  1.3724E+3    0.54153
  1.3724E+3    0.50153
  1.3743E+3    0.52819
  1.3743E+3    0.46486
  1.3743E+3    0.51486
  1.3762E+3    0.45485
  1.3762E+3    0.47485
  1.3762E+3    0.44152
  1.3782E+3    0.48485
  1.3802E+3    0.49818
  1.3802E+3    0.51151
  1.3802E+3    0.52818
  1.3821E+3    0.48484
  1.3840E+3    0.48817
  1.3841E+3    0.50817
  1.3841E+3     0.5215
  1.3841E+3    0.53483
  1.3860E+3    0.49483
  1.3880E+3    0.51483
  1.3880E+3    0.52816
  1.3880E+3    0.54483
  1.3880E+3    0.55816
  1.3880E+3    0.50483
  1.3919E+3    0.57482
  1.3919E+3    0.59148
  1.3919E+3    0.60815
  1.3919E+3    0.55815
  1.3919E+3    0.62482
  1.3920E+3    0.67815
  1.3920E+3    0.69482
  1.3920E+3    0.64148
  1.3920E+3    0.66148
  1.3938E+3    0.54815
  1.3938E+3    0.53481
  1.3938E+3    0.52148
  1.3938E+3    0.56815
  1.3939E+3    0.60148
  1.3939E+3    0.58481
  1.3939E+3    0.61815
  1.3939E+3    0.63481
  1.3939E+3    0.65148
  1.3939E+3    0.67148
  1.3939E+3    0.68815
  1.3977E+3     0.5448
  1.3977E+3    0.52814
  1.3997E+3    0.55813
  1.3997E+3     0.5748
  1.3997E+3     0.5948
  1.3997E+3     0.6348
  1.3997E+3     0.6148
  1.3998E+3    0.70147
  1.3998E+3     0.6848
  1.3998E+3    0.66813
  1.3998E+3    0.65147
  1.3998E+3    0.75147
  1.3998E+3    0.71813
  1.3998E+3     0.7348
  1.3999E+3    0.77147
  1.4016E+3    0.56813
  1.4017E+3    0.64146
  1.4018E+3    0.72813
  1.4018E+3     0.7448
  1.4018E+3     0.7648
  1.4036E+3    0.58146
  1.4036E+3    0.55479
  1.4036E+3    0.60479
  1.4036E+3    0.59146
  1.4036E+3    0.61812
  1.4036E+3    0.63146
  1.4037E+3    0.64812
  1.4037E+3    0.71146
  1.4037E+3    0.66146
  1.4037E+3    0.67479
  1.4037E+3    0.72146
  1.4037E+3    0.68812
  1.4037E+3    0.69812
  1.4055E+3    0.57145
  1.4075E+3    0.62478
  1.4075E+3    0.60812
  1.4075E+3    0.59478
  1.4076E+3    0.64145
  1.4076E+3    0.65478
  1.4076E+3    0.67145
  1.4076E+3    0.68812
  1.4076E+3    0.70478
  1.4076E+3    0.75478
  1.4076E+3    0.73812
  1.4076E+3    0.72145
  1.4077E+3    0.79145
  1.4077E+3    0.77478
  1.4096E+3    0.82144
  1.4096E+3    0.80478
  1.4114E+3    0.62144
  1.4114E+3    0.60477
  1.4115E+3    0.70144
  1.4115E+3    0.64477
  1.4115E+3    0.76477
  1.4115E+3    0.65811
  1.4115E+3    0.73144
  1.4115E+3    0.71477
  1.4115E+3    0.74811
  1.4115E+3    0.68477
  1.4115E+3    0.67477
  1.4116E+3    0.78144
  1.4116E+3    0.79477
  1.4116E+3    0.81477
  1.4133E+3     0.5681
  1.4134E+3    0.59477
  1.4134E+3    0.58144
  1.4152E+3    0.51143
  1.4153E+3    0.52477
  1.4153E+3     0.5381
  1.4153E+3    0.55477
  1.4172E+3    0.54476
  1.4172E+3    0.51809
  1.4192E+3    0.55476
  1.4211E+3    0.53809
  1.4211E+3    0.54809
  1.4211E+3    0.56809
  1.4212E+3    0.69142
  1.4212E+3    0.58475
  1.4212E+3    0.66809
  1.4212E+3    0.65142
  1.4212E+3    0.63475
  1.4212E+3    0.61809
  1.4212E+3    0.60142
  1.4231E+3    0.55808
  1.4231E+3    0.57475
  1.4231E+3    0.59141
  1.4231E+3    0.64141
  1.4231E+3    0.62475
  1.4231E+3    0.60808
  1.4232E+3    0.66141
  1.4232E+3    0.68141
  1.4232E+3    0.70475
  1.4232E+3    0.71808
  1.4232E+3    0.73141
  1.4250E+3    0.53474
  1.4269E+3    0.51141
  1.4269E+3    0.49141
  1.4270E+3    0.52474
  1.4289E+3    0.53807
  1.4289E+3     0.5014
  1.4308E+3     0.5214
  1.4308E+3    0.47806
  1.4308E+3    0.50806
  1.4328E+3    0.48806
  1.4328E+3    0.49806
  1.4347E+3    0.50806
  1.4348E+3    0.52806
  1.4348E+3    0.54472
  1.4348E+3    0.56139
  1.4348E+3    0.57806
  1.4367E+3    0.51805
  1.4387E+3    0.55471
  1.4387E+3    0.54138
  1.4387E+3    0.56805
  1.4387E+3    0.58138
  1.4387E+3    0.53138
  1.4405E+3    0.44471
  1.4406E+3    0.49804
  1.4406E+3    0.48471
  1.4406E+3    0.46471
  1.4406E+3    0.51138
  1.4406E+3    0.52471
  1.4444E+3    0.44137
  1.4444E+3     0.4547
  1.4445E+3    0.46803
  1.4445E+3    0.48137
  1.4445E+3     0.4947
  1.4464E+3    0.52136
  1.4464E+3     0.5047
  1.4465E+3    0.53803
  1.4483E+3    0.45803
  1.4484E+3    0.48803
  1.4484E+3    0.47136
  1.4503E+3    0.50136
  1.4503E+3    0.51136
  1.4503E+3    0.52802
  1.4503E+3    0.49136
  1.4504E+3    0.54469
  1.4504E+3    0.55802
  1.4504E+3    0.57469
  1.4504E+3    0.58802
  1.4504E+3    0.60135
  1.4523E+3    0.59468
  1.4524E+3    0.60468
  1.4562E+3    0.58801
  1.4562E+3    0.57468
  1.4562E+3    0.56134
  1.4562E+3    0.54468
  1.4562E+3    0.52801
  1.4562E+3    0.51134
  1.4562E+3    0.49801
  1.4562E+3    0.48134
  1.4581E+3    0.50467
  1.4581E+3    0.52134
  1.4581E+3      0.488
  1.4600E+3      0.458
  1.4601E+3    0.47467
  1.4601E+3    0.49467
  1.4601E+3    0.54133
  1.4620E+3      0.508
  1.4620E+3      0.468
  1.4640E+3    0.51466
  1.4640E+3    0.54466
  1.4640E+3    0.55799
  1.4640E+3    0.57466
  1.4640E+3    0.59132
  1.4640E+3    0.52799
  1.4641E+3    0.60799
  1.4641E+3    0.62466
  1.4641E+3    0.64466
  1.4641E+3    0.66132
  1.4641E+3    0.67799
  1.4641E+3    0.69132
  1.4661E+3    0.74465
  1.4661E+3    0.73132
  1.4661E+3    0.71799
  1.4661E+3    0.70465
  1.4680E+3    0.66798
  1.4680E+3    0.69465
  1.4680E+3    0.72798
  1.4680E+3    0.68465
  1.4681E+3    0.74132
  1.4681E+3    0.75465
  1.4698E+3    0.53798
  1.4699E+3    0.55465
  1.4699E+3    0.56798
  1.4699E+3    0.63131
  1.4699E+3    0.58131
  1.4699E+3    0.61465
  1.4699E+3    0.59798
  1.4699E+3    0.64798
  1.4700E+3    0.67798
  1.4719E+3    0.66464
  1.4738E+3    0.65464
  1.4738E+3    0.67464
  1.4738E+3    0.57464
  1.4738E+3     0.5913
  1.4738E+3    0.60797
  1.4738E+3    0.63797
  1.4738E+3    0.62464
  1.4738E+3    0.56464
  1.4739E+3    0.68797
  1.4739E+3    0.70464
  1.4739E+3     0.7213
  1.4756E+3     0.4613
  1.4756E+3     0.4713
  1.4757E+3    0.52797
  1.4757E+3     0.5113
  1.4757E+3    0.49463
  1.4757E+3     0.4813
  1.4757E+3    0.54463
  1.4757E+3    0.55797
  1.4795E+3    0.44796
  1.4795E+3    0.43462
  1.4795E+3    0.42129
  1.4795E+3    0.40796
  1.4795E+3    0.46129
  1.4815E+3    0.41795
  1.4815E+3    0.43129
  1.4815E+3    0.44462
  1.4815E+3    0.45795
  1.4815E+3    0.47129
  1.4815E+3    0.48462
  1.4815E+3    0.50129
  1.4815E+3    0.51795
  1.4835E+3    0.52795
  1.4854E+3    0.52128
  1.4874E+3    0.52794
  1.4874E+3    0.53794
  1.4913E+3     0.5346
  1.4913E+3     0.5246
  1.4932E+3    0.53126
  1.4932E+3    0.51459
  1.4952E+3    0.55459
  1.4952E+3    0.56459
  1.4952E+3    0.54126
  1.4991E+3    0.52458
  1.4991E+3    0.53458
  1.4991E+3    0.54458
  1.4991E+3    0.55791
  1.4991E+3    0.56791
  1.4991E+3    0.58125
  1.4991E+3    0.59458
  1.4991E+3    0.61125
  1.4992E+3    0.64125
  1.4992E+3    0.62458
  1.4992E+3    0.67125
  1.4992E+3    0.65791
  1.5011E+3    0.68458
  1.5012E+3    0.70124
  1.5012E+3    0.71791
  1.5012E+3    0.78458
  1.5012E+3    0.76791
  1.5012E+3    0.75124
  1.5012E+3    0.73458
  1.5030E+3    0.51124
  1.5030E+3    0.53791
  1.5030E+3    0.55124
  1.5030E+3    0.56457
  1.5030E+3    0.50124
  1.5030E+3    0.57791
  1.5030E+3    0.62124
  1.5030E+3    0.60791
  1.5030E+3    0.59124
  1.5030E+3    0.52457
  1.5031E+3    0.72791
  1.5031E+3    0.74457
  1.5031E+3    0.65457
  1.5031E+3    0.71124
  1.5031E+3    0.66791
  1.5031E+3    0.67791
  1.5031E+3    0.69457
  1.5031E+3    0.63791
  1.5032E+3    0.76124
  1.5032E+3     0.7779
  1.5069E+3    0.51123
  1.5069E+3     0.5279
  1.5069E+3    0.54456
  1.5069E+3    0.56456
  1.5069E+3     0.4979
  1.5088E+3    0.55456
  1.5088E+3    0.53456
  1.5088E+3    0.51789
  1.5088E+3    0.50456
  1.5088E+3    0.48456
  1.5088E+3    0.46789
  1.5088E+3    0.45123
  1.5127E+3    0.47122
  1.5127E+3    0.48122
  1.5127E+3    0.45788
  1.5146E+3    0.49455
  1.5147E+3    0.56788
  1.5147E+3    0.51121
  1.5147E+3    0.52788
  1.5147E+3    0.54455
  1.5147E+3    0.55788
  1.5166E+3    0.48121
  1.5185E+3    0.48787
  1.5186E+3    0.51787
  1.5186E+3     0.5012
  1.5205E+3    0.50787
  1.5224E+3    0.49453
  1.5225E+3    0.51786
  1.5225E+3     0.5312
  1.5244E+3    0.53786
  1.5283E+3    0.55118
  1.5283E+3    0.56785
  1.5283E+3    0.54118
  1.5284E+3    0.58452
  1.5284E+3    0.59785
  1.5323E+3    0.58451
  1.5323E+3    0.59451
  1.5342E+3     0.5745
  1.5342E+3    0.55784
  1.5342E+3    0.54117
  1.5342E+3    0.52784
  1.5342E+3    0.51117
  1.5361E+3    0.56783
  1.5361E+3    0.51783
  1.5380E+3     0.4945
  1.5380E+3    0.50783
  1.5400E+3    0.53782
  1.5400E+3    0.55116
  1.5400E+3    0.50116
  1.5400E+3    0.56449
  1.5400E+3    0.52116
  1.5401E+3    0.58116
  1.5401E+3    0.59449
  1.5401E+3    0.65116
  1.5401E+3    0.67116
  1.5401E+3    0.61116
  1.5401E+3    0.70782
  1.5401E+3    0.68782
  1.5420E+3    0.60449
  1.5420E+3    0.62115
  1.5420E+3    0.64115
  1.5421E+3    0.66115
  1.5421E+3    0.67782
  1.5421E+3    0.72115
  1.5421E+3    0.69782
  1.5441E+3    0.74115
  1.5459E+3    0.60448
  1.5459E+3    0.61448
  1.5459E+3    0.62781
  1.5459E+3    0.64448
  1.5459E+3    0.58781
  1.5460E+3    0.69114
  1.5460E+3    0.70448
  1.5460E+3    0.71781
  1.5460E+3    0.73114
  1.5460E+3    0.66114
  1.5460E+3    0.67448
  1.5497E+3    0.51447
  1.5498E+3    0.58114
  1.5498E+3    0.56447
  1.5498E+3     0.5478
  1.5498E+3    0.53447
  1.5498E+3    0.59447
  1.5498E+3     0.6078
  1.5517E+3    0.52447
  1.5517E+3     0.5578
  1.5536E+3    0.51113
  1.5537E+3    0.53113
  1.5537E+3    0.54113
  1.5537E+3    0.55113
  1.5556E+3    0.48779
  1.5556E+3    0.47446
  1.5556E+3    0.46112
  1.5556E+3    0.50112
  1.5595E+3    0.48111
  1.5595E+3    0.49445
  1.5595E+3    0.47111
  1.5633E+3    0.44444
  1.5634E+3    0.46111
  1.5634E+3    0.47777
  1.5634E+3    0.49444
  1.5653E+3    0.51777
  1.5653E+3    0.48777
  1.5653E+3     0.4711
  1.5653E+3    0.50444
  1.5654E+3    0.57777
  1.5654E+3    0.56443
  1.5654E+3     0.5511
  1.5654E+3    0.53443
  1.5673E+3    0.52443
  1.5673E+3     0.5411
  1.5673E+3    0.50776
  1.5692E+3    0.48443
  1.5692E+3    0.49443
  1.5692E+3    0.47109
  1.5712E+3    0.53442
  1.5712E+3    0.52109
  1.5712E+3    0.50442
  1.5731E+3    0.48775
  1.5731E+3    0.47442
  1.5731E+3    0.51775
  1.5732E+3    0.54775
  1.5732E+3    0.53108
  1.5751E+3    0.49775
  1.5751E+3    0.51108
  1.5751E+3    0.48108
  1.5771E+3    0.53108
  1.5790E+3    0.54107
  1.5790E+3    0.55774
  1.5790E+3     0.5744
  1.5790E+3     0.5944
  1.5809E+3    0.50107
  1.5809E+3     0.5144
  1.5809E+3    0.52773
  1.5809E+3    0.48773
  1.5810E+3    0.55107
  1.5810E+3    0.56773
  1.5810E+3     0.5844
  1.5848E+3    0.51773
  1.5848E+3    0.53439
  1.5849E+3    0.56439
  1.5849E+3    0.58106
  1.5849E+3    0.59773
  1.5849E+3    0.61439
  1.5849E+3    0.55106
  1.5869E+3    0.62439
  1.5869E+3    0.64105
  1.5869E+3    0.65772
  1.5869E+3    0.67439
  1.5869E+3    0.69105
  1.5869E+3    0.70772
  1.5869E+3    0.72439
  1.5870E+3    0.73772
  1.5889E+3    0.71772
  1.5889E+3    0.68438
  1.5889E+3    0.72772
  1.5906E+3    0.45771
  1.5907E+3    0.55105
  1.5907E+3    0.49105
  1.5907E+3    0.50771
  1.5907E+3    0.52105
  1.5907E+3    0.53771
  1.5907E+3    0.59771
  1.5907E+3    0.58105
  1.5907E+3    0.56771
  1.5907E+3    0.47438
  1.5908E+3    0.62438
  1.5908E+3    0.63771
  1.5908E+3    0.65105
  1.5908E+3    0.61105
  1.5908E+3    0.66438
  1.5908E+3    0.67438
  1.5926E+3    0.45104
  1.5945E+3    0.46104
  1.5945E+3    0.47104
  1.5946E+3    0.49437
  1.5946E+3    0.50437
  1.5946E+3    0.52437
  1.5946E+3    0.48104
  1.5965E+3    0.51437
  1.5985E+3    0.51103
  1.5985E+3    0.53103
  1.5985E+3     0.4977
  1.6004E+3    0.53769
  1.6024E+3    0.55769
  1.6024E+3    0.57435
  1.6024E+3    0.59102
  1.6024E+3    0.60769
  1.6024E+3    0.54102
  1.6025E+3    0.64102
  1.6025E+3    0.62102
  1.6044E+3    0.63102
  1.6044E+3    0.61435
  1.6083E+3    0.62434
  1.6083E+3    0.63767
  1.6083E+3    0.64767
  1.6083E+3    0.61101
  1.6102E+3      0.501
  1.6102E+3    0.51434
  1.6102E+3      0.601
  1.6102E+3    0.58767
  1.6102E+3    0.57434
  1.6102E+3    0.55767
  1.6102E+3    0.54434
  1.6102E+3    0.52767
  1.6102E+3    0.48767
  1.6103E+3    0.63434
  1.6103E+3      0.621
  1.6121E+3    0.49767
  1.6121E+3      0.511
  1.6121E+3    0.52433
  1.6141E+3    0.54766
  1.6141E+3    0.56099
  1.6141E+3    0.53433
  1.6160E+3    0.48766
  1.6160E+3    0.47432
  1.6180E+3    0.50099
  1.6180E+3    0.49099
  1.6180E+3    0.53765
  1.6180E+3    0.51432
  1.6180E+3    0.52765
  1.6219E+3    0.50764
  1.6219E+3    0.52098
  1.6219E+3    0.53431
  1.6219E+3    0.55098
  1.6219E+3    0.49764
  1.6257E+3     0.4243
  1.6257E+3    0.43764
  1.6257E+3    0.45764
  1.6257E+3    0.47097
  1.6257E+3     0.4843
  1.6258E+3     0.5143
  1.6258E+3    0.52764
  1.6258E+3    0.54097
  1.6258E+3    0.50097
  1.6276E+3    0.42096
  1.6276E+3    0.41096
  1.6277E+3     0.4343
  1.6277E+3    0.45096
  1.6277E+3    0.46763
  1.6277E+3     0.4943
  1.6296E+3    0.48096
  1.6296E+3    0.46429
  1.6297E+3    0.50429
  1.6297E+3    0.51763
  1.6316E+3    0.45762
  1.6335E+3    0.45428
  1.6335E+3    0.44429
  1.6335E+3    0.47095
  1.6355E+3    0.47761
  1.6374E+3    0.47094
  1.6374E+3    0.48761
  1.6374E+3    0.44094
  1.6374E+3    0.45094
  1.6374E+3    0.46094
  1.6413E+3    0.46427
  1.6413E+3    0.45093
  1.6413E+3    0.44093
  1.6413E+3     0.4776
  1.6452E+3    0.42759
  1.6452E+3    0.43759
  1.6452E+3    0.45426
  1.6452E+3    0.46759
  1.6452E+3    0.48426
  1.6472E+3    0.49759
  1.6492E+3    0.50758
  1.6511E+3    0.53425
  1.6511E+3    0.54758
  1.6511E+3    0.56091
  1.6511E+3    0.52091
  1.6512E+3    0.57758
  1.6512E+3    0.59091
  1.6531E+3    0.62091
  1.6531E+3    0.63424
  1.6531E+3    0.60424
  1.6532E+3    0.65091
  1.6532E+3    0.66757
  1.6532E+3    0.68091
  1.6532E+3    0.69757
  1.6551E+3    0.67424
  1.6551E+3     0.6609
  1.6551E+3     0.6909
  1.6570E+3     0.5709
  1.6570E+3     0.6309
  1.6570E+3    0.61757
  1.6570E+3    0.60757
  1.6570E+3    0.59757
  1.6570E+3    0.58423
  1.6570E+3    0.55757
  1.6571E+3    0.64423
  1.6589E+3    0.54756
  1.6627E+3    0.43089
  1.6628E+3    0.55422
  1.6628E+3    0.54089
  1.6628E+3    0.52422
  1.6628E+3    0.51089
  1.6628E+3    0.49755
  1.6628E+3    0.48422
  1.6628E+3    0.47089
  1.6628E+3    0.45755
  1.6628E+3    0.44422
  1.6628E+3    0.56422
  1.6647E+3    0.44088
  1.6647E+3    0.45422
  1.6647E+3    0.46755
  1.6647E+3    0.48088
  1.6647E+3    0.49422
  1.6647E+3    0.42755
  1.6667E+3    0.50088
  1.6725E+3    0.50087
  1.6726E+3     0.5142
  1.6726E+3    0.52753
  1.6726E+3    0.54087
  1.6745E+3    0.52086
  1.6745E+3    0.53086
  1.6764E+3    0.50086
  1.6764E+3    0.51086
  1.6803E+3    0.51418
  1.6803E+3    0.50085
  1.6823E+3    0.53084
  1.6823E+3    0.55084
  1.6823E+3    0.56418
  1.6823E+3    0.57751
  1.6824E+3    0.59084
  1.6824E+3    0.60418
  1.6824E+3    0.62084
  1.6824E+3    0.63084
  1.6824E+3    0.64418
  1.6824E+3    0.66084
  1.6824E+3    0.67751
  1.6824E+3    0.69084
  1.6824E+3    0.70418
  1.6862E+3     0.4875
  1.6862E+3    0.50417
  1.6862E+3     0.5175
  1.6862E+3    0.53417
  1.6862E+3     0.5475
  1.6862E+3    0.56417
  1.6862E+3    0.58084
  1.6863E+3    0.61084
  1.6863E+3     0.5975
  1.6863E+3    0.62417
  1.6863E+3     0.6375
  1.6863E+3    0.65417
  1.6863E+3    0.67084
  1.6863E+3    0.68417
  1.6863E+3     0.6975
  1.6863E+3     0.7075
  1.6881E+3    0.48416
  1.6901E+3    0.49416
  1.6901E+3    0.50749
  1.6901E+3    0.52083
  1.6901E+3    0.54416
  1.6901E+3    0.56083
  1.6901E+3    0.57416
  1.6901E+3    0.58749
  1.6901E+3    0.53083
  1.6902E+3    0.63083
  1.6902E+3    0.64416
  1.6902E+3    0.61749
  1.6902E+3    0.60083
  1.6921E+3    0.65082
  1.6921E+3    0.56416
  1.6921E+3    0.59749
  1.6921E+3    0.55416
  1.6940E+3    0.53748
  1.6940E+3    0.51082
  1.6940E+3    0.52415
  1.6941E+3    0.63748
  1.6941E+3    0.62415
  1.6941E+3    0.61082
  1.6978E+3    0.45748
  1.6978E+3    0.44081
  1.6979E+3    0.48081
  1.6979E+3    0.46748
  1.6979E+3    0.49748
  1.6979E+3    0.51414
  1.6979E+3    0.52414
  1.6998E+3    0.45081
  1.6998E+3    0.47414
  1.6998E+3    0.49081
  1.6998E+3    0.50747
  1.7037E+3    0.52413
  1.7037E+3     0.5108
  1.7038E+3     0.5508
  1.7038E+3    0.56413
  1.7038E+3    0.53746
  1.7076E+3    0.49412
  1.7076E+3    0.50745
  1.7076E+3    0.51745
  1.7076E+3    0.53079
  1.7077E+3    0.55745
  1.7077E+3    0.56745
  1.7077E+3    0.54412
  1.7116E+3    0.57078
  1.7116E+3    0.58745
  1.7116E+3    0.55745
  1.7135E+3    0.60078
  1.7136E+3    0.61744
  1.7136E+3    0.63077
  1.7136E+3    0.64744
  1.7136E+3    0.66411
  1.7136E+3    0.68077
  1.7136E+3    0.69411
  1.7136E+3    0.71411
  1.7155E+3     0.6541
  1.7155E+3    0.63744
  1.7156E+3    0.67077
  1.7156E+3    0.69077
  1.7156E+3     0.7041
  1.7174E+3    0.49743
  1.7174E+3    0.51077
  1.7174E+3    0.52743
  1.7174E+3    0.59743
  1.7174E+3     0.5841
  1.7174E+3    0.57077
  1.7174E+3    0.55743
  1.7174E+3    0.54077
  1.7174E+3     0.4841
  1.7175E+3     0.6341
  1.7175E+3     0.6241
  1.7175E+3    0.61077
  1.7212E+3    0.43076
  1.7212E+3    0.46742
  1.7212E+3    0.45409
  1.7212E+3    0.44076
  1.7213E+3    0.48076
  1.7213E+3    0.57076
  1.7213E+3    0.56076
  1.7213E+3    0.55076
  1.7213E+3    0.49076
  1.7213E+3    0.53409
  1.7213E+3    0.51076
  1.7213E+3    0.52076
  1.7232E+3    0.47742
  1.7232E+3    0.45742
  1.7232E+3    0.44409
  1.7232E+3    0.50075
  1.7252E+3    0.53742
  1.7272E+3    0.54741
  1.7272E+3    0.56408
  1.7272E+3    0.58075
  1.7310E+3    0.54407
  1.7311E+3     0.5574
  1.7311E+3     0.5674
  1.7311E+3     0.5774
  1.7330E+3    0.55073
  1.7330E+3     0.5174
  1.7330E+3    0.53407
  1.7369E+3    0.51739
  1.7369E+3    0.50739
  1.7369E+3    0.49406
  1.7388E+3    0.53405
  1.7408E+3    0.52072
  1.7408E+3    0.51072
  1.7408E+3    0.49738
  1.7408E+3    0.54738
  1.7427E+3    0.52738
  1.7427E+3    0.53738
  1.7447E+3    0.50404
  1.7447E+3    0.51737
  1.7447E+3    0.55071
  1.7447E+3    0.56737
  1.7447E+3    0.58071
  1.7447E+3    0.59737
  1.7466E+3     0.5407
  1.7467E+3    0.57737
  1.7486E+3    0.56403
  1.7486E+3    0.55403
  1.7486E+3     0.5907
  1.7486E+3     0.5307
  1.7486E+3     0.6007
  1.7505E+3    0.52069
  1.7505E+3    0.50736
  1.7505E+3    0.49736
  1.7505E+3    0.48403
  1.7544E+3    0.48735
  1.7544E+3    0.50069
  1.7544E+3    0.47735
  1.7583E+3    0.48068
  1.7583E+3    0.47068
  1.7583E+3    0.49401
  1.7603E+3    0.50401
  1.7622E+3    0.51733
  1.7622E+3      0.534
  1.7622E+3    0.55067
  1.7623E+3      0.584
  1.7623E+3    0.57067
  1.7642E+3    0.54066
  1.7642E+3    0.56066
  1.7642E+3      0.524
  1.7662E+3    0.57399
  1.7662E+3    0.58733
  1.7681E+3    0.51732
  1.7681E+3    0.53399
  1.7681E+3    0.54732
  1.7681E+3    0.56732
  1.7681E+3    0.59732
  1.7681E+3    0.61399
  1.7681E+3    0.63065
  1.7682E+3    0.66399
  1.7682E+3    0.67732
  1.7682E+3    0.68732
  1.7682E+3    0.64732
  1.7721E+3    0.68731
  1.7721E+3    0.67398
  1.7721E+3    0.66065
  1.7721E+3    0.65065
  1.7721E+3    0.63731
  1.7739E+3    0.53398
  1.7739E+3    0.47064
  1.7739E+3    0.48064
  1.7739E+3    0.49398
  1.7739E+3    0.50731
  1.7739E+3    0.56064
  1.7739E+3    0.54731
  1.7739E+3    0.45731
  1.7739E+3    0.52064
  1.7740E+3    0.58731
  1.7740E+3    0.60064
  1.7740E+3    0.61398
  1.7740E+3    0.62731
  1.7740E+3    0.57398
  1.7778E+3    0.46063
  1.7778E+3    0.47397
  1.7778E+3     0.4873
  1.7778E+3    0.50063
  1.7778E+3    0.51397
  1.7778E+3     0.5273
  1.7778E+3    0.54063
  1.7778E+3     0.5673
  1.7798E+3    0.59063
  1.7798E+3     0.5773
  1.7818E+3    0.61396
  1.7818E+3    0.62729
  1.7818E+3    0.64729
  1.7818E+3    0.59729
  1.7838E+3    0.65729
  1.7838E+3    0.67395
  1.7857E+3    0.70395
  1.7857E+3    0.68728
  1.7858E+3    0.72395
  1.7858E+3    0.71395
  1.7876E+3    0.56728
  1.7876E+3    0.55395
  1.7876E+3    0.58061
  1.7876E+3    0.59395
  1.7876E+3    0.60728
  1.7876E+3    0.62061
  1.7876E+3    0.63395
  1.7877E+3    0.69728
  1.7877E+3    0.64395
  1.7895E+3    0.54394
  1.7896E+3    0.68061
  1.7896E+3    0.66727
  1.7896E+3    0.70727
  1.7896E+3    0.65394
  1.7897E+3    0.72061
  1.7914E+3     0.5106
  1.7915E+3     0.5206
  1.7915E+3    0.53394
  1.7934E+3    0.55393
  1.7954E+3    0.54059
  1.7954E+3    0.53059
  1.7954E+3    0.51726
  1.7992E+3    0.51059
  1.7993E+3    0.52392
  1.7993E+3    0.53725
  1.7993E+3    0.55392
  1.7993E+3    0.56725
  1.7993E+3    0.58059
  1.8013E+3    0.60392
  1.8013E+3    0.59058
  1.8032E+3    0.61724
  1.8051E+3    0.52057
  1.8051E+3    0.53391
  1.8051E+3    0.54724
  1.8051E+3    0.55724
  1.8051E+3    0.57057
  1.8052E+3    0.59724
  1.8052E+3    0.60724
  1.8052E+3    0.61391
  1.8052E+3    0.58391
  1.8070E+3     0.4939
  1.8070E+3    0.48057
  1.8070E+3    0.50724
  1.8090E+3    0.47057
  1.8090E+3    0.45723
  1.8090E+3    0.48723
  1.8090E+3    0.51723
  1.8090E+3    0.52723
  1.8110E+3    0.54723
  1.8110E+3    0.53389
  1.8148E+3    0.47055
  1.8148E+3    0.48722
  1.8148E+3    0.50055
  1.8148E+3    0.51389
  1.8149E+3    0.53722
  1.8149E+3    0.54722
  1.8149E+3    0.55722
  1.8149E+3    0.52722
  1.8168E+3    0.59055
  1.8168E+3    0.57388
  1.8168E+3    0.48055
  1.8169E+3    0.60388
  1.8187E+3    0.49388
  1.8187E+3    0.52054
  1.8188E+3    0.54054
  1.8188E+3    0.56054
  1.8188E+3    0.61388
  1.8188E+3    0.63721
  1.8208E+3    0.66721
  1.8208E+3    0.68387
  1.8208E+3    0.70054
  1.8208E+3    0.71387
  1.8208E+3    0.72387
  1.8208E+3    0.59721
  1.8208E+3    0.65054
  1.8227E+3     0.5872
  1.8227E+3     0.6072
  1.8227E+3     0.6572
  1.8227E+3    0.63387
  1.8227E+3    0.62387
  1.8228E+3     0.7072
  1.8228E+3     0.6872
  1.8228E+3    0.67387
  1.8246E+3     0.5772
  1.8246E+3    0.56386
  1.8246E+3    0.55053
  1.8246E+3     0.5372
  1.8246E+3    0.52386
  1.8246E+3    0.51053
  1.8246E+3     0.4972
  1.8246E+3    0.48386
  1.8246E+3    0.47053
  1.8265E+3    0.44386
  1.8265E+3    0.43053
  1.8265E+3    0.41719
  1.8265E+3    0.40053
  1.8265E+3    0.46053
  1.8284E+3    0.41052
  1.8284E+3    0.42719
  1.8284E+3    0.44052
  1.8284E+3    0.45719
  1.8285E+3    0.48719
  1.8285E+3    0.47386
  1.8304E+3    0.51718
  1.8304E+3    0.50052
  1.8305E+3    0.53385
  1.8305E+3    0.55052
  1.8305E+3    0.56718
  1.8305E+3    0.58052
  1.8305E+3    0.59385
  1.8324E+3    0.58718
  1.8324E+3    0.57051
  1.8324E+3    0.55385
  1.8324E+3    0.54385
  1.8324E+3    0.52385
  1.8324E+3    0.50718
  1.8324E+3    0.49051
  1.8324E+3    0.48051
  1.8324E+3    0.47051
  1.8363E+3     0.5205
  1.8363E+3     0.5305
  1.8363E+3     0.5105
  1.8383E+3     0.5705
  1.8402E+3     0.5605
  1.8402E+3    0.54716
  1.8402E+3    0.53383
  1.8402E+3     0.5805
  1.8402E+3    0.59383
  1.8403E+3    0.62383
  1.8403E+3     0.6405
  1.8403E+3    0.65383
  1.8403E+3    0.60716
  1.8422E+3    0.66382
  1.8442E+3    0.67382
  1.8442E+3    0.69049
  1.8442E+3    0.70382
  1.8442E+3    0.71715
  1.8442E+3    0.73049
  1.8443E+3    0.76049
  1.8443E+3    0.77715
  1.8443E+3    0.79049
  1.8443E+3    0.80715
  1.8443E+3    0.82049
  1.8443E+3    0.74715
  1.8463E+3    0.82715
ENDDATA           5338
ENDSUBENT         5351
SUBENT        22979003   20070803   20071206   20071125       2187
BIB                  3          5
REACTION   (92-U-236(N,G)92-U-237,,SIG,,REL) Capture yield in the
             first s-wave resonance of U-236
ERR-ANALYS (EN-ERR-DIG) Energy digitizing error
           (ERR-DIG)    Data digitizing error
STATUS     (CURVE)    Fig.4 of main reference
ENDBIB               5
COMMON               2          3
EN-ERR-DIG ERR-DIG
EV         ARB-UNITS
 2.1281E-03 2.1244E-03
ENDCOMMON            3
DATA                 2        469
EN         DATA
EV         ARB-UNITS
     3.0255    0.41843
     3.0543    0.41565
     3.0759    0.41568
     3.0975    0.41289
     3.1263     0.4101
     3.1623    0.41016
     3.1767    0.40735
     3.1983    0.40739
     3.2199    0.40742
     3.2343    0.40461
     3.2487    0.40464
     3.2703    0.40467
     3.2847    0.40186
     3.3063     0.4019
     3.3207    0.39909
     3.3423    0.39913
     3.3567    0.39915
     3.3711    0.39634
     3.3927    0.39638
     3.4142    0.39641
     3.4287     0.3936
      3.443    0.39363
     3.4647    0.39083
     3.4862    0.39087
     3.5006    0.39089
     3.5222    0.39093
     3.5438    0.39096
     3.5582    0.38815
     3.5798    0.38819
     3.6014    0.38822
     3.6302    0.38544
     3.6518    0.38548
     3.6734    0.38268
     3.6878     0.3827
     3.7094    0.38274
      3.731    0.37994
     3.7454    0.37996
     3.7669       0.38
     3.7885    0.38004
     3.8101    0.38007
     3.8245    0.37726
     3.8389    0.37729
     3.8605    0.37732
     3.8821    0.37736
     3.9037     0.3774
     3.9109    0.37457
     3.9325    0.37461
     3.9468    0.37463
     3.9828    0.37186
     4.0116    0.37191
     4.0332    0.37195
      4.062    0.36916
     4.0908    0.36921
     4.1196    0.36926
      4.134    0.36928
     4.1556    0.36648
     4.1771    0.36652
     4.1987    0.36656
     4.2131    0.36658
     4.2347    0.36662
     4.2563    0.36665
     4.2779    0.36669
     4.2923    0.36388
     4.3139    0.36392
     4.3355    0.36395
      4.357    0.36399
     4.3786    0.36402
     4.4002    0.36406
     4.4146    0.36125
      4.429    0.36127
     4.4434    0.36413
     4.4649    0.36417
     4.4794    0.36136
     4.5009     0.3614
     4.5225    0.36143
     4.5441    0.36147
     4.5657    0.36151
     4.5873    0.36154
     4.6089    0.36158
     4.6304    0.36161
      4.652    0.36165
     4.6736    0.36169
     4.6952    0.36172
     4.7168    0.36176
     4.7383     0.3618
     4.7599    0.36183
     4.7815    0.36187
     4.8031    0.36191
     4.8247    0.36194
      4.839     0.3648
     4.8606    0.36484
     4.8822    0.36487
     4.9037    0.36774
     4.9181    0.36777
     4.9397     0.3678
     4.9541    0.37066
     4.9685    0.37069
     4.9828    0.37355
     4.9972    0.37357
     5.0116    0.37643
     5.0259    0.37929
     5.0403    0.38215
     5.0547    0.38217
      5.069    0.38503
     5.0834    0.38789
     5.0977    0.39358
     5.1121    0.39644
     5.1192    0.39929
     5.1336    0.40214
     5.1479      0.405
     5.1551    0.40785
     5.1622    0.41353
     5.1694    0.41638
     5.1837    0.42207
     5.1909    0.42775
      5.198    0.43343
     5.2051    0.43911
     5.2123    0.44479
     5.2194    0.45047
     5.2265    0.45616
     5.2336    0.46467
     5.2408    0.47035
     5.2479    0.47887
      5.255    0.48455
     5.2621    0.49306
     5.2692    0.50158
     5.2763    0.51009
     5.2833    0.52995
     5.2833    0.52428
     5.2834    0.51578
     5.2904    0.53846
     5.2974    0.55548
     5.2975    0.54698
     5.3042    0.59234
     5.3044    0.57533
     5.3045      0.564
     5.3182    0.62638
     5.3183    0.61787
     5.3184    0.60937
     5.3185    0.60087
     5.3251    0.65757
     5.3252    0.64623
     5.3253    0.63489
     5.3314    0.73411
     5.3315    0.72844
     5.3316     0.7171
     5.3317    0.70576
     5.3319    0.69443
     5.3319    0.68592
      5.332    0.67742
     5.3321    0.66892
     5.3382    0.76813
     5.3384     0.7568
     5.3385    0.74546
      5.345    0.81066
     5.3451    0.80216
     5.3452    0.79082
     5.3453    0.77948
     5.3513    0.89004
     5.3514     0.8787
     5.3516    0.86736
     5.3517    0.85602
     5.3518    0.84469
      5.352    0.83051
     5.3521    0.82201
     5.3578    0.95241
     5.3579     0.9439
      5.358     0.9354
     5.3581    0.92406
     5.3583    0.91272
     5.3584    0.90139
     5.3644     1.0091
     5.3645     1.0006
     5.3646     0.9921
     5.3647    0.98076
     5.3648    0.97226
     5.3649    0.96092
     5.3712     1.0488
     5.3713     1.0375
     5.3714      1.029
     5.3715     1.0176
     5.3775     1.1253
     5.3777      1.114
     5.3778      1.097
     5.3778     1.1055
      5.378     1.0857
     5.3781     1.0772
     5.3782     1.0601
     5.3782     1.0687
     5.3841     1.1792
     5.3843     1.1679
     5.3844     1.1565
     5.3845     1.1452
     5.3846     1.1367
     5.3908     1.2302
     5.3909     1.2189
      5.391     1.2076
     5.3911     1.1991
     5.3912     1.1906
     5.3976     1.2671
     5.3977     1.2529
     5.3979     1.2416
     5.4046     1.2813
     5.4117     1.2926
     5.4259     1.3068
     5.4474     1.3125
      5.469     1.3154
     5.4905     1.3183
     5.5049     1.3211
     5.5193      1.324
     5.5264     1.3268
     5.5408      1.324
      5.541     1.3127
     5.5483     1.3042
     5.5555     1.2957
     5.5556     1.2872
     5.5557     1.2787
     5.5558     1.2702
     5.5559     1.2617
      5.556     1.2504
     5.5561     1.2419
     5.5562     1.2334
     5.5563     1.2248
     5.5564     1.2163
     5.5565      1.205
     5.5566     1.1965
     5.5639     1.1852
     5.5641     1.1738
     5.5714     1.1625
     5.5715     1.1512
     5.5716     1.1398
     5.5717     1.1313
     5.5718       1.12
     5.5719     1.1115
     5.5721     1.1002
     5.5722     1.0888
     5.5723     1.0775
     5.5724      1.069
     5.5725     1.0548
     5.5727     1.0435
     5.5728     1.0321
     5.5729     1.0208
     5.5802     1.0095
     5.5804    0.99813
     5.5805    0.98679
     5.5806    0.97546
     5.5807    0.96695
     5.5808    0.95845
     5.5809    0.94711
      5.581    0.93577
     5.5811    0.92727
     5.5884    0.91595
     5.5886    0.90461
     5.5887    0.89611
     5.5959    0.88761
     5.5961    0.87628
     5.5962     0.8621
     5.5963    0.85077
     5.5965    0.83943
     5.5966    0.83093
     5.5967    0.81675
      5.604    0.80543
     5.6041    0.79693
     5.6042    0.78559
     5.6043    0.77709
     5.6117    0.76576
     5.6118    0.75159
     5.6119    0.74025
     5.6192    0.72892
     5.6194    0.71759
     5.6195    0.70625
     5.6196    0.69491
     5.6269    0.68359
     5.6271    0.67225
     5.6272    0.66091
     5.6345    0.64959
     5.6418    0.63826
     5.6419    0.62692
     5.6421    0.61559
     5.6422    0.60425
     5.6495    0.59009
     5.6568    0.57876
     5.6569    0.57026
     5.6643    0.55893
     5.6644    0.54476
     5.6718     0.5306
     5.6791    0.51928
     5.6864    0.50795
     5.6937    0.49663
      5.701     0.4853
     5.7083    0.47397
     5.7157    0.46265
     5.7229    0.45416
     5.7302    0.44567
     5.7375    0.43718
      5.752     0.4287
     5.7665    0.42022
     5.7738    0.41173
     5.7882    0.40325
     5.8027    0.39477
     5.8172    0.38912
     5.8316    0.38348
     5.8533    0.37785
     5.8749    0.37221
     5.8966    0.36658
     5.9182    0.36378
     5.9398    0.36099
     5.9614    0.35819
      5.983    0.35539
     6.0046    0.35259
     6.0334    0.34981
      6.055    0.34701
     6.0767    0.34421
     6.0983    0.34141
     6.1199    0.34145
     6.1414    0.34148
     6.1702     0.3387
      6.199    0.33875
     6.2278    0.33596
     6.2566    0.33318
     6.2854    0.33322
     6.3142    0.33327
     6.3286     0.3333
     6.3573    0.33335
     6.3861    0.33339
     6.4149    0.33061
     6.4437    0.32782
     6.4725    0.32787
     6.5013    0.32792
     6.5373    0.32515
     6.5661    0.32519
      6.602    0.32525
     6.6308     0.3253
     6.6524    0.32534
      6.674    0.32538
     6.6956    0.32541
       6.71     0.3226
     6.7316    0.32264
     6.7603    0.32269
     6.7891    0.32274
     6.8179    0.32278
     6.8395    0.32282
     6.8539    0.32284
     6.8826    0.32289
     6.8899    0.32007
     6.9114    0.32011
      6.933    0.32014
     6.9546    0.32018
     6.9762    0.32022
      7.005    0.32026
     7.0266     0.3203
     7.0481    0.32034
     7.0769    0.32039
     7.1057    0.32043
     7.1345    0.31765
     7.1561    0.31768
     7.1849    0.31773
     7.2064    0.31777
      7.228    0.31781
     7.2496    0.31784
     7.2712    0.31788
     7.2928    0.31792
     7.3143    0.31795
     7.3359    0.31799
     7.3575    0.31802
     7.3863    0.31524
     7.4079    0.31527
     7.4367    0.31532
     7.4583    0.31536
      7.487    0.31541
     7.5086    0.31544
     7.5374    0.31549
     7.5662    0.31554
     7.5949    0.31559
     7.6237    0.31564
     7.6525    0.31569
     7.6885    0.31575
     7.7172     0.3158
      7.746    0.31584
      7.782    0.31307
     7.8036    0.31311
     7.8324    0.31316
      7.854    0.31319
     7.8755    0.31323
     7.9043    0.31328
     7.9331    0.31333
     7.9619    0.31337
     7.9835    0.31341
      8.005    0.31345
     8.0266    0.31348
     8.0554    0.31353
     8.0842    0.31358
     8.1129    0.31363
     8.1418    0.31084
     8.1705    0.31089
     8.1993    0.31094
     8.2353      0.311
     8.2641    0.31105
     8.2928     0.3111
     8.3216    0.31115
     8.3432    0.31118
      8.372    0.31123
     8.4007    0.31128
     8.4295    0.30849
     8.4583    0.30854
     8.4799    0.30858
     8.5087    0.30863
     8.5303    0.30866
      8.559    0.30871
     8.5806    0.30875
      8.595    0.30877
     8.6238    0.30599
     8.6454    0.30602
      8.667    0.30606
     8.6958    0.30611
     8.7173    0.30614
     8.7389    0.30618
     8.7605    0.30622
     8.7893    0.30626
     8.8109     0.3063
     8.8324    0.30634
      8.854    0.30637
     8.8756    0.30641
     8.8972    0.30645
      8.926     0.3065
     8.9476    0.30653
     8.9691    0.30657
     8.9907     0.3066
     9.0123    0.30664
     9.0339    0.30668
     9.0555    0.30671
     9.0842    0.30676
     9.1058     0.3068
     9.1274    0.30683
      9.149    0.30687
     9.1706    0.30407
     9.1922    0.30411
      9.221    0.30416
     9.2425    0.30419
     9.2641    0.30423
     9.2929    0.30428
     9.3145    0.30432
     9.3433    0.30436
     9.3648     0.3044
     9.3864    0.30444
      9.408    0.30447
     9.4368    0.30452
     9.4584    0.30456
     9.4871    0.30461
     9.5159    0.30465
     9.5375    0.30469
     9.5663    0.30474
      9.595    0.30479
     9.6166    0.30482
     9.6382    0.30486
     9.6598     0.3049
     9.6886    0.30495
     9.7173    0.30499
     9.7461    0.30504
     9.7677    0.30508
     9.7893    0.30512
     9.8181    0.30516
     9.8469    0.30238
     9.8756    0.30243
     9.8972    0.30246
     9.9188     0.3025
     9.9476    0.30255
     9.9764     0.3026
     9.9979    0.30263
ENDDATA            471
ENDSUBENT          485
ENDENTRY             3
