ENTRY            22982   20071002   20071206   20071125       2187
SUBENT        22982001   20071002   20071206   20071125       2187
BIB                 10         25
TITLE      Systematic measurement of keV-neutron capture cross
           sections and capture gamma-ray spectra of Sn isotopes.
AUTHOR     (J.Nishiyama,M.Igashira,T.Ohsaki,G.N.Kim,W.C.Chung,
           T.I.Ro)
INSTITUTE  (2JPNTIT)  Research Laboratory for Nuclear Reactors,
              Tokyo Institute of Technology.  J.Nishiyama,
               M.Igashira,T.Ohsaki
           (3KORKNU)  School of Physics and Energy Science,
              Kyungpook National University, Korea.  G.N.Kim
           (3KORDAU)   Department of Physics, Dong-A University,
               Korea.  W.C.Chung, T.I.Ro
REFERENCE  (C,2005NOTRED,,579,2005)  Main reference, graphs for
                 Sn-119 are given
           (J,NST,36,493,1999)  Details of anti-compton detector
                                properties
FACILITY   (VDGT,2JPNTIT) The 3.2 MV PELLETRON accelerator of the
            Research Laboratory for Nuclear Reactors at the Tokyo
            Institute of Technology.
INC-SOURCE (P-LI7)    A 1.5 nanosec bunched protons, repetition
             rate 4 MHz
METHOD     (TOF)
DETECTOR   (NAICR)  Capture gamma-rays were detected with a large
             anti-compton NaI(Tl) spectrometer
SAMPLE     .Highly enriched metal plate, mass aprx. 1 gram
HISTORY    (20071002C)   SM
ENDBIB              25
NOCOMMON             0          0
ENDSUBENT           28
SUBENT        22982002   20070924   20071206   20071125       2187
BIB                  3          5
REACTION   (50-SN-119(N,G)50-SN-120,,SIG)
ERR-ANALYS (EN-ERR)  Error from the graphic bars
           (EN-ERR-DIG) Energy digitizing error
           (ERR-DIG)    Data digitizing error
STATUS     (CURVE)    Fig.1 of main reference
ENDBIB               5
COMMON               2          3
EN-ERR-DIG ERR-DIG
PER-CENT   PER-CENT
 2.8214E-03 7.4899E-04
ENDCOMMON            3
DATA                 3          5
EN         EN-ERR     DATA
KEV        KEV        B
  20.568      5.5863    0.34636
  30.204     16.200     0.23473
  44.655      9.6241    0.16526
  72.553     27.053     0.10220
 567.13     139.87      0.04029
ENDDATA              7
ENDSUBENT           21
SUBENT        22982003   20070924   20071206   20071125       2187
BIB                  3          7
REACTION   (50-SN-119(N,G)50-SN-120,,MLT/DE,,AV) Averaged over
              incident neutron energied given in COMMON section.
              Units - gamma/MEV/capture
ERR-ANALYS (DATA-ERR) Error for the graphic bars
           (E-ERR-DIG)  Secondary energy digitizing error
           (ERR-DIG)    Data digitizing error
STATUS     (CURVE)  Fig.2 of main reference
ENDBIB               7
COMMON               4          3
EN-MIN     EN-MAX     E-ERR-DIG  ERR-DIG
MEV        MEV        MEV        PER-CENT
    15.        100.    1.7487E-03 2.3204E-03
ENDCOMMON            3
DATA                 3        423
EN         DATA       DATA-ERR
MEV        PT/RCT/MEV PT/RCT/MEV
     0.5945    0.39285     0.2547
    0.62233    0.23104    0.23527
    0.64528    0.43637    0.19355
    0.67288     0.7178    0.19982
     0.6959     1.0113     0.2096
    0.71915    0.50108    0.20147
    0.74704    0.22977    0.19272
    0.77002    0.38005    0.19485
    0.80694    0.45112    0.18728
    0.81626    0.30296     0.1833
    0.84855    0.37588    0.17687
    0.87147    0.80179    0.18351
    0.88992    0.89062    0.20003
     0.9222      1.155    0.18195
    0.94529      1.136    0.20505
    0.96839     1.1235    0.19769
     1.0007     1.3189    0.17062
     1.0146     1.2411    0.18388
     1.0516    0.82889    0.17145
     1.0701     0.6718    0.17617
     1.0931    0.93613    0.19401
     1.1207     2.2929    0.19415
     1.1482     5.7418    0.36864
     1.1758     7.8693     0.4644
     1.1989     6.8533    0.47538
     1.2221     4.2361    0.27197
       1.25     2.1577     0.1827
     1.2732     1.2412    0.15283
     1.2964     1.0515    0.15082
     1.3195    0.74217    0.15848
     1.3426    0.67933    0.19181
     1.3426    0.72193    0.13975
     1.3749    0.76299    0.24858
     1.3935    0.54756    0.29786
     1.4257     0.9107     0.3288
     1.4441     1.4652    0.38424
     1.4719     1.0172    0.40222
     1.4997    0.50678    0.34185
     1.5228    0.55367    0.27994
     1.5505    0.55367    0.25231
     1.5783    0.49571    0.15911
     1.6013    0.65359    0.12093
     1.6152    0.67939  9.0980E-2
     1.6429    0.71802  8.5752E-2
     1.6706    0.77582  8.1197E-2
     1.7029    0.61504  8.7287E-2
     1.7215    0.51245  8.7832E-2
     1.7491    0.58843  8.7237E-2
     1.7722    0.58844  8.7239E-2
     1.7954    0.45126  8.5524E-2
     1.8277    0.42464  8.0478E-2
     1.8508    0.51248  7.2731E-2
     1.8739    0.51818  7.3541E-2
     1.9016    0.49303  7.3050E-2
     1.9247    0.54463  6.0334E-2
     1.9432    0.51533  6.6665E-2
     1.9709    0.41767  6.5797E-2
     1.9986    0.46395  6.8782E-2
     2.0263     0.6151  7.0457E-2
      2.054    0.65731  6.0805E-2
     2.0678    0.66096  7.3223E-2
     2.1001    0.80211  6.3850E-2
     2.1278    0.88606  6.6038E-2
     2.1509    0.74237  6.6607E-2
     2.1741    0.59836  6.9973E-2
     2.1972    0.56305  6.4495E-2
     2.2249    0.46655  6.3276E-2
     2.2481    0.38023  7.0353E-2
     2.2757    0.47436  6.8044E-2
     2.2988    0.61177  7.0075E-2
     2.3219    0.62545  5.9257E-2
     2.3588    0.65015  5.5051E-2
     2.3727    0.70248  4.1455E-2
     2.3865    0.75068  5.1500E-2
     2.4234    0.78032  5.3536E-2
     2.4465    0.77174  6.1430E-2
     2.4743    0.65378  5.8658E-2
     2.5021    0.51258  5.3645E-2
     2.5159     0.4877  5.5863E-2
     2.5529    0.49861  6.1395E-2
     2.5945    0.44395  6.1572E-2
     2.6499    0.52118  6.0948E-2
     2.7007    0.46662  5.7995E-2
     2.7238    0.45895  5.4812E-2
     2.7422    0.51262  4.4333E-2
     2.7745    0.59518  5.0396E-2
     2.7976    0.63601  4.7404E-2
     2.8484    0.57896  4.9023E-2
     2.8762    0.56944  5.3950E-2
     2.9316    0.54783  4.4095E-2
     2.9455    0.50702  2.9921E-2
      2.964    0.45394  2.2038E-2
     2.9963    0.42715  3.6169E-2
     3.0194    0.45646  3.6742E-2
     3.0471    0.51838  3.5956E-2
     3.0748    0.55089  4.4341E-2
     3.1025    0.53587  3.7170E-2
     3.1256    0.47713  2.5667E-2
     3.1487    0.43915  3.4955E-2
     3.1672    0.43193  3.8753E-2
     3.1996    0.43433  3.4572E-2
     3.2042    0.45397  3.1146E-2
     3.2319    0.49324  3.3839E-2
     3.2411    0.46413  2.9798E-2
      3.278    0.51271  3.8214E-2
     3.2873     0.4798  3.3280E-2
      3.315    0.49599  2.9270E-2
     3.3289    0.45651  2.9310E-2
     3.3751    0.45149  3.6342E-2
     3.3797    0.43196  2.7733E-2
     3.4166    0.42958  3.2018E-2
     3.4167    0.38888  2.4389E-2
     3.4305    0.35793  1.9255E-2
      3.449    0.35596  3.0141E-2
     3.4721    0.36191  2.6975E-2
     3.4767     0.3501  3.3169E-2
     3.4998    0.36192  2.6975E-2
     3.5045    0.34245  2.8997E-2
     3.5183    0.36192  2.4831E-2
     3.5183    0.33868  2.6958E-2
     3.5506    0.34056  2.7109E-2
     3.5506    0.35794  2.8811E-2
     3.5691    0.33496  2.3234E-2
     3.5737    0.35794  2.2449E-2
     3.5968    0.33128  2.8051E-2
     3.5968    0.35401  1.8064E-2
     3.6199    0.32946  2.9560E-2
     3.6384    0.34819  1.9796E-2
     3.6707    0.37831  2.8197E-2
     3.6984    0.37622  2.5812E-2
     3.7031    0.34628  2.0435E-2
     3.7446    0.34059  1.7379E-2
     3.7447    0.31872  2.6987E-2
     3.7724    0.32227  2.7288E-2
     3.7724    0.33871  1.9257E-2
     3.7954    0.34248  2.1479E-2
     3.8001    0.32406  2.0805E-2
     3.8185    0.33685  2.1126E-2
     3.8278    0.32586  2.5938E-2
     3.8463    0.33499  2.1009E-2
     3.8463     0.3205  2.7138E-2
      3.874     0.3205  2.2231E-2
      3.874      0.335  2.2983E-2
     3.9017    0.32767  2.4422E-2
     3.9063    0.29827  1.9150E-2
     3.9433    0.27002  2.6930E-2
      3.971    0.27913  2.7838E-2
     3.9941    0.29664  3.2862E-2
     4.0218    0.29664  2.7441E-2
     4.0264    0.27454  2.1853E-2
     4.0634     0.2555  2.6750E-2
     4.0957    0.26267  2.3567E-2
     4.1188    0.28069  3.1095E-2
     4.1465     0.2776  2.7362E-2
     4.1512    0.25978  2.5909E-2
     4.1697    0.24043  1.5436E-2
     4.1974    0.23648  2.5927E-2
     4.1974    0.24854  1.5587E-2
     4.2205    0.24992  2.0117E-2
     4.2251    0.23648  2.4759E-2
     4.2482    0.24177  2.2906E-2
     4.2528    0.25411  2.1976E-2
     4.2667    0.24582  1.9567E-2
     4.2759    0.25693  2.5325E-2
     4.2944    0.24718  1.9675E-2
      4.299    0.25979  2.2468E-2
     4.3221    0.25836  2.2344E-2
     4.3221    0.24582  2.0815E-2
     4.3452    0.25552  1.9045E-2
     4.3498    0.23649  1.6404E-2
     4.3683    0.24719  1.5502E-2
     4.3729    0.22877  1.9371E-2
     4.3914    0.22626  2.4806E-2
      4.396    0.24178  1.3746E-2
     4.4191    0.22751  2.2691E-2
     4.4237    0.24719  1.4054E-2
     4.4468    0.26125  1.3331E-2
     4.4468    0.23781  1.4034E-2
     4.4745    0.26415  2.2845E-2
     4.4884    0.24179  1.5524E-2
     4.5022    0.25981  2.0913E-2
     4.5207    0.23261  2.2038E-2
     4.5438    0.24584  1.6866E-2
     4.5484    0.23005  2.5222E-2
     4.5807    0.27459  1.7221E-2
     4.5946    0.25413  1.7627E-2
     4.6223    0.28543  1.9583E-2
     4.6731    0.25414  2.6608E-2
     4.6962    0.26127  2.8644E-2
     4.7193     0.2746  2.7066E-2
     4.7516    0.27766  2.7367E-2
     4.7701    0.25275  2.2677E-2
     4.7932    0.25415  2.0230E-2
     4.7932     0.2177  2.0139E-2
      4.821    0.19276  2.4888E-2
     4.8533     0.2177  1.8827E-2
     4.8948    0.24049  2.6642E-2
     4.9226    0.23653  2.6204E-2
     4.9503     0.2106  1.6952E-2
     4.9734    0.19277  2.9467E-2
     5.0011    0.18856  2.8823E-2
     5.0242    0.20486  1.8951E-2
     5.0242      0.196  2.6247E-2
     5.0519    0.20945  2.4493E-2
     5.0704    0.20829  2.4359E-2
     5.0935    0.18856  1.6918E-2
     5.1258    0.19818  1.4771E-2
     5.1258    0.18546  2.1244E-2
     5.1536    0.18856  2.0673E-2
      5.172    0.21062  1.1330E-2
     5.1951    0.23266  1.3228E-2
     5.2228    0.24454  1.9683E-2
     5.2505    0.23656  2.1883E-2
     5.2736    0.21653  1.0512E-2
     5.2967     0.1971  2.0636E-2
     5.3152    0.20947  1.5612E-2
     5.3244    0.19386  2.2206E-2
     5.3521    0.21894  1.2448E-2
     5.3522     0.2004  1.9987E-2
     5.3706    0.20489  1.1022E-2
     5.3844    0.23526  1.2005E-2
     5.3983     0.2392  1.9254E-2
     5.4168    0.22759  1.1049E-2
      5.426    0.24186  2.2374E-2
     5.4445     0.2314  1.7238E-2
     5.4491     0.2392  2.2128E-2
     5.4768    0.23657  1.9042E-2
     5.4768    0.22759  1.8116E-2
     5.4999    0.22634  2.0308E-2
     5.4999    0.23397  1.8833E-2
      5.523    0.22262  1.7720E-2
      5.523    0.23269  1.8729E-2
     5.5461    0.21896  1.4058E-2
     5.5507     0.2314  1.7247E-2
     5.5738    0.23013  1.1743E-2
     5.5738    0.21181  1.5779E-2
     5.5969    0.22139  1.1297E-2
      5.597     0.2049  1.5264E-2
     5.6201    0.19822  1.5778E-2
     5.6247    0.21417  1.2177E-2
     5.6478    0.20604  1.5357E-2
     5.6524    0.19069  1.5179E-2
     5.6709    0.20042  1.2570E-2
     5.6801    0.17944  1.3368E-2
     5.6986    0.19175  9.7845E-3
     5.7079    0.16065  1.1968E-2
     5.7171    0.17649  1.4207E-2
     5.7217    0.15034  1.1200E-2
     5.7448    0.15118  2.2399E-2
     5.7772    0.15542  2.0066E-2
     5.8002    0.18144  1.6279E-2
     5.8279    0.21657  2.2674E-2
     5.8417    0.24594  1.5790E-2
     5.8694    0.25993  2.4046E-2
     5.8971    0.25565  2.5199E-2
     5.9295     0.2353  1.4757E-2
     5.9526    0.21067  1.2433E-2
     5.9757    0.19177  2.4760E-2
     5.9988    0.19177  2.8414E-2
     6.0265    0.19934  1.9648E-2
     6.0311    0.18862  2.0680E-2
     6.0588    0.19934  2.3311E-2
     6.0589    0.18449  1.5622E-2
     6.0958    0.18552  1.1911E-2
     6.0958    0.16067  1.6025E-2
     6.1236    0.13611  2.0167E-2
     6.1513    0.12951  2.2197E-2
     6.1744    0.14227  1.6638E-2
     6.2021    0.16888  1.7681E-2
     6.2205    0.19285  1.3377E-2
     6.2482    0.20157  1.9868E-2
     6.2713    0.19826  1.8340E-2
     6.2852    0.18656  1.2941E-2
     6.2944    0.17948  1.7900E-2
     6.3222    0.17652  2.1082E-2
     6.3499    0.17555  1.7509E-2
     6.3499    0.18451  1.7069E-2
      6.373    0.18864  1.9742E-2
     6.3776    0.17849  1.5114E-2
      6.396    0.19074  2.1131E-2
     6.4007    0.17849  1.3297E-2
     6.4191    0.18969  1.6405E-2
      6.433    0.17363  1.2934E-2
     6.4469    0.18452  1.3753E-2
     6.4607    0.16338  1.3005E-2
     6.4792    0.15459  1.3090E-2
     6.4792    0.17172  1.0769E-2
     6.5069    0.16429  1.1272E-2
      6.507    0.14709  1.3936E-2
     6.5254    0.14308  1.5687E-2
       6.53    0.15374  1.4222E-2
     6.5439    0.14873  1.3759E-2
     6.5485    0.13689  1.4332E-2
     6.5762    0.14308  1.3236E-2
     6.5763    0.13169  1.4438E-2
     6.5993    0.14073  1.0489E-2
     6.5994    0.13024  1.6816E-2
     6.6225    0.12953  1.6098E-2
     6.6455    0.13316  1.1275E-2
     6.6594    0.13996  7.9571E-3
     6.6732    0.15632  8.4096E-3
     6.7055    0.17655  1.2246E-2
      6.724    0.19502  8.8212E-3
     6.7378    0.20956  1.3142E-2
     6.7471    0.21425  1.8529E-2
     6.7748    0.21904  2.1590E-2
     6.8025    0.22271  1.9260E-2
     6.8256    0.21784  2.1471E-2
     6.8441    0.20385  1.3088E-2
     6.8718    0.18151  1.9900E-2
     6.8996    0.15291  1.8829E-2
     6.9273    0.12883  1.5065E-2
     6.9458     0.1147  2.0705E-2
     6.9735    0.11923  2.2597E-2
     7.0012    0.13026  1.6189E-2
     7.0058     0.1431  8.9746E-3
     7.0289     0.1439  1.9516E-2
     7.0566     0.1455  1.7916E-2
     7.0797    0.13318  1.1277E-2
     7.0936    0.11534  1.2076E-2
      7.126  9.7175E-2  1.0765E-2
     7.1445  8.5098E-2  2.0482E-2
     7.1537  8.0520E-2  1.3059E-2
     7.1722  7.9196E-2  1.7104E-2
     7.1953  7.7464E-2  1.7587E-2
     7.2184  7.5352E-2  1.5586E-2
     7.2323  7.0126E-2  1.6348E-2
     7.2462  6.8592E-2  1.8820E-2
     7.2739  7.2894E-2  1.3631E-2
      7.297  6.7839E-2  1.4651E-2
     7.3062  7.5772E-2  1.5673E-2
       7.32  8.2782E-2  1.5479E-2
     7.3247  7.3300E-2  1.1888E-2
     7.3477  8.6050E-2  1.8954E-2
     7.3754  8.5576E-2  1.7131E-2
     7.3986  7.3302E-2  1.8621E-2
     7.4217  5.0888E-2  1.8011E-2
     7.4496  2.5777E-2  1.8551E-2
     7.4824  3.7836E-3  1.9295E-2
     7.6022  1.1562E-2  2.8338E-2
     7.6252  2.2450E-2  2.9007E-2
     7.6482  3.0599E-2  2.8551E-2
     7.6759  3.5526E-2  2.7931E-2
      7.699  3.6321E-2  2.6252E-2
     7.7267  3.5136E-2  2.4256E-2
     7.7498  3.4750E-2  2.2530E-2
     7.7775  3.8176E-2  2.0476E-2
     7.8005  4.8962E-2  1.9031E-2
     7.8281  6.7104E-2  1.5358E-2
     7.8512  9.0957E-2  1.5590E-2
     7.8696     0.1173  1.5145E-2
     7.9019    0.14235  1.5607E-2
      7.925    0.15988  8.6009E-3
     7.9434     0.1718  1.1787E-2
     7.9757    0.17276  1.2876E-2
     8.0127    0.16805  1.1656E-2
      8.022    0.15382  1.2244E-2
     8.0543    0.13322  1.3131E-2
     8.0728    0.10917  1.0099E-2
      8.096  8.5124E-2  8.9090E-3
     8.1238  6.1428E-2  9.4981E-3
      8.147  4.2645E-2  7.1131E-3
     8.1655  2.8013E-2  6.5505E-3
     8.2026  1.7605E-2  5.9120E-3
     8.2165  1.0882E-2  5.5496E-3
      8.249  7.0694E-3  5.3626E-3
     8.2721  5.3618E-3  4.3241E-3
     8.2999  5.2156E-3  4.1780E-3
     8.3229  5.5428E-3  4.5051E-3
     8.3507  5.5428E-3  4.4994E-3
     8.3738  4.7478E-3  4.9952E-3
      8.397  2.7011E-3  5.2392E-3
     8.5725  3.1887E-3  6.2369E-3
     8.6001  5.6672E-3  6.4215E-3
     8.6231  6.7270E-3  5.6892E-3
     8.6508  6.5799E-3  5.5421E-3
     8.6739  6.3301E-3  5.2923E-3
      8.674  5.6988E-3  5.7399E-3
     8.6971  5.2743E-3  5.4301E-3
     8.7202  5.8587E-3  4.8208E-3
     8.7478  7.6397E-3  5.6577E-3
     8.7755  1.0185E-2  6.0267E-3
     8.7985  1.2706E-2  6.2345E-3
     8.8262  1.4590E-2  6.2437E-3
       8.84  1.5591E-2  6.6721E-3
     8.8724  1.5420E-2  6.6958E-3
     8.9001  1.5592E-2  6.9633E-3
     8.9278  1.7034E-2  6.8488E-3
     8.9462  2.1727E-2  6.9197E-3
     8.9692  3.0108E-2  7.0189E-3
     8.9968  4.3370E-2  8.2195E-3
     9.0245  6.0435E-2  9.2382E-3
     9.0475  7.8372E-2  9.3598E-3
     9.0752  9.8317E-2  1.1262E-2
      9.089    0.11289  7.2483E-3
     9.1213    0.12266  1.0608E-2
      9.149     0.1268  9.4507E-3
     9.1767    0.11932  7.6604E-3
     9.1999    0.10801  8.5979E-3
      9.223  9.3033E-2  1.0200E-2
     9.2508  7.5820E-2  9.4232E-3
     9.2785  5.8792E-2  8.4332E-3
     9.2971  4.3615E-2  8.4609E-3
     9.3249  3.0956E-2  7.7358E-3
      9.348  2.1372E-2  5.9495E-3
     9.3758  1.4512E-2  5.5985E-3
     9.3944  9.8545E-3  5.1574E-3
     9.4268  6.9174E-3  4.4167E-3
     9.4546  5.1602E-3  3.9143E-3
     9.4777  3.9354E-3  2.9031E-3
     9.5009  3.2790E-3  2.2467E-3
     9.5194  2.9035E-3  1.8711E-3
     9.5471  2.7932E-3  1.7552E-3
     9.5794  2.8716E-3  1.8335E-3
     9.5887  3.1027E-3  2.0292E-3
     9.6025  3.3711E-3  2.3330E-3
      9.621  3.1547E-3  2.1165E-3
     9.6533  3.5236E-3  2.3895E-3
     9.6764  3.3526E-3  2.2121E-3
     9.7041  3.0857E-3  2.0476E-3
     9.7273  2.4598E-3  1.3984E-3
     9.7504  1.7555E-3  1.8670E-3
     9.7737  1.0382E-3  1.8178E-3
ENDDATA            425
ENDSUBENT          441
ENDENTRY             3
