ENTRY            A1498   20210201   20210406   20210405       A096
SUBENT        A1498001   20210201   20210406   20210405       A096
BIB                  8         17
TITLE      Reactions 7Li(alpha,n)10B, 7Li(alpha,alpha')7Li*,
           and 10B(n,alpha)7Li
AUTHOR     (H.Bichsel,T.W.Bonner)
REFERENCE  (J,PR,108,1025,1957)
INSTITUTE  (1USARIC)
FACILITY   (VDG,1USARIC)
SAMPLE     7Li of 27 ug/cm2 thickness
REL-REF    (I,F0464001,T.W.Bonner+,J,PR,102,1348,1956) - detector
           description.
           (O,11227001,H.Bichsel+,J,PR,108,1025,1957) - neutron-
           induced reaction 10B(n,alpha).
HISTORY    (19800812C) Compilation Produced by RFNC-VNIIEF Sarov
           (19970507A) Subent 004 deleted (information moved to
           Subent 11227.003 (neutron-induced reaction).
           (19970512U) Last checking has been done.
           (19990321U)CNPD: corrected 4-dig. year and lower cases.
           (20210201A) SD: Corrections in all Subents.
ENDBIB              17
NOCOMMON             0          0
ENDSUBENT           20
SUBENT        A1498002   20210201   20210406   20210405       A096
BIB                  5         11
REACTION   (3-LI-7(A,N)5-B-10,,DA)
DETECTOR   (LONGC)
MONITOR    (3-LI-7(P,N)4-BE-7,,DA) - The cross section was
           obtained from a comparison of the yields of the
           7Li(p,n) and the 7Li(alpha,n) reactions from the same
           target carried out at bombarding energies such that
           the neutrons from each of the reactions had the same
           energy of 0.57 MeV.
STATUS     (CURVE) Fig.1 from Phys.Rev.,108(1957)1025
HISTORY    (20210201A) SD: SF9=EXP deleted from REACTION code.
           BIB updated. EN-ERR -> EN-ERR-DIG; DATA-ERR -> ERR-DIG.
ENDBIB              11
COMMON               2          3
EN-ERR-DIG ERR-DIG
MEV        MB/SR
  0.006     0.03
ENDCOMMON            3
DATA                 3        140
ANG        EN         DATA
ADEG       MEV        MB/SR
         0.      4.089       0.09
         0.      4.115       0.09
         0.      4.147       0.15
         0.      4.166       0.18
         0.      4.198       0.18
         0.      4.224       0.16
         0.      4.243       0.16
         0.      4.269       0.13
         0.      4.295       0.13
         0.      4.327       0.16
         0.      4.352       0.19
         0.      4.365       0.22
         0.      4.382       0.61
         0.      4.397       1.36
         0.      4.405       2.10
         0.      4.416       2.49
         0.      4.427       2.71
         0.      4.446       2.79
         0.      4.460       2.63
         0.      4.467       2.49
         0.      4.481       2.38
         0.      4.500       2.33
         0.      4.520       2.33
         0.      4.538       2.42
         0.      4.558       2.44
         0.      4.576       2.53
         0.      4.595       2.64
         0.      4.627       2.62
         0.      4.646       2.75
         0.      4.672       2.73
         0.      4.703       2.87
         0.      4.728       2.96
         0.      4.755       2.82
         0.      4.781       2.77
         0.      4.813       2.77
         0.      4.839       2.77
         0.      4.884       2.75
         0.      4.909       2.78
         0.      4.928       2.81
         0.      4.953       2.94
         0.      4.978       3.08
         0.      5.003       3.28
         0.      5.027       3.56
         0.      5.076       3.98
         0.      5.107       4.12
         0.      5.138       4.26
         0.      5.165       4.15
         0.      5.204       4.01
         0.      5.231       3.79
         0.      5.258       3.63
         0.      5.284       3.52
         0.      5.310       3.50
         0.      5.335       3.61
         0.      5.361       3.67
         0.      5.387       3.56
         0.      5.412       3.64
         0.      5.437       3.84
         0.      5.455       4.00
         0.      5.468       4.01
         0.      5.487       3.98
         0.      5.508       4.89
         0.      5.509       4.98
         0.      5.516       9.12
         0.      5.534      13.76
         0.      5.540      16.24
         0.      5.568      15.36
         0.      5.580      13.44
         0.      5.584      12.06
         0.      5.594      11.12
         0.      5.617       9.75
         0.      5.645       9.03
         0.      5.665       8.65
         0.      5.691       8.60
         0.      5.717       8.60
         0.      5.737       8.39
         0.      5.763       8.34
         0.      5.788       8.61
         0.      5.820       8.56
        90.      4.090       0.01
        90.      4.122       0.01
        90.      4.147       0.04
        90.      4.199       0.07
        90.      4.225       0.05
        90.      4.250       0.05
        90.      4.270       0.02
        90.      4.289       0.02
        90.      4.321       0.05
        90.      4.347       0.06
        90.      4.385       0.09
        90.      4.398       0.12
        90.      4.430       0.15
        90.      4.449       0.15
        90.      4.481       0.18
        90.      4.501       0.15
        90.      4.520       0.15
        90.      4.546       0.15
        90.      4.571       0.18
        90.      4.610       0.19
        90.      4.622       0.27
        90.      4.647       0.33
        90.      4.673       0.41
        90.      4.698       0.50
        90.      4.729       0.61
        90.      4.755       0.64
        90.      4.780       0.75
        90.      4.799       0.84
        90.      4.830       1.00
        90.      4.855       1.09
        90.      4.880       1.15
        90.      4.899       1.20
        90.      4.931       1.37
        90.      4.955       1.65
        90.      4.987       1.68
        90.      5.011       1.87
        90.      5.042       2.10
        90.      5.072       2.40
        90.      5.111       2.41
        90.      5.148       2.57
        90.      5.181       2.52
        90.      5.201       2.44
        90.      5.240       2.31
        90.      5.274       2.03
        90.      5.320       1.90
        90.      5.359       1.82
        90.      5.397       1.85
        90.      5.442       1.85
        90.      5.462       1.77
        90.      5.494       1.86
        90.      5.519       1.97
        90.      5.557       2.08
        90.      5.595       2.17
        90.      5.627       2.06
        90.      5.640       2.03
        90.      5.666       2.09
        90.      5.705       2.07
        90.      5.723       2.26
        90.      5.749       2.13
        90.      5.775       2.15
        90.      5.786       2.43
        90.      5.817       2.57
ENDDATA            142
ENDSUBENT          162
SUBENT        A1498003   20210201   20210406   20210405       A096
BIB                  8         13
REACTION   (3-LI-7(A,INL)3-LI-7,PAR,SIG)
DETECTOR   (NAICR) 1-inch by 1-inch
ANALYSIS   (4PI1A) The cross sections deduced from observations
           at 90 degr. Cross sections were estimated from target
           thickness and gamma-ray efficiency of the crystal.
MONITOR    (3-LI-7(A,INL)3-LI-7,PAR,SIG)
MONIT-REF  (,C.W.Li+,J,PR,96,389,1954) - in the text of the
           article the value 0.08 +- 0.015 b at 2.50 MeV is given.
ERR-ANALYS (DATA-ERR) No information about source of uncertainty
STATUS     (CURVE) Fig.2 from Phys.Rev.,108(1957)1025
HISTORY    (20210201A) SD: SF9=EXP deleted from REACTION code.
           BIB updated. EN-ERR -> EN-ERR-DIG; DATA-ERR -> ERR-DIG;
           ERR-T -> DATA-ERR.
ENDBIB              13
COMMON               7          6
E-LVL      EN-NRM     MONIT      MONIT-ERR  EN-ERR-DIG ERR-DIG
DATA-ERR
MEV        MEV        B          B          MEV        MB
PER-CENT
      0.477  2.50       0.08        0.015      0.008       0.45
    20.
ENDCOMMON            6
DATA                 2        183
EN         DATA
MEV        MB
      1.747      40.70
      1.754      49.26
      1.783      56.91
      1.798      66.81
      1.820      75.37
      1.835      84.82
      1.857      92.03
      1.885      96.07
      1.921      96.52
      1.950      91.56
      1.972      87.50
      1.993      80.29
      2.014      74.88
      2.028      68.57
      2.050      62.71
      2.064      58.65
      2.092      55.50
      2.107      50.54
      2.128      46.03
      2.149      42.87
      2.157      41.97
      2.178      40.62
      2.200      38.81
      2.214      37.01
      2.214      37.46
      2.235      35.20
      2.271      37.44
      2.279      37.89
      2.300      37.89
      2.322      41.04
      2.351      44.64
      2.358      45.08
      2.387      50.93
      2.401      54.53
      2.423      59.49
      2.445      63.08
      2.452      63.98
      2.474      69.83
      2.488      71.63
      2.503      72.98
      2.524      73.88
      2.546      74.78
      2.567      72.07
      2.589      70.71
      2.603      69.81
      2.639      66.65
      2.661      65.29
      2.689      63.04
      2.718      63.03
      2.754      62.12
      2.761      62.57
      2.783      62.57
      2.804      62.56
      2.819      63.46
      2.840      66.61
      2.855      69.31
      2.862      70.66
      2.891      76.06
      2.906      83.71
      2.927      87.31
      2.949      98.12
      2.964     109.80
      2.987     139.10
      3.003     172.00
      3.018     202.60
      3.048     238.60
      3.071     274.20
      3.106     235.90
      3.119     202.60
      3.132     174.70
      3.153     160.20
      3.174     148.10
      3.195     142.70
      3.217     137.70
      3.238     135.90
      3.253     136.30
      3.267     137.70
      3.274     138.10
      3.282     138.60
      3.318     141.30
      3.346     144.00
      3.354     144.40
      3.368     146.20
      3.390     150.30
      3.411     152.50
      3.426     152.50
      3.433     152.50
      3.447     153.40
      3.462     154.30
      3.476     157.90
      3.491     156.60
      3.498     157.50
      3.512     158.40
      3.534     159.70
      3.548     161.50
      3.599     161.00
      3.627     159.70
      3.649     159.70
      3.671     159.70
      3.706     161.00
      3.728     157.90
      3.742     157.90
      3.785     157.00
      3.814     152.40
      3.857     151.10
      3.893     149.30
      3.929     147.90
      3.965     145.70
      3.979     145.20
      4.001     144.30
      4.036     141.60
      4.065     138.90
      4.108     138.00
      4.144     134.80
      4.158     132.60
      4.173     130.80
      4.194     128.50
      4.237     127.10
      4.266     126.70
      4.295     130.30
      4.316     133.00
      4.331     134.80
      4.345     137.90
      4.345     140.20
      4.360     145.10
      4.367     149.20
      4.382     155.00
      4.396     157.30
      4.411     159.50
      4.425     156.80
      4.439     152.80
      4.446     149.20
      4.468     141.50
      4.482     139.30
      4.489     135.70
      4.532     135.60
      4.568     138.30
      4.597     139.20
      4.633     140.60
      4.654     141.50
      4.690     132.90
      4.740     129.30
      4.776     125.20
      4.819     123.40
      4.862     125.70
      4.898     130.20
      4.949     137.40
      5.006     138.30
      5.057     133.30
      5.092     123.80
      5.120     109.00
      5.177      93.63
      5.220      81.91
      5.256      74.70
      5.299      71.08
      5.327      71.08
      5.342      71.08
      5.370      70.17
      5.385      70.17
      5.413      69.26
      5.435      73.31
      5.457      73.31
      5.478      74.65
      5.500      76.45
      5.529      76.90
      5.543      80.50
      5.558      80.49
      5.572      81.84
      5.587      82.74
      5.608      85.44
      5.630      86.78
      5.637      87.23
      5.659      90.83
      5.680      93.98
      5.702      97.13
      5.717     101.20
      5.738     106.10
      5.760     112.40
      5.782     116.00
      5.840     122.80
      5.897     129.10
      5.963     150.20
      5.985     157.40
ENDDATA            185
ENDSUBENT          210
ENDENTRY             3
