ENTRY            41191   20091013   20100209   20100209       4148
SUBENT        41191001   20091013   20100209   20100209       4148
BIB                 13         36
TITLE       Gamma-ray multiplicity and ALPHA value measurement
            for U-235 resonances.
AUTHOR     (Yu.V.Grigoriev, G.P.Georgiev, Kh.Stanchik)
INSTITUTE  (4RUSFEI)   Grigoriev
           (4ZZZDUB)   Georgiev, Stanchik
REFERENCE  (J,YK,1994,(4),89,199505)  Data table is given .
           (R,INDC(CCP)-403,43,1997) Engl.translation of
                                     J,YK,1994,(4),89,1995 .
FACILITY   (REAC,4ZZZDUB)  Fast pulse reactor IBR-30.
            Boron carbide (of 10 mm thickness) filter or Cd filter
            of 1 mm thickness.
            Resonance filters of Mn and Co.
METHOD     (TOF)   Flight base is 500 m .
           (GSPEC) Gamma-spectra from 1 to 12 multiplicity were
            measured for resolved resonances in region 1- 150 eV.
DETECTOR   (NAICR) 16-section scintillator with NaI(Tl) crystals
            of total volume 32 litre.
MONITOR     Absolute measurements
ANALYSIS     Ratio of registration efficiencies of fission to
            capture was defined to be 1.033 by using 13 resonances
            of present work and results of REL-REF .
            Two resonances at 94.1 eV, fission wide 0.2 meV,
            average multiplicity 3.04 and at 44.86 eV, fission
            wide 660 meV, average multiplicity 4.38 were used to
            split multiplicity spectra into two components - of
            fission and radiative capture - and then ALF was
            defined.
REL-REF    (A,40840001,Yu.V.Adamchuk+,C,83KIEV,2,137,1983)
CORRECTION  For background.
STATUS     (TABLE)  Data are taken from Table of the reference.
HISTORY    (19960412C)  + + Compiled at the centre - CJD + +
           (19990824U)  . . Dates corrected
           (20090420A) M.M. BIB information was added.
            Free text was corrected to be human-readable.
            Subent 002 was corrected.
           (20091013A) Reference R,INDC(CCP)-403 was added.
ENDBIB              36
NOCOMMON             0          0
ENDSUBENT           39
SUBENT        41191002   20090420   20090724   20090724       4146
BIB                  4         17
REACTION  1(92-U-235(N,ABS),,ALF,,RES)
             Alpha- value at resonance.
          2(92-U-235(N,G)92-U-236,,MLT,,RES)
             Gamma-ray multiplicity at resonance.
SAMPLE      Metallic uranium disks in aluminum  foil of 0.15 mm
            thickness. Disks diameter is 45 mm, thickness 0.00137
            atoms/b (of weight about 8 g) and 0.00411 atoms/b,
            U-235 content is 90 % , U-238 content is 10 % .
ERR-ANALYS (DATA-ERR)  Errors are not specified, probably ERR-T.
                     At low and great alpha values error is 10 % ,
                     at intermediate alpha values errors are
                     from 3 to 7 % .
HISTORY    (20090420A) RES was added in Reaction 1.
            MISC was moved in Reaction 2 .
            EN -> EN-RES .
            DATA line for EN-RES=29.00 eV was deleted - no data
            value is given in Table for this work.
ENDBIB              17
NOCOMMON             0          0
DATA                 5        163
EN-RES     DATA      1DATA-ERR  1SPIN J     DATA      2
EV         NO-DIM     PER-CENT   NO-DIM     PRT/REAC
   1.460      2.13                 3.         3.51
   2.028      3.05                 3.         3.58
   3.147      0.59                 4.         4.61
   3.610      1.23                 4.         4.15
   4.840      4.64                 4.         3.51
   5.44       2.01                 4.         3.98
   6.38       3.46                 4.         3.71
   6.95       2.19                 3.         3.60
   7.08       1.22                 4.         4.15
   8.77       0.56                 4.         4.72
   8.97       0.66                 3.         4.18
   9.28       0.60                 4.         4.69
   9.73       0.44                 3.         4.52
  10.17       0.66                 4.         4.39
  11.67       6.35                 4.         3.51
  12.39       1.30                 3.         4.16
  12.43       1.63                 4.         4.02
  12.86       1.07                 4.         4.16
  13.25       1.01                 4.         4.19
  13.70       0.88                 4.         4.41
  14.00       0.36      10.        3.         4.85
  14.54       1.67                 3.         4.06
  15.40       0.95                 4.         4.33
  15.51       2.10                 4.         3.69
  16.08       1.88                 4.         3.98
  16.70       0.58                 4.         4.50
  18.05       0.72                 3.         3.50
  18.96       0.80                 4.         4.31
  19.30       0.81                 4.         4.44
  19.32       0.75                 3.         4.52
  20.10       0.59                 4.         4.27
  20.61       1.31                 4.         4.13
  21.07       1.52                 4.         4.11
  22.94       1.17                 4.         4.36
  23.42       3.66                 4.         3.79
  23.63       0.86                 3.         4.67
  24.23       1.77                 3.         4.19
  24.50       0.75                 4.         4.58
  24.80       0.55                 4.         4.66
  25.19       0.30                 4.         4.97
  25.60       0.46                 3.         4.82
  26.49       0.55                 4.         4.53
  26.52       0.55                 3.         4.84
  27.16       0.83                 3.         4.31
  27.78       0.83                 4.         4.60
  28.00       0.86                 3.         4.42
  28.36       0.76                 3.         4.46
  28.73       1.42                 4.         3.76
  29.65       1.99                 4.         3.91
  30.59       1.05                 3.         4.12
  30.87       2.33                 4.         3.75
  31.55       2.71                 4.         3.75
  32.03       0.80                 4.         4.47
  32.07       1.06                 3.         4.44
  33.52       1.35                 4.         4.10
  33.65       1.78                 3.         4.19
  34.37       1.19                 4.         4.28
  34.40       1.01                 3.         4.48
  34.86       0.58                 3.         4.65
  35.11       0.22      10.        4.         4.63
  35.20       0.22                 3.         4.48
  36.45       1.75                 4.         3.81
  37.20       2.19                 3.         3.82
  38.08       0.78                 3.         4.43
  38.36       0.58                 4.         4.47
  39.41       0.71                 4.         4.57
  39.93       0.75                 3.         4.54
  40.51       0.75                 4.         4.57
  41.33       0.66                 4.         4.62
  41.55       1.54                 3.         3.98
  41.88       2.10                 3.         3.86
  42.22       0.68                 4.         4.53
  42.70       3.17                 4.         3.63
  43.40       1.30                 3.         3.99
  43.94       0.76                 4.         4.48
  44.64       0.43      10.        4.         4.75
  44.86       0.53                 3.         4.75
  45.82       1.04                 4.         4.19
  46.79       0.80                 4.         4.36
  46.80       0.61                 3.         4.79
  46.90       0.65                 3.         4.65
  47.02       0.71                 4.         4.44
  47.97       0.95                 4.         4.29
  48.30       0.69                 3.         4.62
  48.55       1.35                 4.         4.14
  48.77       0.91                 3.         4.51
  49.45       2.45                 4.         3.87
  50.12       1.42                 3.         4.08
  50.40       0.71                 4.         4.42
  50.51       0.47                 3.         4.41
  51.11       0.56                 3.         4.69
  51.29       0.68                 4.         4.67
  51.63       0.53                 4.         4.71
  52.26       0.17                 3.         5.05
  52.90       0.86                 4.         4.55
  53.46       0.84                 3.         4.51
  54.13       0.63                 4.         4.38
  54.92       0.80                 3.         4.45
  55.07       0.97                 4.         4.36
  55.82       0.36                 4.         4.87
  55.90       0.41                 3.         4.90
  56.20       0.52                 3.         4.77
  56.50       0.63                 4.         4.64
  57.66       0.83                 3.         4.50
  57.81       0.62                 4.         4.68
  58.10       1.10                 3.         4.30
  58.67       0.59                 4.         4.69
  59.73       0.70                 4.         4.64
  60.20       0.42                 3.         4.77
  61.13       0.53                 3.         4.56
  62.40       0.94                 4.         4.09
  63.56       0.75                 3.         4.28
  63.80       0.56                 4.         4.61
  64.30       1.89                 4.         3.60
  65.01       7.48                 4.         3.04
  65.80       4.79                 3.         3.34
  66.14       9.01      10.        4.         3.14
  66.45       2.81                 4.         3.58
  66.52       1.68                 3.         3.11
  69.31       0.61                 4.         4.58
  69.45       0.58                 3.         4.59
  70.17       0.86                 4.         4.61
  70.37       0.47                 3.         4.77
  70.55       0.37      10.        4.         4.86
  70.83       0.68                 3.         4.81
  72.40       0.50                 4.         4.75
  72.91       0.99                 3.         4.31
  74.57       0.78                 3.         4.45
  74.62       0.67                 4.         4.61
  75.20       0.61                 4.         4.74
  75.50       0.45                 3.         4.75
  76.30       2.57                 4.         3.40
  77.50       0.98                 4.         4.28
  78.10       0.89                 3.         4.47
  78.25       0.98                 4.         4.32
  79.6        0.50                 3.         4.39
  79.7        0.70                 4.         4.32
  80.4        0.62                 3.         4.58
  80.9        1.89                 4.         3.83
  81.5        0.67                 3.         4.50
  83.6        1.48                 3.         3.93
  84.1        0.77                 4.         4.38
  88.2        0.52                 4.         4.38
  88.7        0.73                 3.         4.43
  91.3        0.79                 3.         4.37
  94.1        7.69                 4.         3.04
  97.9        0.93                 4.         4.12
  98.1        0.76                 3.         4.28
 102.9        2.90                 4.         3.38
 103.5        1.15                 4.         3.84
 106.1        1.23                 4.         4.04
 107.6        4.24                 3.         3.30
 109.8        4.98                 4.         3.26
 113.5        0.68                 4.         4.15
 121.9        1.00                 4.         4.25
 124.8        1.18                 4.         4.12
 128.2        1.02                 4.         4.28
 131.2        1.10                 4.         4.38
 131.6        0.85                 3.         4.47
 135.1        0.69                 4.         4.45
 135.4        0.99                 3.         4.28
 141.9        1.27                 3.         3.91
 145.4        1.15                 3.         4.04
ENDDATA            165
ENDSUBENT          187
ENDENTRY             2
