ENTRY            32852   20241014   20250113   20250113       3215
SUBENT        32852001   20241014   20250113   20250113       3215
BIB                 11         56
TITLE      Measurement of the neutron total cross sections of
           aluminum at the back-n white neutron source of CSNS
AUTHOR     (Xingyan Liu,Yiwei Yang,Rong Liu,Zhongwei Wen,Jiewen,
           Zijie Han,Yonghao Chen,Hantao Jing,Han Yi,Jie Bao,
           Zhizhou Ren,Qi An,Huaiyong Bai,Ping Cao,Qiping Chen,
           Pinjing Cheng,Zengqi Cui,Ruirui Fan,Changqing Feng,
           Minhao Gu,Fengqin Guo,Changcai Han,Guozhu He,
           Yongcheng He,Yuefeng He,Hanxiong Huang,Weiling Huang,
           Xiru Huang,Xiaolu Ji,Xuyang Ji,Haoyu Jiang,Wei Jiang,
           Ling Kang,Mingtao Kang,Bo Li,Lun Li,Qiang Li,Xiao Li,
           Yang Li,Yang Li,Shubin Liu,Guangyuan Luan,Yinglin Ma,
           Changjun Ning,Binbin Qi,Jie Ren,Xichao Ruan,
           Zhaohui Song,Hong Sun,Xiaoyang Sun,Zhijia Sun,
           Zhixin Tan,Hongqing Tang,Jingyu Tang,Pengcheng Wang,
           Qi Wang,Taofeng Wang,Yanfeng Wang,Zhaohui Wang,
           Zheng Wang,Qingbiao Wu,Xiaoguang Wu,Xuan Wu,Likun Xie,
           Li Yu,Tao Yu,Yongji Yu,Guohui Zhang,Jing Zhang,
           Linhao Zhang,Liying Zhang,Qingmin Zhang,Qiwei Zhang,
           Xianpeng Zhang,Yuliang Zhang,Zhiyong Zhang,
           Yingtan Zhao,Liang Zhou,Zuying Zhou,Danyang Zhu,
           Kejun Zhu,Peng Zhu)
INSTITUTE  (3CPRNPC,3CPRIHP,3CPRAEP,3CPRHST,3CPRBJG,3CPRNIX,
           3CPRBHN)
           (3CPRCPR) Spallation Neutron Source Science Center,
           Dongguan
           (3CPRCPR) State Key Laboratory of Particle Detection
           and Electronics, Beijing
           (3CPRCPR) University of South China, Hengyang
           (3CPRCPR) Xian Jiaotong University, Xian
REFERENCE  (J,EPJ/A,57,232,2021)
           #doi:10.1140/epja/s10050-021-00513-9
           (J,EPJ/A,57,252,2021)
           #doi:10.1140/epja/s10050-021-00556-y
           Erratum to J,EPJ/A,57,232,2021. In the original
           article the name of the second author was incorrectly
           written as Yiwei Zhang. His correct name is Yiwei Yang.
FACILITY   (SYNCH,3CPRIHP) Back-n white neutron source of China
           Spallation Neutron Source (CSNS)
INC-SOURCE (SPALL) Neutrons are produced via 1.6 GeV proton-
           induced spallation reactions on a Tungsten target.
           The incident proton pulse was in double-bunch mode,
           about 41 ns (FWHM) wide and 410 ns apart.
SAMPLE     Two thickness samples are used in the experiment to
           verify the self-consistency by comparing their
           results, with purity of 99.999% and density of 2.69
           g/cm3. The diameters are 70.10 +- 0.02 mm and 70.09
           +- 0.02 mm, the thicknesses are 40.00 +- 0.02 mm and
           60.18 +- 0.02 mm, the masses are 414.97 +- 0.01 mm
           and 624.52 +- 0.01 mm.
DETECTOR   (FISCH) A multi-layer fast fission chamber. There are
           three 235U and three 238U cells in the fission chamber.
METHOD     (TOF) A flight path about 76 m.
STATUS     (TABLE,,Xingyan Liu+,J,EPJ/A,57,232,2021)
            Data presented by author
HISTORY    (20241210R) The data received from Xing-Yan Liu
           (20241014C) Jimin Wang (CNDC)
ENDBIB              56
NOCOMMON             0          0
ENDSUBENT           59
SUBENT        32852002   20241014   20250113   20250113       3215
BIB                  5          9
REACTION  1(13-AL-27(N,TOT),,SIG)
          2(13-AL-27(N,TOT),,SIG)
SAMPLE    1 40 mm thick aluminum
          2 60 mm thick aluminum
COMMENT    The measured results with 235U cells
ERR-ANALYS (DATA-ERR) The uncertainty with 235U for 40 mm and 60
           mmthick aluminum is 0.7-22.3% and 0.6-12.4% in the
           energy range of 10 keV-20 MeV, respectively.
STATUS     (COREL,32852003) Data measured with 238U cells
ENDBIB               9
NOCOMMON             0          0
DATA                 5        732
EN         DATA      1DATA-ERR  1DATA      2DATA-ERR  2
EV         B          PER-CENT   B          PER-CENT
   1.00E+00    1.35259       4.53    1.44095       3.12
   1.02E+00    1.43440       4.11    1.36927       3.12
   1.05E+00    1.44009       3.87    1.42939       2.84
   1.07E+00    1.43897       3.61    1.52779       2.50
   1.10E+00    1.36155       3.60    1.44910       2.48
   1.12E+00    1.41161       3.36    1.46895       2.36
   1.15E+00    1.35241       3.60    1.40572       2.53
   1.17E+00    1.43951       3.76    1.48056       2.68
   1.20E+00    1.54872       4.14    1.44266       3.22
   1.23E+00    1.56593       4.96    1.50131       3.76
   1.26E+00    1.40366       6.34    1.54804       4.25
   1.29E+00    1.55789       6.33    1.43324       4.98
   1.32E+00    1.43602       7.14    1.33492       5.53
   1.35E+00    1.48107       7.15    1.53057       5.08
   1.38E+00    1.37130       8.00    1.41618       5.65
   1.41E+00    1.29992       8.71    1.46309       5.70
   1.45E+00    1.32506       8.81    1.50664       5.72
   1.48E+00    1.50539       7.91    1.35171       6.33
   1.51E+00    1.32822       9.06    1.39369       6.30
   1.55E+00    1.34821       9.12    1.42561       6.31
   1.58E+00    1.29850       9.49    1.39797       6.45
   1.62E+00    1.53745       8.22    1.26517       7.10
   1.66E+00    1.49582       8.38    1.45915       6.25
   1.70E+00    1.59780       7.96    1.46272       6.30
   1.74E+00    1.26650      10.12    1.28393       7.23
   1.78E+00    1.37836       9.30    1.49564       6.31
   1.82E+00    1.45528       8.93    1.52214       6.27
   1.86E+00    1.33571       9.63    1.65871       5.82
   1.91E+00    1.30475       9.80    1.50327       6.29
   1.95E+00    1.40572       8.77    1.36609       6.54
   2.00E+00    1.39183       7.66    1.38849       5.58
   2.04E+00    1.34134       7.13    1.30084       5.31
   2.09E+00    1.33655       8.81    1.42088       6.06
   2.14E+00    1.43549       9.47    1.38370       7.12
   2.19E+00    1.57446       8.99    1.57293       6.60
   2.24E+00    1.45317       9.83    1.53218       6.85
   2.29E+00    1.42740      10.21    1.48217       7.20
   2.34E+00    1.34096      11.35    1.28118       8.56
   2.40E+00    1.37183      11.18    1.49667       7.54
   2.45E+00    1.23899      12.45    1.33643       8.42
   2.51E+00    1.26266      12.77    1.43395       8.27
   2.57E+00    1.59157      10.55    1.39919       8.63
   2.63E+00    1.60048      10.89    1.60134       7.99
   2.69E+00    1.44180      13.18    1.24070      10.94
   2.75E+00    1.46708      11.40    1.41964       8.55
   2.82E+00    1.31461       9.96    1.40905       6.80
   2.88E+00    1.65214       7.13    1.53653       5.57
   2.95E+00    1.67703       6.64    1.41333       5.64
   3.02E+00    1.54263       6.38    1.43716       4.96
   3.09E+00    1.32164       6.05    1.42000       4.13
   3.16E+00    1.38774       5.44    1.40214       3.92
   3.24E+00    1.31818       7.50    1.36146       5.28
   3.31E+00    1.57121       7.98    1.38927       6.49
   3.39E+00    1.27339      10.00    1.35597       6.85
   3.47E+00    1.50189       7.16    1.44757       5.40
   3.55E+00    1.42170       5.19    1.38074       3.87
   3.63E+00    1.42744       4.61    1.44763       3.32
   3.72E+00    1.70409       7.46    1.52244       6.04
   3.80E+00    1.62109      16.02    1.72853      11.17
   3.89E+00    0.73679      47.48    1.40971      18.76
   3.98E+00    1.95686      18.71    1.83081      14.72
   4.07E+00    2.01148      18.64    1.68524      16.07
   4.17E+00    1.20545      30.26    1.36721      19.56
   4.27E+00    1.50980      22.85    1.60309      15.89
   4.37E+00    1.48113      23.33    1.24380      19.79
   4.47E+00    1.16331      28.20    1.30810      18.32
   4.57E+00    1.70571      17.51    1.59212      13.67
   4.68E+00    1.50864      16.81    1.31728      13.80
   4.79E+00    1.73956       8.57    1.47361       7.26
   4.90E+00    1.40953       9.44    1.33013       7.22
   5.01E+00    1.23546      17.60    1.41668      11.29
   5.13E+00    1.54303      12.89    1.48173       9.76
   5.25E+00    1.60748       9.99    1.46238       7.94
   5.37E+00    1.38764       9.06    1.48215       6.23
   5.50E+00    1.25778       8.84    1.39411       5.84
   5.62E+00    1.39034       7.88    1.51300       5.33
   5.75E+00    1.53579       7.20    1.39832       5.71
   5.89E+00    1.23892       8.54    1.31117       5.87
   6.03E+00    1.55427       5.54    1.58214       4.00
   6.17E+00    1.39286       4.62    1.38785       3.37
   6.31E+00    1.34004       3.72    1.45005       2.53
   6.46E+00    1.46582       3.52    1.47199       2.56
   6.61E+00    1.30895      11.59    1.45158       7.69
   6.76E+00    1.55022      12.30    1.36092      10.06
   6.92E+00    1.54241       7.65    1.50986       5.70
   7.08E+00    1.46180       4.08    1.41050       3.07
   7.24E+00    1.32213       9.63    1.31973       6.99
   7.41E+00    2.02121      12.92    1.41535      12.94
   7.59E+00    1.10383      27.19    1.37818      16.08
   7.76E+00    1.05242      33.89    1.78994      15.42
   7.94E+00    1.44553      19.80    1.34432      15.36
   8.13E+00    1.79718       9.84    1.53716       8.28
   8.32E+00    1.54150       7.14    1.46715       5.45
   8.51E+00    1.43772       3.66    1.37649       2.77
   8.71E+00    1.41265       1.43    1.41477       1.04
   8.91E+00    1.42479       1.63    1.43305       1.18
   9.12E+00    1.44461       3.03    1.36086       2.32
   9.33E+00    1.45356       3.04    1.40544       2.28
   9.55E+00    1.45214       4.91    1.46575       3.55
   9.77E+00    1.40401       5.96    1.53100       4.03
   1.00E+01    1.43554       7.80    1.26647       6.33
   1.02E+01    1.28872       7.19    1.36171       4.96
   1.05E+01    1.43392       8.92    1.43503       6.49
   1.07E+01    1.25582       9.54    1.33106       6.56
   1.10E+01    1.28133       9.20    1.40176       6.16
   1.12E+01    1.59421       7.32    1.56645       5.45
   1.15E+01    1.26771       6.22    1.42977       4.06
   1.17E+01    1.50688       4.25    1.47986       3.15
   1.20E+01    1.60173       5.16    1.53637       3.92
   1.23E+01    1.37709       2.09    1.38660       1.51
   1.26E+01    1.45345       2.92    1.43568       2.15
   1.29E+01    1.49288       5.47    1.44703       4.11
   1.32E+01    1.35456       6.84    1.35660       4.96
   1.35E+01    1.43733       5.70    1.53021       3.94
   1.38E+01    1.36428       4.07    1.39787       2.89
   1.41E+01    1.43382       3.42    1.39840       2.55
   1.45E+01    1.42054       4.62    1.39748       3.41
   1.48E+01    1.30304       9.36    1.48291       6.07
   1.51E+01    1.27233       7.70    1.45535       4.96
   1.55E+01    1.39039       4.78    1.40292       3.45
   1.58E+01    1.30979       7.41    1.40910       5.04
   1.62E+01    1.41243       4.87    1.40309       3.57
   1.66E+01    1.44137       4.09    1.42687       3.00
   1.70E+01    1.49446       6.07    1.48333       4.46
   1.74E+01    1.42558      10.60    1.45606       7.58
   1.78E+01    1.33691       5.56    1.44397       3.78
   1.82E+01    1.41320       3.76    1.36525       2.82
   1.86E+01    1.53591       5.91    1.36382       4.78
   1.91E+01    1.40905       2.50    1.39968       1.83
   1.95E+01    1.38564       2.10    1.40743       1.50
   2.00E+01    1.42637       6.57    1.42547       4.78
   2.04E+01    1.32437       6.98    1.41092       4.79
   2.09E+01    1.37455       3.90    1.38170       2.82
   2.14E+01    1.44351       5.23    1.41637       3.87
   2.19E+01    1.35788      16.39    1.54793      10.65
   2.24E+01    1.39664      12.85    1.51332       8.73
   2.29E+01    1.41047       4.51    1.41720       3.27
   2.34E+01    1.44734       3.35    1.38026       2.54
   2.40E+01    1.42858       4.36    1.42954       3.17
   2.45E+01    1.42748       4.28    1.47719       3.03
   2.51E+01    1.41173       4.05    1.47124       2.85
   2.57E+01    1.37741       3.97    1.40339       2.84
   2.63E+01    1.40615       4.94    1.42261       3.56
   2.69E+01    1.44984       5.76    1.38243       4.37
   2.75E+01    1.34808       5.94    1.36164       4.28
   2.82E+01    1.36640       4.91    1.50295       3.29
   2.88E+01    1.57240       7.77    1.53364       5.82
   2.95E+01    1.31112       9.48    1.47747       6.20
   3.02E+01    1.27115       9.46    1.42938       6.19
   3.09E+01    1.44818       4.86    1.36155       3.73
   3.16E+01    1.42807       4.41    1.45269       3.17
   3.24E+01    1.47468       2.94    1.45970       2.17
   3.31E+01    1.42454       5.01    1.48049       3.53
   3.39E+01    1.33339       3.46    1.28358       2.60
   3.47E+01    1.36805       2.27    1.42156       1.60
   3.55E+01    1.44607       2.28    1.42945       1.68
   3.63E+01    1.37022       6.58    1.49355       4.44
   3.72E+01    1.55998       7.16    1.53032       5.33
   3.80E+01    1.55457       5.57    1.55524       4.08
   3.89E+01    1.38899       5.13    1.46579       3.56
   3.98E+01    1.44278       3.53    1.39011       2.66
   4.07E+01    1.32701       5.69    1.35028       4.06
   4.17E+01    1.38850       3.66    1.40448       2.63
   4.27E+01    1.33527       5.71    1.35134       4.10
   4.37E+01    1.30597       5.18    1.33027       3.69
   4.47E+01    1.44141       4.38    1.49125       3.10
   4.57E+01    1.42561       6.82    1.53881       4.66
   4.68E+01    1.41076       4.25    1.41727       3.08
   4.79E+01    1.45164       4.46    1.51072       3.15
   4.90E+01    1.39345       4.23    1.38595       3.09
   5.01E+01    1.42996       3.70    1.42170       2.71
   5.13E+01    1.39302       2.15    1.42555       1.54
   5.25E+01    1.42998       2.65    1.45118       1.90
   5.37E+01    1.42282       4.42    1.42793       3.21
   5.50E+01    1.43334       2.51    1.39228       1.88
   5.62E+01    1.42414       1.71    1.42320       1.25
   5.75E+01    1.39033       3.08    1.40925       2.22
   5.89E+01    1.38028       3.45    1.39299       2.49
   6.03E+01    1.43125       3.57    1.41909       2.62
   6.17E+01    1.33221       5.36    1.36836       3.80
   6.31E+01    1.43939       5.57    1.43711       4.06
   6.46E+01    1.39657       6.48    1.37748       4.77
   6.61E+01    1.35684       7.61    1.38221       5.44
   6.76E+01    1.67240      11.25    1.37672       9.75
   6.92E+01    1.41202       4.46    1.41968       3.23
   7.08E+01    1.39424       2.50    1.39538       1.82
   7.24E+01    1.43299       3.14    1.39808       2.34
   7.41E+01    1.33499       3.94    1.40035       2.74
   7.59E+01    1.41332       4.15    1.35971       3.12
   7.76E+01    1.42355       4.78    1.34047       3.67
   7.94E+01    1.26482       5.75    1.36225       3.90
   8.13E+01    1.43331       4.88    1.45061       3.52
   8.32E+01    1.44211       3.61    1.39274       2.71
   8.51E+01    1.39859       3.50    1.36836       2.60
   8.71E+01    1.60115       4.76    1.55257       3.58
   8.91E+01    1.39370       4.66    1.38541       3.41
   9.12E+01    1.41004       3.62    1.41020       2.63
   9.33E+01    1.45504       4.38    1.45307       3.20
   9.55E+01    1.36957       4.97    1.49248       3.35
   9.77E+01    1.36120       4.92    1.37008       3.55
   1.00E+02    1.46961       8.67    1.51353       6.17
   1.02E+02    1.42431       5.42    1.47973       3.82
   1.05E+02    1.33679       4.67    1.42256       3.21
   1.07E+02    1.45233       4.62    1.50352       3.27
   1.10E+02    1.39076       5.59    1.38789       4.07
   1.12E+02    1.19463       8.18    1.32800       5.38
   1.15E+02    1.37053       5.71    1.37997       4.13
   1.17E+02    1.39855       3.85    1.29843       2.98
   1.20E+02    1.38484       4.55    1.49057       3.11
   1.23E+02    1.36340       3.79    1.42243       2.65
   1.26E+02    1.46078       3.34    1.37004       2.57
   1.29E+02    1.27195       8.70    1.30944       6.13
   1.32E+02    1.59505       6.57    1.49657       5.08
   1.35E+02    1.43890       4.69    1.48983       3.32
   1.38E+02    1.40210       7.63    1.45470       5.38
   1.41E+02    1.40413       4.72    1.37425       3.50
   1.45E+02    1.36321       5.32    1.44234       3.68
   1.48E+02    1.44293       4.10    1.47860       2.92
   1.51E+02    1.22963       6.35    1.36891       4.18
   1.55E+02    1.30679       6.07    1.36964       4.23
   1.58E+02    1.28615       5.83    1.26519       4.28
   1.62E+02    1.41690       4.55    1.43615       3.28
   1.66E+02    1.39013       4.49    1.44728       3.16
   1.70E+02    1.33800       4.90    1.40022       3.42
   1.74E+02    1.48257       4.71    1.55134       3.31
   1.78E+02    1.39045       3.30    1.43076       2.35
   1.82E+02    1.34614       5.57    1.37595       3.97
   1.86E+02    1.32624      10.77    1.33331       7.77
   1.91E+02    1.39493       6.16    1.41763       4.42
   1.95E+02    1.50912       5.52    1.50650       4.04
   2.00E+02    1.43893       3.74    1.39911       2.80
   2.04E+02    1.61270       4.81    1.51790       3.72
   2.09E+02    1.43079       5.19    1.45697       3.73
   2.14E+02    1.42756       4.07    1.43632       2.95
   2.19E+02    1.45270       4.93    1.42836       3.65
   2.24E+02    1.33111       4.27    1.38430       2.99
   2.29E+02    1.36223       4.75    1.38450       3.40
   2.34E+02    1.39657       4.76    1.44813       3.36
   2.40E+02    1.34143       3.82    1.42011       2.64
   2.45E+02    1.39622       5.25    1.36342       3.89
   2.51E+02    1.49330       4.95    1.49254       3.62
   2.57E+02    1.45007       5.17    1.42086       3.83
   2.63E+02    1.47172       3.54    1.35495       2.77
   2.69E+02    1.30780       3.67    1.35587       2.58
   2.75E+02    1.28951       4.10    1.34498       2.86
   2.82E+02    1.30431       6.34    1.27161       4.70
   2.88E+02    1.54126       3.94    1.41585       3.10
   2.95E+02    1.30168       6.38    1.40760       4.32
   3.02E+02    1.44059       5.12    1.47327       3.66
   3.09E+02    1.50398       5.94    1.44417       4.49
   3.16E+02    1.29909       5.61    1.33181       3.98
   3.24E+02    1.37783       5.37    1.37537       3.91
   3.31E+02    1.44476       7.39    1.42908       5.44
   3.39E+02    1.48191       6.97    1.48335       5.08
   3.47E+02    1.59957       6.82    1.36569       5.72
   3.55E+02    1.32513       7.23    1.42945       4.91
   3.63E+02    1.37528       6.13    1.37477       4.45
   3.72E+02    1.23082       7.98    1.25221       5.67
   3.80E+02    1.48433       5.28    1.42251       4.00
   3.89E+02    1.41411       7.14    1.41838       5.18
   3.98E+02    1.35499       6.87    1.39528       4.86
   4.07E+02    1.36493       6.40    1.38373       4.60
   4.17E+02    1.56370       4.87    1.50706       3.68
   4.27E+02    1.43297       5.05    1.44614       3.65
   4.37E+02    1.29682       4.77    1.38865       3.26
   4.47E+02    1.37090       5.42    1.34907       3.99
   4.57E+02    1.33644       5.26    1.42114       3.62
   4.68E+02    1.43262       4.17    1.40590       3.09
   4.79E+02    1.48372       3.73    1.41469       2.84
   4.90E+02    1.35883       5.81    1.45253       3.99
   5.01E+02    1.44733       3.82    1.43241       2.81
   5.13E+02    1.38692       3.98    1.38885       2.89
   5.25E+02    1.40950       4.51    1.42100       3.26
   5.37E+02    1.40623       4.53    1.37527       3.36
   5.50E+02    1.27364       6.79    1.41513       4.48
   5.62E+02    1.20454       5.71    1.29615       3.86
   5.75E+02    1.35373       4.41    1.31225       3.29
   5.89E+02    1.40141       4.37    1.39753       3.19
   6.03E+02    1.51157       4.46    1.52199       3.24
   6.17E+02    1.39932       4.95    1.42474       3.55
   6.31E+02    1.43063       4.63    1.43935       3.35
   6.46E+02    1.45881       4.99    1.40340       3.76
   6.61E+02    1.39405       5.89    1.43344       4.18
   6.76E+02    1.34930       5.04    1.36104       3.63
   6.92E+02    1.43521       5.17    1.39022       3.87
   7.08E+02    1.31902       5.00    1.31691       3.63
   7.24E+02    1.41047       6.10    1.39062       4.50
   7.41E+02    1.38397       6.10    1.34737       4.54
   7.59E+02    1.41579       5.33    1.40217       3.91
   7.76E+02    1.40851       4.24    1.43148       3.04
   7.94E+02    1.37232       5.80    1.47971       3.95
   8.13E+02    1.41338       6.51    1.30287       5.09
   8.32E+02    1.38233       7.04    1.36416       5.17
   8.51E+02    1.58045       5.12    1.41545       4.12
   8.71E+02    1.31325       5.86    1.40462       4.01
   8.91E+02    1.39057       5.00    1.35966       3.70
   9.12E+02    1.37117       4.81    1.38126       3.48
   9.33E+02    1.47074       4.21    1.43054       3.15
   9.55E+02    1.46750       7.50    1.40547       5.67
   9.77E+02    1.40082       6.48    1.35975       4.83
   1.00E+03    1.36757       6.45    1.37518       4.66
   1.02E+03    1.33280       6.61    1.38890       4.62
   1.05E+03    1.44661       4.41    1.35553       3.40
   1.07E+03    1.47592       4.19    1.44294       3.12
   1.10E+03    1.42291       8.20    1.45042       5.88
   1.12E+03    1.35428       7.28    1.53623       4.75
   1.15E+03    1.30355       5.83    1.37746       4.03
   1.17E+03    1.34169       4.95    1.42116       3.42
   1.20E+03    1.36470       5.71    1.40085       4.06
   1.23E+03    1.34900       5.31    1.39130       3.75
   1.26E+03    1.48734       5.81    1.47555       4.27
   1.29E+03    1.36220       5.65    1.38836       4.04
   1.32E+03    1.31174       5.78    1.28946       4.25
   1.35E+03    1.33995       4.63    1.33408       3.37
   1.38E+03    1.35317       4.42    1.36165       3.19
   1.41E+03    1.51349       6.54    1.27110       5.55
   1.45E+03    1.37474       5.74    1.36547       4.20
   1.48E+03    1.29272       6.03    1.34287       4.22
   1.51E+03    1.45888       7.01    1.39254       5.32
   1.55E+03    1.29935       6.75    1.35433       4.72
   1.58E+03    1.48577       5.18    1.35101       4.10
   1.62E+03    1.31446       6.02    1.35992       4.23
   1.66E+03    1.30397       5.53    1.46596       3.63
   1.70E+03    1.34762       5.16    1.33669       3.77
   1.74E+03    1.28304       4.90    1.35354       3.39
   1.78E+03    1.42631       6.15    1.30019       4.85
   1.82E+03    1.46932       5.75    1.37903       4.43
   1.86E+03    1.42013       5.62    1.33585       4.32
   1.91E+03    1.39391       4.85    1.37363       3.57
   1.95E+03    1.49665       4.35    1.37234       3.42
   2.00E+03    1.34096       5.02    1.32391       3.68
   2.04E+03    1.35621       6.52    1.38905       4.64
   2.09E+03    1.42756       6.78    1.32795       5.25
   2.14E+03    1.47513       5.90    1.32706       4.71
   2.19E+03    1.39537       6.13    1.38859       4.47
   2.24E+03    1.32853       6.72    1.26771       5.07
   2.29E+03    1.46590       5.94    1.43213       4.42
   2.34E+03    1.31229       6.41    1.39665       4.40
   2.40E+03    1.37756       6.83    1.33941       5.09
   2.45E+03    1.44633       5.66    1.42045       4.19
   2.51E+03    1.35451       5.88    1.30155       4.42
   2.57E+03    1.30906       5.50    1.34084       3.91
   2.63E+03    1.18055       7.67    1.33095       4.98
   2.69E+03    1.37758       7.52    1.39448       5.41
   2.75E+03    1.39784       5.17    1.27936       4.06
   2.82E+03    1.23573       6.66    1.25524       4.74
   2.88E+03    1.32543       5.54    1.35181       3.95
   2.95E+03    1.39230       5.88    1.36991       4.34
   3.02E+03    1.34630       6.23    1.30835       4.63
   3.09E+03    1.33135       6.45    1.35965       4.60
   3.16E+03    1.34049       6.74    1.31857       4.96
   3.24E+03    1.28431       6.19    1.39151       4.18
   3.31E+03    1.29618       5.77    1.32495       4.10
   3.39E+03    1.14864       6.59    1.20714       4.54
   3.47E+03    1.31836       6.73    1.25899       5.08
   3.55E+03    1.42645       5.75    1.39119       4.28
   3.63E+03    1.20471       6.24    1.21695       4.46
   3.72E+03    1.15931       6.07    1.20655       4.22
   3.80E+03    1.23777       6.70    1.33717       4.52
   3.89E+03    1.27427       7.51    1.29236       5.36
   3.98E+03    1.19604       6.99    1.33157       4.59
   4.07E+03    1.30101       6.33    1.32247       4.52
   4.17E+03    1.37405       5.92    1.34526       4.38
   4.27E+03    1.28172       6.42    1.38262       4.35
   4.37E+03    1.12660       7.30    1.14456       5.18
   4.47E+03    1.17141       6.83    1.26174       4.61
   4.57E+03    1.25569       6.67    1.20371       5.00
   4.68E+03    1.15026       6.73    1.24781       4.51
   4.79E+03    1.32583       5.85    1.21826       4.57
   4.90E+03    1.16987       7.39    1.26009       4.99
   5.01E+03    1.26580       5.99    1.20266       4.53
   5.13E+03    1.46501       5.81    1.35833       4.52
   5.25E+03    1.36460       6.12    1.28510       4.68
   5.37E+03    1.22648       6.44    1.25541       4.56
   5.50E+03    1.21052       6.15    1.16005       4.60
   5.62E+03    1.40676       5.71    1.38351       4.21
   5.75E+03    2.27416       4.12    2.13196       3.28
   5.89E+03    4.35127       2.58    4.01217       2.29
   6.03E+03    1.90240       4.35    1.84094       3.33
   6.17E+03    1.34768       7.10    1.29057       5.35
   6.31E+03    1.23086       6.91    1.19771       5.11
   6.46E+03    1.24204       6.78    1.26799       4.81
   6.61E+03    1.21441       6.81    1.20145       4.96
   6.76E+03    1.28517       6.59    1.27099       4.82
   6.92E+03    1.20406       6.57    1.16137       4.89
   7.08E+03    1.26708       6.78    1.24103       4.99
   7.24E+03    1.06380       7.94    1.12746       5.41
   7.41E+03    1.13850       6.75    1.09407       5.03
   7.59E+03    1.22805       7.84    1.19907       5.78
   7.76E+03    0.87895      11.36    1.12260       6.48
   7.94E+03    1.17177       8.52    1.01321       6.99
   8.13E+03    1.08674       8.86    1.11362       6.22
   8.32E+03    1.07627       8.56    1.20612       5.55
   8.51E+03    1.25140       7.17    1.10975       5.76
   8.71E+03    1.11229       7.50    1.17101       5.15
   8.91E+03    1.20757       7.08    1.23180       5.02
   9.12E+03    1.14234       6.70    1.10428       4.96
   9.33E+03    1.03028       7.88    0.99517       5.82
   9.55E+03    0.99330       9.25    1.10810       5.99
   9.77E+03    1.12110       7.24    1.12760       5.18
   1.00E+04    1.09383       7.60    1.07834       5.52
   1.01E+04    1.16144       7.10    1.10538       5.34
   1.03E+04    1.15014       7.91    1.10404       5.90
   1.06E+04    1.05677       7.63    1.02694       5.61
   1.08E+04    1.02664       7.95    0.99440       5.85
   1.11E+04    1.26439       6.37    1.28914       4.53
   1.13E+04    1.00293       8.13    0.92732       6.24
   1.16E+04    1.08554       6.97    1.14898       4.75
   1.19E+04    0.95812       9.01    1.12413       5.57
   1.21E+04    1.12737       7.01    1.00896       5.56
   1.24E+04    0.98884       8.90    1.06168       5.97
   1.27E+04    1.14737       8.07    0.97769       6.70
   1.30E+04    0.92665       8.53    0.92378       6.10
   1.33E+04    0.93426       8.36    0.94570       5.89
   1.36E+04    0.97357       8.54    0.96902       6.13
   1.39E+04    0.89649       9.06    0.98018       5.95
   1.43E+04    1.07613       6.97    0.99330       5.37
   1.46E+04    0.91238       8.66    0.82937       6.73
   1.49E+04    1.08042       6.96    0.99600       5.37
   1.53E+04    0.72634      10.85    0.85201       6.62
   1.56E+04    0.94709      10.19    0.89409       7.66
   1.60E+04    0.77493      12.07    0.85929       7.77
   1.64E+04    0.86264       9.56    0.90016       6.54
   1.68E+04    0.84656      10.35    0.93481       6.72
   1.71E+04    0.84983      10.35    0.86754       7.21
   1.75E+04    0.74990      11.01    0.70279       8.28
   1.80E+04    0.82714       9.25    0.76004       7.10
   1.84E+04    0.85225       9.51    0.83106       6.91
   1.88E+04    0.75930      10.80    0.75134       7.72
   1.92E+04    0.60298      13.45    0.56134      10.13
   1.97E+04    0.97980       7.85    0.93122       5.87
   2.01E+04    0.70184      10.31    0.76530       6.72
   2.06E+04    0.67890      11.24    0.66929       8.04
   2.11E+04    0.82170       9.70    0.67270       8.29
   2.16E+04    0.72414       9.74    0.69817       7.13
   2.21E+04    0.71851       8.90    0.68516       6.58
   2.26E+04    0.57769      12.32    0.51850       9.60
   2.31E+04    0.51313      14.95    0.53307      10.11
   2.37E+04    0.69830       9.61    0.54017       8.65
   2.42E+04    0.54206      11.55    0.59998       7.37
   2.48E+04    0.39994      15.07    0.35337      11.87
   2.54E+04    0.45248      12.08    0.44593       8.57
   2.60E+04    0.53907      10.33    0.55530       7.05
   2.66E+04    0.49532      12.07    0.52593       7.99
   2.72E+04    0.34249      22.26    0.43284      12.38
   2.78E+04    0.47061      21.35    0.75013       9.62
   2.85E+04    0.88422      11.15    0.76773       9.04
   2.91E+04    0.89532       9.40    0.91970       6.53
   2.98E+04    1.16173       6.94    1.32462       4.45
   3.05E+04    1.69230       4.85    1.69931       3.57
   3.12E+04    2.60742       3.17    2.51206       2.52
   3.19E+04    4.17280       2.31    4.34661       1.93
   3.27E+04    7.10772       1.76    6.73271       1.80
   3.34E+04   12.51199       1.82   13.18558       2.92
   3.42E+04   22.23474       3.51   17.27598       5.12
   3.50E+04   27.52793       5.50   18.01431       5.79
   3.58E+04   23.63652       4.03   20.24573       7.72
   3.67E+04   17.33356       2.41   16.63960       4.53
   3.75E+04   13.27788       1.77   12.97983       2.70
   3.84E+04    9.50816       1.67    9.67503       2.06
   3.93E+04    7.90832       1.60    8.06844       1.77
   4.02E+04    6.29308       1.64    6.12472       1.61
   4.11E+04    5.58794       1.69    5.31757       1.59
   4.21E+04    4.54142       1.83    4.83834       1.56
   4.31E+04    4.03360       1.95    3.92980       1.66
   4.41E+04    3.64455       2.10    3.72223       1.70
   4.51E+04    3.32344       2.23    3.22072       1.83
   4.61E+04    3.18246       2.21    3.11328       1.79
   4.72E+04    2.58329       2.55    2.79349       1.87
   4.83E+04    2.66980       2.47    2.47164       2.02
   4.94E+04    2.40174       2.77    2.36000       2.15
   5.06E+04    2.22739       3.15    2.26961       2.35
   5.18E+04    2.12088       3.20    2.05138       2.48
   5.30E+04    1.87940       3.44    1.84233       2.60
   5.42E+04    2.03531       3.09    1.89689       2.45
   5.55E+04    1.89736       3.22    1.85745       2.44
   5.68E+04    1.69476       3.58    1.74747       2.58
   5.81E+04    1.67407       3.37    1.66540       2.49
   5.95E+04    1.54243       3.75    1.64964       2.60
   6.08E+04    1.68960       3.20    1.64354       2.41
   6.23E+04    1.64471       3.42    1.57067       2.61
   6.37E+04    1.51372       3.66    1.44158       2.79
   6.52E+04    1.39380       3.97    1.42328       2.84
   6.67E+04    1.36214       3.89    1.47060       2.65
   6.83E+04    1.41461       3.75    1.47607       2.63
   6.98E+04    1.58949       3.22    1.42635       2.59
   7.15E+04    1.64521       3.26    1.68848       2.35
   7.31E+04    1.74092       2.97    1.88664       2.06
   7.48E+04    2.02956       2.96    2.07163       2.18
   7.66E+04    2.70086       2.20    2.69063       1.71
   7.84E+04    3.69055       1.66    3.62407       1.38
   8.02E+04    5.09745       1.39    5.33815       1.24
   8.21E+04    7.81670       1.16    7.79598       1.25
   8.40E+04   12.00631       1.43   11.88926       2.05
   8.59E+04   17.14521       1.76   17.90330       3.90
   8.79E+04   18.59321       1.96   18.17377       4.12
   9.00E+04   16.95200       1.63   15.84597       2.86
   9.21E+04   14.07705       1.35   13.25640       2.05
   9.42E+04   10.45009       1.17    9.92363       1.46
   9.64E+04    7.87996       1.15    7.84912       1.25
   9.87E+04    5.71080       1.26    5.85920       1.18
   1.01E+05    4.63894       1.35    4.72054       1.17
   1.03E+05    4.19131       1.42    4.18472       1.21
   1.06E+05    3.48021       1.56    3.40444       1.29
   1.08E+05    2.39043       2.05    2.38285       1.57
   1.11E+05    2.20788       2.22    2.22582       1.67
   1.13E+05    3.33310       1.61    3.20677       1.33
   1.16E+05    3.51737       1.47    3.46436       1.21
   1.19E+05    4.69436       1.22    4.17214       1.12
   1.21E+05    4.49318       1.27    3.96685       1.16
   1.24E+05    2.26306       1.99    2.25835       1.51
   1.27E+05    1.91664       2.14    1.79580       1.68
   1.30E+05    1.71130       2.51    1.70463       1.86
   1.33E+05    1.91019       2.26    1.92687       1.67
   1.36E+05    3.83840       1.28    3.62322       1.10
   1.39E+05    6.98450       1.03    7.11608       1.06
   1.43E+05    8.76303       1.04    9.22410       1.23
   1.46E+05   10.28590       1.00    9.97498       1.26
   1.49E+05   13.43678       1.09   13.64202       1.77
   1.53E+05   11.54662       0.98   11.62987       1.38
   1.56E+05   10.78262       0.96   10.59740       1.25
   1.60E+05   10.87160       0.97   10.65846       1.27
   1.64E+05    8.63961       0.91    8.39892       1.03
   1.68E+05    6.89199       0.91    6.93618       0.92
   1.71E+05    6.13198       0.97    6.11444       0.94
   1.75E+05    4.74674       1.05    4.88497       0.92
   1.80E+05    4.00789       1.15    3.96658       0.97
   1.84E+05    3.31461       1.28    3.41941       1.01
   1.88E+05    3.33803       1.33    3.38078       1.07
   1.92E+05    3.72934       1.26    3.71025       1.04
   1.97E+05    4.26056       1.10    4.22037       0.94
   2.01E+05    5.66788       0.96    5.71690       0.90
   2.06E+05    7.00886       0.85    6.80012       0.87
   2.11E+05    6.37709       0.88    6.15161       0.87
   2.16E+05    5.54059       0.90    5.49629       0.84
   2.21E+05    5.18541       0.95    5.17923       0.86
   2.26E+05    4.92031       0.98    4.86076       0.88
   2.31E+05    3.79662       1.13    3.74208       0.94
   2.37E+05    3.26347       1.23    3.29192       0.99
   2.42E+05    2.56035       1.41    2.68764       1.06
   2.48E+05    2.15358       1.66    2.31508       1.19
   2.54E+05    2.40305       1.52    2.39349       1.16
   2.60E+05    2.96117       1.27    2.81729       1.03
   2.66E+05    1.85606       1.81    1.71317       1.43
   2.72E+05    1.56570       2.07    1.53472       1.55
   2.78E+05    3.68776       1.09    3.64164       0.90
   2.85E+05    5.74480       0.83    5.67575       0.79
   2.91E+05    5.63259       0.81    5.67847       0.76
   2.98E+05    4.64165       0.89    4.56608       0.79
   3.05E+05    4.51893       0.89    4.52366       0.77
   3.12E+05    4.47349       0.89    4.55148       0.77
   3.19E+05    5.03475       0.84    5.00781       0.75
   3.27E+05    3.74835       0.98    3.70230       0.82
   3.34E+05    3.25404       1.08    3.25470       0.86
   3.42E+05    3.16865       1.06    3.14544       0.85
   3.50E+05    2.32631       1.32    2.34244       1.00
   3.58E+05    2.39856       1.30    2.45007       0.98
   3.67E+05    4.06317       0.91    3.85383       0.79
   3.75E+05    4.25088       0.85    4.12979       0.73
   3.84E+05    2.37872       1.31    2.16468       1.07
   3.93E+05    3.43708       1.00    3.37023       0.82
   4.02E+05    3.75878       0.94    3.65125       0.79
   4.11E+05    4.65451       0.82    4.57628       0.72
   4.21E+05    4.78389       0.81    4.61487       0.72
   4.31E+05    4.68202       0.82    4.56254       0.73
   4.41E+05    3.79878       0.93    3.78284       0.78
   4.51E+05    4.32325       0.84    4.32936       0.72
   4.61E+05    4.40396       0.80    4.43818       0.69
   4.72E+05    4.21860       0.83    4.27432       0.71
   4.83E+05    4.21993       0.83    4.13395       0.71
   4.94E+05    3.90122       0.85    3.87274       0.71
   5.06E+05    3.37048       0.93    3.38105       0.75
   5.18E+05    3.28059       0.95    3.32894       0.76
   5.30E+05    4.60239       0.75    4.48233       0.66
   5.42E+05    3.92250       0.82    3.91178       0.69
   5.55E+05    3.83735       0.83    3.78872       0.70
   5.68E+05    4.46195       0.75    4.40292       0.65
   5.81E+05    4.69071       0.74    4.65863       0.65
   5.95E+05    3.96360       0.80    3.94313       0.67
   6.08E+05    2.77261       1.02    2.68213       0.81
   6.23E+05    3.40488       0.88    3.43515       0.71
   6.37E+05    3.84864       0.81    3.88214       0.67
   6.52E+05    4.31794       0.75    4.27086       0.65
   6.67E+05    3.43926       0.88    3.41392       0.71
   6.83E+05    3.07521       0.95    3.04079       0.76
   6.98E+05    3.75023       0.82    3.64772       0.68
   7.15E+05    3.63135       0.83    3.58443       0.69
   7.31E+05    3.69575       0.82    3.60825       0.68
   7.48E+05    3.94854       0.79    3.93132       0.66
   7.66E+05    4.27174       0.76    4.23218       0.65
   7.84E+05    4.56109       0.73    4.41999       0.64
   8.02E+05    4.86864       0.70    4.65680       0.63
   8.21E+05    4.00245       0.79    3.92038       0.67
   8.40E+05    3.79522       0.82    3.77646       0.68
   8.59E+05    3.71564       0.83    3.68833       0.69
   8.79E+05    3.67009       0.84    3.71079       0.69
   9.00E+05    3.48345       0.86    3.46700       0.70
   9.21E+05    3.01130       0.96    3.02046       0.76
   9.42E+05    3.26229       0.88    3.29479       0.70
   9.64E+05    3.27720       0.89    3.24094       0.72
   9.87E+05    3.36087       0.89    3.23341       0.73
   1.01E+06    3.29823       0.90    3.17464       0.74
   1.03E+06    3.01047       0.96    3.03765       0.76
   1.06E+06    2.73005       1.04    2.73922       0.81
   1.08E+06    2.71586       1.04    2.69354       0.82
   1.11E+06    2.89420       0.99    2.83955       0.79
   1.13E+06    3.42254       0.89    3.39007       0.72
   1.16E+06    3.85532       0.82    3.75062       0.69
   1.19E+06    3.98640       0.81    3.91177       0.68
   1.21E+06    3.48486       0.89    3.48349       0.73
   1.24E+06    3.36427       0.92    3.34021       0.74
   1.27E+06    3.15845       0.97    3.20826       0.77
   1.30E+06    3.21229       0.96    3.21874       0.77
   1.33E+06    2.81911       1.08    2.81480       0.84
   1.36E+06    3.06208       1.00    2.98107       0.81
   1.39E+06    3.41841       0.93    3.40799       0.75
   1.43E+06    3.35183       0.95    3.36051       0.76
   1.46E+06    3.16967       0.99    3.12855       0.80
   1.49E+06    2.92791       1.05    2.88028       0.84
   1.53E+06    3.17791       1.00    3.12400       0.81
   1.56E+06    3.15479       1.00    3.09923       0.81
   1.60E+06    2.89768       1.09    2.94303       0.85
   1.64E+06    2.64874       1.17    2.66425       0.90
   1.68E+06    2.78956       1.12    2.76498       0.88
   1.71E+06    3.22521       1.00    3.22186       0.80
   1.75E+06    3.27193       1.00    3.25973       0.80
   1.80E+06    2.77600       1.13    2.73680       0.89
   1.84E+06    2.67691       1.16    2.66724       0.90
   1.88E+06    2.90693       1.10    2.85190       0.88
   1.92E+06    2.98426       1.10    2.99180       0.87
   1.97E+06    2.99457       1.10    2.96178       0.88
   2.01E+06    3.31734       1.01    3.31006       0.82
   2.06E+06    3.42036       0.99    3.39988       0.80
   2.11E+06    3.34130       1.02    3.31919       0.83
   2.16E+06    3.20118       1.06    3.18423       0.85
   2.21E+06    3.09281       1.09    3.10708       0.87
   2.26E+06    2.91048       1.16    2.95299       0.91
   2.31E+06    2.96067       1.14    2.95035       0.90
   2.37E+06    2.80598       1.20    2.70326       0.96
   2.42E+06    2.62778       1.28    2.59331       1.00
   2.48E+06    2.80774       1.21    2.80698       0.95
   2.54E+06    3.41384       1.05    3.42062       0.85
   2.60E+06    3.35793       1.08    3.34250       0.87
   2.66E+06    3.07642       1.13    3.00433       0.91
   2.72E+06    2.98887       1.16    2.92922       0.93
   2.78E+06    3.05821       1.14    2.99372       0.92
   2.85E+06    2.76150       1.23    2.70097       0.97
   2.91E+06    2.64635       1.28    2.64207       0.99
   2.98E+06    2.67261       1.26    2.66315       0.98
   3.05E+06    2.65949       1.27    2.62605       0.99
   3.12E+06    2.53256       1.34    2.52491       1.03
   3.19E+06    2.51371       1.37    2.53338       1.05
   3.27E+06    2.62238       1.33    2.60633       1.04
   3.34E+06    2.57078       1.37    2.57480       1.05
   3.42E+06    2.56938       1.39    2.55059       1.08
   3.50E+06    2.42240       1.48    2.44359       1.13
   3.58E+06    2.57716       1.42    2.58831       1.09
   3.67E+06    2.58623       1.42    2.60426       1.10
   3.75E+06    2.50209       1.46    2.56679       1.10
   3.84E+06    2.46699       1.51    2.48404       1.15
   3.93E+06    2.44687       1.55    2.40796       1.20
   4.02E+06    2.38480       1.60    2.37652       1.23
   4.11E+06    2.41479       1.58    2.36820       1.22
   4.21E+06    2.26247       1.67    2.32443       1.24
   4.31E+06    2.28296       1.66    2.29573       1.25
   4.41E+06    2.20337       1.69    2.26020       1.26
   4.51E+06    2.30685       1.62    2.26233       1.25
   4.61E+06    2.25976       1.62    2.29408       1.22
   4.72E+06    2.23679       1.64    2.22691       1.25
   4.83E+06    2.27209       1.66    2.29040       1.26
   4.94E+06    2.26620       1.64    2.26162       1.24
   5.06E+06    2.23804       1.66    2.27827       1.25
   5.18E+06    2.14100       1.76    2.22912       1.29
   5.30E+06    2.12649       1.76    2.12408       1.33
   5.42E+06    2.23992       1.66    2.21226       1.27
   5.55E+06    2.07534       1.81    2.07955       1.36
   5.68E+06    2.17260       1.76    2.09237       1.37
   5.81E+06    2.15509       1.76    2.11221       1.35
   5.95E+06    2.20280       1.73    2.14489       1.33
   6.08E+06    2.18710       1.73    2.14135       1.33
   6.23E+06    2.08799       1.80    2.06058       1.37
   6.37E+06    2.15367       1.68    2.09531       1.29
   6.52E+06    2.14658       1.67    2.03451       1.32
   6.67E+06    2.09858       1.67    2.03314       1.29
   6.83E+06    2.07997       1.69    2.00848       1.31
   6.98E+06    1.98881       1.72    1.96693       1.30
   7.15E+06    1.93444       1.75    1.91598       1.32
   7.31E+06    1.96831       1.72    1.92277       1.31
   7.48E+06    1.94060       1.76    1.89368       1.34
   7.66E+06    1.91807       1.78    1.88285       1.35
   7.84E+06    1.86332       1.85    1.89851       1.36
   8.02E+06    1.82565       1.91    1.80432       1.43
   8.21E+06    1.71669       2.02    1.74395       1.48
   8.40E+06    1.78971       1.97    1.79717       1.46
   8.59E+06    1.79241       2.02    1.72513       1.54
   8.79E+06    1.74412       2.05    1.71107       1.54
   9.00E+06    1.76244       2.04    1.73195       1.53
   9.21E+06    1.73036       2.07    1.76867       1.50
   9.42E+06    1.73034       2.16    1.68067       1.63
   9.64E+06    1.75717       2.16    1.69211       1.65
   9.87E+06    1.65523       2.36    1.71483       1.69
   1.01E+07    1.61311       2.42    1.68595       1.72
   1.03E+07    1.60314       2.42    1.65356       1.73
   1.06E+07    1.75467       2.30    1.72894       1.72
   1.08E+07    1.66076       2.48    1.72252       1.77
   1.11E+07    1.77405       2.38    1.73027       1.80
   1.13E+07    1.74121       2.44    1.68490       1.85
   1.16E+07    1.72967       2.48    1.77662       1.79
   1.19E+07    1.77298       2.42    1.78554       1.78
   1.21E+07    1.87335       2.18    1.82769       1.66
   1.24E+07    1.91455       2.13    1.88140       1.61
   1.27E+07    1.86765       2.16    1.90063       1.59
   1.30E+07    1.88880       2.19    1.86603       1.65
   1.33E+07    1.88303       2.19    1.78733       1.70
   1.36E+07    1.79047       2.27    1.83705       1.65
   1.39E+07    1.90467       2.13    1.94308       1.56
   1.43E+07    1.87258       2.16    1.88630       1.60
   1.46E+07    1.86127       2.21    1.89142       1.62
   1.49E+07    1.93045       2.13    1.90017       1.61
   1.53E+07    1.89369       2.17    1.92325       1.60
   1.56E+07    1.87013       2.19    1.90510       1.60
   1.60E+07    1.93013       2.11    1.91926       1.59
   1.64E+07    1.92441       2.12    1.93963       1.57
   1.68E+07    1.93838       2.13    1.94647       1.59
   1.71E+07    1.93579       2.19    1.95554       1.62
   1.75E+07    1.86737       2.27    1.93077       1.64
   1.80E+07    1.92532       2.18    1.91304       1.63
   1.84E+07    1.84238       2.28    1.87590       1.67
   1.88E+07    1.83293       2.32    1.83047       1.72
   1.92E+07    1.78842       2.38    1.79779       1.76
   1.97E+07    1.81191       2.36    1.81991       1.74
   2.01E+07    1.71714       2.51    1.79543       1.79
ENDDATA            734
ENDSUBENT          748
SUBENT        32852003   20241014   20250113   20250113       3215
BIB                  5          9
REACTION  1(13-AL-27(N,TOT),,SIG)
          2(13-AL-27(N,TOT),,SIG)
SAMPLE    1 40 mm thick aluminum
          2 60 mm thick aluminum
COMMENT    The measured results with 238U cells
ERR-ANALYS (DATA-ERR) The uncertainty with 238U for 40 mm and 60
           mmthick aluminum is 1.6-6.3% and 1.3-5.2% in the
           energy range of 1-20 MeV, respectively.
STATUS     (COREL,32852002) Data measured with 235U cells
ENDBIB               9
NOCOMMON             0          0
DATA                 5        132
EN         DATA      1DATA-ERR  1DATA      2DATA-ERR  2
EV         B          PER-CENT   B          PER-CENT
   1.00E+06    4.03603       5.19    3.82492       4.48
   1.02E+06    3.51636       5.84    3.34593       4.92
   1.05E+06    3.57493       5.87    3.44725       4.85
   1.07E+06    3.33556       5.46    3.24285       4.51
   1.10E+06    3.14921       5.39    3.11761       4.35
   1.12E+06    3.57293       4.81    3.34396       3.98
   1.15E+06    3.87138       4.61    3.68385       3.85
   1.17E+06    4.07358       5.32    3.93226       4.53
   1.20E+06    3.12862       6.22    3.12548       4.89
   1.23E+06    2.82513       6.65    3.13521       4.85
   1.26E+06    3.02648       5.92    2.91266       4.73
   1.29E+06    3.00338       4.91    2.93853       3.92
   1.32E+06    2.82195       4.30    2.83409       3.44
   1.35E+06    2.99908       3.26    3.10435       2.57
   1.38E+06    3.35996       2.37    3.29191       1.95
   1.41E+06    3.35996       2.11    3.42339       1.69
   1.44E+06    3.13694       2.00    3.05393       1.61
   1.48E+06    2.98286       2.06    2.88099       1.65
   1.51E+06    3.19099       1.86    3.21398       1.49
   1.55E+06    3.22377       1.84    3.12523       1.50
   1.58E+06    2.96186       1.94    2.94205       1.52
   1.62E+06    2.65144       2.12    2.68895       1.61
   1.66E+06    3.00317       1.93    2.96042       1.53
   1.70E+06    3.34617       1.74    3.29633       1.41
   1.74E+06    3.29008       1.74    3.21411       1.42
   1.78E+06    2.59499       2.06    2.63163       1.59
   1.82E+06    2.59182       2.07    2.59550       1.58
   1.86E+06    2.84734       1.84    2.89275       1.43
   1.90E+06    3.04443       1.73    3.00037       1.40
   1.95E+06    3.01003       1.78    2.99204       1.44
   1.99E+06    3.48304       1.56    3.24571       1.33
   2.04E+06    3.26328       1.67    3.24468       1.35
   2.09E+06    3.21191       1.65    3.16445       1.34
   2.14E+06    3.14950       1.73    3.20399       1.35
   2.19E+06    3.13468       1.75    3.20951       1.36
   2.24E+06    2.96687       1.78    2.96565       1.41
   2.29E+06    2.81404       1.93    2.92380       1.48
   2.34E+06    2.72949       2.02    2.74031       1.54
   2.40E+06    2.49682       2.21    2.54414       1.65
   2.45E+06    2.89334       1.94    2.83957       1.52
   2.51E+06    3.40188       1.74    3.50302       1.38
   2.57E+06    3.21804       1.80    3.33837       1.40
   2.63E+06    3.01159       1.93    2.92582       1.55
   2.69E+06    2.89539       1.93    2.82558       1.56
   2.75E+06    2.97022       1.87    2.80185       1.55
   2.82E+06    2.56244       2.15    2.59831       1.64
   2.88E+06    2.70976       2.01    2.65231       1.58
   2.95E+06    2.67148       1.98    2.66648       1.55
   3.02E+06    2.62882       2.02    2.58945       1.60
   3.09E+06    2.49282       2.17    2.41783       1.73
   3.16E+06    2.48389       2.15    2.48530       1.69
   3.23E+06    2.73417       1.93    2.63635       1.54
   3.31E+06    2.52627       2.10    2.47778       1.68
   3.39E+06    2.46348       2.11    2.52013       1.60
   3.47E+06    2.49388       2.19    2.52005       1.64
   3.55E+06    2.63980       2.10    2.54274       1.66
   3.63E+06    2.58822       2.17    2.54984       1.68
   3.71E+06    2.43807       2.28    2.43354       1.74
   3.80E+06    2.39340       2.30    2.44450       1.74
   3.89E+06    2.42367       2.40    2.50248       1.78
   3.98E+06    2.34775       2.41    2.41499       1.80
   4.07E+06    2.50610       2.28    2.47720       1.75
   4.17E+06    2.24018       2.47    2.29803       1.80
   4.26E+06    2.11432       2.77    2.14482       2.10
   4.36E+06    2.09765       2.86    2.07633       2.13
   4.47E+06    2.21909       2.70    2.17534       2.01
   4.57E+06    2.16053       2.81    2.17839       2.07
   4.68E+06    2.27782       2.49    2.28923       1.93
   4.78E+06    2.33680       2.50    2.30623       1.92
   4.90E+06    2.26251       2.49    2.25235       1.88
   5.01E+06    2.29396       2.47    2.26969       1.90
   5.13E+06    2.13386       2.74    2.25624       1.96
   5.25E+06    2.06372       2.64    2.21147       1.89
   5.37E+06    2.14062       2.52    2.19662       1.88
   5.49E+06    1.98223       2.79    1.99414       2.03
   5.62E+06    1.94497       2.80    2.09385       2.01
   5.75E+06    2.01093       2.67    1.98280       2.06
   5.89E+06    1.99301       2.60    2.05966       1.95
   6.02E+06    2.17481       2.38    2.15273       1.77
   6.16E+06    2.10645       2.28    2.09801       1.76
   6.31E+06    2.22788       2.12    2.09000       1.71
   6.45E+06    2.15064       2.07    2.16556       1.60
   6.60E+06    1.82757       2.43    1.94974       1.70
   6.76E+06    1.89554       2.29    1.93934       1.69
   6.92E+06    1.97111       2.23    1.95177       1.70
   7.08E+06    1.87380       2.33    1.83576       1.79
   7.24E+06    1.84194       2.39    1.85226       1.76
   7.41E+06    1.91248       2.34    1.86690       1.78
   7.58E+06    1.83034       2.55    1.77352       1.92
   7.76E+06    1.76156       2.79    1.77734       2.03
   7.94E+06    1.80066       2.70    1.76114       2.03
   8.13E+06    1.76712       2.67    1.73133       2.06
   8.31E+06    1.77621       2.77    1.74524       2.03
   8.51E+06    1.69358       3.01    1.68765       2.22
   8.71E+06    1.60219       3.25    1.66373       2.27
   8.91E+06    1.65344       3.28    1.70987       2.30
   9.12E+06    1.63404       3.29    1.62192       2.49
   9.33E+06    1.64211       3.45    1.61378       2.49
   9.55E+06    1.64440       3.55    1.64137       2.58
   9.77E+06    1.65134       3.77    1.72666       2.53
   1.00E+07    1.57596       3.91    1.59413       2.83
   1.02E+07    1.71821       3.64    1.62626       2.86
   1.05E+07    1.69953       3.84    1.71273       2.74
   1.07E+07    1.76018       3.56    1.79626       2.52
   1.10E+07    1.77616       3.43    1.79508       2.44
   1.12E+07    1.74877       3.55    1.80086       2.62
   1.15E+07    1.82053       3.50    1.83225       2.65
   1.17E+07    1.79410       3.63    1.76572       2.73
   1.20E+07    1.84821       3.22    1.93273       2.32
   1.23E+07    1.82128       3.17    1.91024       2.27
   1.26E+07    1.86247       3.07    1.88914       2.30
   1.29E+07    1.85546       3.18    1.78467       2.45
   1.32E+07    1.97944       3.09    1.91943       2.29
   1.35E+07    1.87922       2.98    1.86969       2.30
   1.38E+07    1.82651       3.08    1.90869       2.24
   1.41E+07    1.92520       2.95    1.90826       2.20
   1.44E+07    2.02933       2.69    1.97454       2.08
   1.48E+07    1.92895       2.72    1.89433       2.08
   1.51E+07    1.91407       2.75    1.88470       2.06
   1.55E+07    1.89748       2.78    1.90492       2.04
   1.58E+07    1.82888       2.86    1.89096       2.12
   1.62E+07    1.86922       2.70    1.88011       2.03
   1.66E+07    1.80599       2.84    1.85863       2.08
   1.70E+07    1.90707       2.78    1.90856       2.06
   1.74E+07    1.95841       2.74    1.84145       2.13
   1.78E+07    1.94357       2.63    1.86126       2.02
   1.82E+07    1.86672       2.79    1.82919       2.13
   1.86E+07    1.91958       2.68    1.92452       2.01
   1.90E+07    1.77005       2.92    1.83378       2.14
   1.95E+07    1.79492       2.93    1.75607       2.24
   1.99E+07    1.77748       2.95    1.81082       2.12
   2.04E+07    1.70937       3.09    1.83429       2.14
ENDDATA            134
ENDSUBENT          148
ENDENTRY             3
