ENTRY            30405     850121              20050926       0000
SUBENT        30405001     850121              20050926       0000
BIB                 10         28
INSTITUTE  (3AULCBR)
REFERENCE  (J,PR/B,135,(1),99,6407)
           (J,PL,4,286,63) BRIEF REP.OF TOTAL C.S. ONLY.
AUTHOR     (R.E.SHAMU,J.G.JENKIN)
TITLE      NEUTRON-ALPHA SCATTERING IN THE 20-MEV RANGE.
FACILITY   (VDGT) AUSTRALIAN NATIONAL UNIV.TANDEM ACCELERATOR.
INC-SOURCE (D-T)
           TRITIUM FILLED GAS TARGET.
SAMPLE     .THE HELIUM CONTAINED AT A PRESSURE OF ABOUT 180ATM IN
           A 70-CM LONG CELL, FOR TRANSMISSION MEASUREMENT.
            THE NUMBER OF HELIUM NUCLEI IN THE CELL WAS DETERMINED
           FROM WEIGHT MEASUREMENT.
           .FOR ANGULAR DISTRIBUTION AND HE4(N,D)T MEASUREMENTS,
           THE HELIUM SERVED BOTH AS A TARGET SAMPLE FOR INCIDENT
           NEUTRON AND AS PART (GAS SCINTILLATOR) OF THE DETECTION
           SYSTEM.
METHOD     .TRANSMISSION MEASUREMENT FOR TOTAL CROSS-SECTION.
           .DETECTION OF THE ENERGY SPECTRUM OF THE RECOILING
           ALPHA PARTICLES IN THE HIGH-PRESSURE GAS SCINTILLATOR,
           FOR ANGULAR DISTRIBUTION AND HE-4(N,D)T YIELD MEASURE-
           MENT.
STATUS     (SCSRS)
HISTORY    (770725T) DATA CONVERTED FROM SCISRS-1.
           (770725A) KO.-PREVIOUSLY APPEARED AS EXFOR 70168,
            BUT BIB-SECTION HAS BEEN REWRITTEN.-
           (831122U) DG.-CONVERSION FROM ISO-QUANT TO REACTION
                        FORMALISM.-
           (840508A) DG.-CHANGED DATA SECTION IN SUBENTRY 011.-
ENDBIB              28
NOCOMMON             0          0
ENDSUBENT           31
SUBENT        30405002     850121              20050926       0000
BIB                  6          7
REACTION   (2-HE-0(N,TOT),,SIG)
DETECTOR   (SCIN) PLASTIC SCINTILLATOR,2.2CM IN DIAM. AND 5CM LONG
MONITOR    ABSOLUTE. TRANSMISSION MEASUREMENT.
PART-DET   (N)
STATUS     FROM TABLE II OF PHYS.REV.135,(1964)B99.
            (PREVIOUSLY EXFOR 70168.013)
ERR-ANALYS STATISTICAL ERROR.
ENDBIB               7
NOCOMMON             0          0
DATA                 5         26
EN         EN-ERR     EN-RSL     DATA       DATA-ERR
MEV        MEV        KEV        MB         MB
 2.0000E+01 2.0000E-02 1.3000E+02 7.5100E+02 8.0000E+00
 2.1000E+01 2.0000E-02 1.2000E+02 7.2100E+02 8.0000E+00
 2.1850E+01 2.0000E-02 1.1000E+02 7.3000E+02 8.0000E+00
 2.2000E+01 1.0000E-02 4.0000E+01 7.1300E+02 1.5000E+01
 2.2050E+01 1.0000E-02 4.0000E+01 7.4500E+02 1.5000E+01
 2.2100E+01 1.0000E-02 4.0000E+01 8.2100E+02 1.5000E+01
 2.2130E+01 1.0000E-02 4.0000E+01 8.6300E+02 1.5000E+01
 2.2150E+01 1.0000E-02 4.0000E+01 8.8500E+02 1.5000E+01
 2.2180E+01 1.0000E-02 4.0000E+01 8.4000E+02 1.5000E+01
 2.2200E+01 1.0000E-02 4.0000E+01 8.0400E+02 1.5000E+01
 2.2230E+01 1.0000E-02 4.0000E+01 7.5800E+02 1.7000E+01
 2.2250E+01 1.0000E-02 4.0000E+01 8.0400E+02 1.4000E+01
 2.2280E+01 1.0000E-02 4.0000E+01 7.4300E+02 1.7000E+01
 2.2300E+01 1.0000E-02 4.0000E+01 7.5600E+02 1.6000E+01
 2.2350E+01 1.0000E-02 4.0000E+01 7.5000E+02 1.6000E+01
 2.2600E+01 2.0000E-02 1.0000E+02 7.1100E+02 1.2000E+01
 2.3000E+01 2.0000E-02 9.0000E+01 6.8500E+02 8.0000E+00
 2.4000E+01 2.0000E-02 8.0000E+01 6.5200E+02 8.0000E+00
 2.4500E+01 2.0000E-02 7.0000E+01 6.5900E+02 6.0000E+00
 2.4750E+01 2.0000E-02 7.0000E+01 6.3600E+02 6.0000E+00
 2.5000E+01 2.0000E-02 7.0000E+01 6.3300E+02 5.0000E+00
 2.5510E+01 2.0000E-02 7.0000E+01 6.1600E+02 8.0000E+00
 2.6000E+01 2.0000E-02 7.0000E+01 6.1200E+02 7.0000E+00
 2.7000E+01 2.0000E-02 6.0000E+01 5.9800E+02 8.0000E+00
 2.8000E+01 2.0000E-02 6.0000E+01 5.9100E+02 8.0000E+00
 2.9000E+01 2.0000E-02 6.0000E+01 5.7700E+02 1.2000E+01
ENDDATA             28
ENDSUBENT           40
SUBENT        30405003     850121              20050926       0000
BIB                  7         13
REACTION   (2-HE-4(N,EL)2-HE-4,,DA)
            INCIDENT NEUTRON ENERGY OF 16.4 MEV.
DETECTOR   (SCIN) HIGH-PRESSURE GAS SCINTILLATION COUNTER.
MONITOR    (2-HE-4(N,EL)2-HE-4,,SIG)
PART-DET   (A)
STATUS     DATA CONVERTED FROM SCISRS-1 (PRIV.COMM.).
            (PREVIOUSLY EXFOR 70168.002)
           CORRESPONDING TO FIG.4 OF PHYS.REV.135(1964)B99.
CORRECTION CORRECTIONS WERE APPLIED TO THE PULSE-HEIGHT DISTRI-
           BUTIONS FOR THE NEUTRON BACKGROUND AND FOR THE WALL
           EFFECT
ERR-ANALYS RELATIVE ERROR TABULATED, ASSUMING 10 PERCENT ERROR IN
           BACKGROUND.  NORMALIZATION ERROR ABOUT 5 PERCENT.
ENDBIB              13
COMMON               2          3
EN         EN-RSL
MEV        KEV
 1.6400E+01 7.0000E+02
ENDCOMMON            3
DATA                 3         62
COS-CM     DATA-CM    DATA-ERR
NO-DIM     MB/SR      MB/SR
 4.2800E-01 9.6180E+01 9.1000E-01
 4.0700E-01 9.1710E+01
 3.8600E-01 8.7240E+01 6.5000E-01
 3.6500E-01 8.1280E+01
 3.4400E-01 7.7210E+01
 3.2300E-01 7.3680E+01 5.0000E-01
 3.0100E-01 6.8080E+01
 2.8000E-01 6.4630E+01
 2.5900E-01 6.2160E+01
 2.3800E-01 5.8380E+01
 2.1700E-01 5.3940E+01 3.9000E-01
 1.9600E-01 5.2020E+01
 1.7500E-01 4.8240E+01
 1.5300E-01 4.3660E+01
 1.3200E-01 4.1770E+01
 1.1100E-01 3.8200E+01 3.4000E-01
 9.0000E-02 3.4970E+01
 6.9000E-02 3.2750E+01
 4.8000E-02 3.0970E+01
 2.6000E-02 2.8900E+01
 5.0000E-03 2.5770E+01 3.0000E-01
-1.6000E-02 2.3950E+01
-3.7000E-02 2.2610E+01
-5.8000E-02 2.0650E+01
-7.9000E-02 1.8320E+01
-1.0100E-01 1.6830E+01 3.0000E-01
-1.2200E-01 1.5810E+01
-1.4300E-01 1.4390E+01
-1.6400E-01 1.3810E+01
-1.8500E-01 1.2000E+01
-2.0600E-01 1.1520E+01 3.0000E-01
-2.2700E-01 1.0250E+01
-2.4900E-01 1.0070E+01
-2.7000E-01 9.3100E+00
-2.9100E-01 8.4700E+00
-3.1200E-01 8.3200E+00 2.2000E-01
-3.3300E-01 7.6000E+00
-3.5400E-01 7.9600E+00
-3.7600E-01 7.2000E+00
-3.9700E-01 7.6700E+00
-4.1800E-01 7.8900E+00 1.9000E-01
-4.3900E-01 8.6900E+00
-4.6000E-01 8.9400E+00
-4.8100E-01 9.0600E+00
-5.0300E-01 9.7800E+00
-5.2400E-01 1.0360E+01 1.7000E-01
-5.4500E-01 1.1230E+01
-5.6600E-01 1.1850E+01
-5.8700E-01 1.2400E+01
-6.0800E-01 1.3990E+01
-6.3000E-01 1.4320E+01 1.5000E-01
-6.5100E-01 1.5560E+01
-6.7200E-01 1.7700E+01
-6.9300E-01 1.8650E+01
-7.1400E-01 1.9590E+01
-7.3500E-01 2.1740E+01 1.2000E-01
-7.5600E-01 2.2430E+01
-7.7800E-01 2.4680E+01
-7.9900E-01 2.5880E+01
-8.2000E-01 2.7590E+01
-8.4100E-01 2.8610E+01 1.0000E-01
-8.6200E-01 3.1440E+01
ENDDATA             64
ENDSUBENT           86
SUBENT        30405004     850121              20050926       0000
BIB                  7         13
REACTION   (2-HE-4(N,EL)2-HE-4,,DA)
            INCIDENT NEUTRON ENERGY OF 20.0 MEV.
DETECTOR   (SCIN) HIGH-PRESSURE GAS SCINTILLATION COUNTER.
MONITOR    (2-HE-4(N,EL)2-HE-4,,SIG)
PART-DET   (A)
STATUS     DATA CONVERTED FROM SCISRS-1 (PRIV.COMM.).
            (PREVIOUSLY EXFOR 70168.003)
           CORRESPONDING TO FIG.4 OF PHYS.REV.135(1964)B99.
CORRECTION CORRECTIONS WERE APPLIED TO THE PULSE-HEIGHT DISTRI-
           BUTIONS FOR THE NEUTRON BACKGROUND AND FOR THE WALL
           EFFECT
ERR-ANALYS RELATIVE ERROR TABULATED, ASSUMING 10 PERCENT ERROR IN
           BACKGROUND.  NORMALIZATION ERROR ABOUT 5 PERCENT.
ENDBIB              13
COMMON               2          3
EN         EN-RSL
MEV        KEV
 2.0000E+01 1.7000E+02
ENDCOMMON            3
DATA                 3         62
COS-CM     DATA-CM    DATA-ERR
NO-DIM     MB/SR      MB/SR
 3.5000E-01 6.3070E+01 9.6000E-01
 3.3000E-01 5.7790E+01
 3.1000E-01 5.3510E+01
 2.8900E-01 4.8610E+01 8.1000E-01
 2.6900E-01 4.6990E+01
 2.4900E-01 4.5160E+01
 2.2900E-01 4.1680E+01 6.9000E-01
 2.0800E-01 3.9470E+01
 1.8800E-01 3.7050E+01
 1.6800E-01 3.4360E+01
 1.4700E-01 3.2460E+01
 1.2700E-01 2.9770E+01 6.1000E-01
 1.0700E-01 2.7980E+01
 8.6000E-02 2.5980E+01
 6.6000E-02 2.4050E+01
 4.6000E-02 2.2460E+01
 2.6000E-02 2.1250E+01 5.6000E-01
 5.0000E-03 1.9150E+01
-1.5000E-02 1.8180E+01
-3.5000E-02 1.6530E+01
-5.6000E-02 1.5210E+01
-7.6000E-02 1.3520E+01 5.2000E-01
-9.6000E-02 1.2390E+01
-1.1700E-01 1.1800E+01
-1.3700E-01 1.0880E+01
-1.5700E-01 9.9900E+00
-1.7700E-01 9.7500E+00 4.6000E-01
-1.9800E-01 8.2100E+00
-2.1800E-01 7.8000E+00
-2.3800E-01 7.1400E+00
-2.5900E-01 6.8700E+00
-2.7900E-01 6.4900E+00 4.4000E-01
-2.9900E-01 6.1800E+00
-3.2000E-01 5.9300E+00
-3.4000E-01 6.0000E+00
-3.6000E-01 6.0400E+00
-3.8000E-01 5.6900E+00 4.2000E-01
-4.0100E-01 5.7600E+00
-4.2100E-01 5.9700E+00
-4.4100E-01 6.3100E+00
-4.6200E-01 6.3500E+00
-4.8200E-01 6.9300E+00 4.0000E-01
-5.0200E-01 6.8300E+00
-5.2300E-01 7.4900E+00
-5.4300E-01 8.0700E+00
-5.6300E-01 8.0000E+00
-5.8300E-01 9.5900E+00 3.8000E-01
-6.0400E-01 1.0010E+01
-6.2400E-01 1.0830E+01
-6.4400E-01 1.1940E+01
-6.6500E-01 1.2390E+01
-6.8500E-01 1.3210E+01 3.5000E-01
-7.0500E-01 1.4520E+01
-7.2600E-01 1.5390E+01
-7.4600E-01 1.6420E+01
-7.6600E-01 1.7770E+01
-7.8600E-01 1.9110E+01 3.1000E-01
-8.0700E-01 2.0150E+01
-8.2700E-01 2.1630E+01
-8.4700E-01 2.3180E+01
-8.6800E-01 2.4320E+01
-8.8800E-01 2.5880E+01 2.7000E-01
ENDDATA             64
ENDSUBENT           86
SUBENT        30405005     850121              20050926       0000
BIB                  7         13
REACTION   (2-HE-4(N,EL)2-HE-4,,DA)
            INCIDENT NEUTRON ENERGY OF 21.0 MEV.
DETECTOR   (SCIN) HIGH-PRESSURE GAS SCINTILLATION COUNTER.
MONITOR    (2-HE-4(N,EL)2-HE-4,,SIG)
PART-DET   (A)
STATUS     DATA CONVERTED FROM SCISRS-1 (PRIV.COMM.).
            (PREVIOUSLY EXFOR 70168.004)
           CORRESPONDING TO FIG.4 OF PHYS.REV.135(1964)B99.
CORRECTION CORRECTIONS WERE APPLIED TO THE PULSE-HEIGHT DISTRI-
           BUTIONS FOR THE NEUTRON BACKGROUND AND FOR THE WALL
           EFFECT
ERR-ANALYS RELATIVE ERROR TABULATED, ASSUMING 10 PERCENT ERROR IN
           BACKGROUND.  NORMALIZATION ERROR ABOUT 5 PERCENT.
ENDBIB              13
COMMON               2          3
EN         EN-RSL
MEV        KEV
 2.1000E+01 1.7000E+02
ENDCOMMON            3
DATA                 3         64
COS-CM     DATA-CM    DATA-ERR
NO-DIM     MB/SR      MB/SR
 3.9700E-01 6.6550E+01 1.1000E+00
 3.7700E-01 6.3980E+01
 3.5700E-01 6.0260E+01
 3.3700E-01 5.7090E+01 8.9000E-01
 3.1700E-01 5.3050E+01
 2.9600E-01 5.0650E+01
 2.7600E-01 4.7100E+01
 2.5600E-01 4.4590E+01
 2.3600E-01 4.1380E+01 7.5000E-01
 2.1600E-01 3.9300E+01
 1.9600E-01 3.6120E+01
 1.7600E-01 3.4210E+01
 1.5600E-01 3.2320E+01
 1.3600E-01 2.9740E+01 6.9000E-01
 1.1600E-01 2.7830E+01
 9.5000E-02 2.6110E+01
 7.5000E-02 2.3970E+01
 5.5000E-02 2.3050E+01
 3.5000E-02 2.1160E+01 6.3000E-01
 1.5000E-02 1.9480E+01
-5.0000E-03 1.7760E+01
-2.5000E-02 1.6470E+01
-4.5000E-02 1.5470E+01
-6.5000E-02 1.3840E+01 5.8000E-01
-8.5000E-02 1.2930E+01
-1.0600E-01 1.2010E+01
-1.2600E-01 1.1150E+01
-1.4600E-01 1.0350E+01
-1.6600E-01 9.4100E+00 5.3000E-01
-1.8600E-01 8.4700E+00
-2.0600E-01 8.2700E+00
-2.2600E-01 7.5800E+00
-2.4600E-01 6.9800E+00
-2.6600E-01 6.6900E+00 5.0000E-01
-2.8600E-01 6.3200E+00
-3.0700E-01 5.7200E+00
-3.2700E-01 5.5500E+00
-3.4700E-01 5.3800E+00
-3.6700E-01 5.0300E+00 4.7000E-01
-3.8700E-01 5.4300E+00
-4.0700E-01 5.3200E+00
-4.2700E-01 5.5200E+00
-4.4700E-01 5.5200E+00
-4.6700E-01 5.4600E+00 4.4000E-01
-4.8700E-01 6.1200E+00
-5.0800E-01 6.3500E+00
-5.2800E-01 6.7800E+00
-5.4800E-01 7.2600E+00
-5.6800E-01 8.1500E+00 4.1000E-01
-5.8800E-01 8.4700E+00
-6.0800E-01 9.5200E+00
-6.2800E-01 9.7200E+00
-6.4800E-01 1.0900E+01
-6.6800E-01 1.1640E+01 3.5000E-01
-6.8800E-01 1.2440E+01
-7.0900E-01 1.3610E+01
-7.2900E-01 1.4470E+01
-7.4900E-01 1.5700E+01
-7.6900E-01 1.6450E+01 3.0000E-01
-7.8900E-01 1.7300E+01
-8.0900E-01 1.8700E+01
-8.2900E-01 1.9590E+01
-8.4900E-01 2.0990E+01
-8.6900E-01 2.2590E+01 2.4000E-01
ENDDATA             66
ENDSUBENT           88
SUBENT        30405006     850121              20050926       0000
BIB                  7         13
REACTION   (2-HE-4(N,EL)2-HE-4,,DA)
            INCIDENT NEUTRON ENERGY OF 21.85 MEV.
DETECTOR   (SCIN) HIGH-PRESSURE GAS SCINTILLATION COUNTER.
MONITOR    (2-HE-4(N,EL)2-HE-4,,SIG)
PART-DET   (A)
STATUS     DATA CONVERTED FROM SCISRS-1 (PRIV.COMM.).
            (PREVIOUSLY EXFOR 70168.005)
           CORRESPONDING TO FIG.5 OF PHYS.REV.135(1964)B99.
CORRECTION CORRECTIONS WERE APPLIED TO THE PULSE-HEIGHT DISTRI-
           BUTIONS FOR THE NEUTRON BACKGROUND AND FOR THE WALL
           EFFECT
ERR-ANALYS RELATIVE ERROR TABULATED, ASSUMING 10 PERCENT ERROR IN
           BACKGROUND.  NORMALIZATION ERROR ABOUT 5 PERCENT.
ENDBIB              13
COMMON               2          3
EN         EN-RSL
MEV        KEV
 2.1850E+01 1.7000E+02
ENDCOMMON            3
DATA                 3         71
COS-CM     DATA-CM    DATA-ERR
NO-DIM     MB/SR      MB/SR
 4.1000E-01 6.7130E+01 1.6000E+00
 3.9200E-01 6.3440E+01
 3.7300E-01 5.9600E+01
 3.5500E-01 5.8440E+01 1.2000E+00
 3.3600E-01 5.5170E+01
 3.1800E-01 5.3220E+01
 3.0000E-01 5.0140E+01 9.7000E-01
 2.8100E-01 4.7310E+01
 2.6300E-01 4.3490E+01
 2.4400E-01 4.0570E+01
 2.2600E-01 3.9470E+01 8.6000E-01
 2.0700E-01 3.7030E+01
 1.8900E-01 3.4250E+01
 1.7100E-01 3.1660E+01
 1.5200E-01 3.0620E+01
 1.3400E-01 2.8520E+01 7.8000E-01
 1.1500E-01 2.6630E+01
 9.7000E-02 2.4800E+01
 7.8000E-02 2.3670E+01
 6.0000E-02 2.1500E+01
 4.1000E-02 2.0560E+01 7.1000E-01
 2.3000E-02 1.9090E+01
 5.0000E-03 1.7200E+01
-1.4000E-02 1.6200E+01
-3.2000E-02 1.5280E+01
-5.1000E-02 1.4030E+01 6.7000E-01
-6.9000E-02 1.3150E+01
-8.8000E-02 1.2810E+01
-1.0600E-01 1.1410E+01
-1.2400E-01 1.0190E+01
-1.4300E-01 1.0370E+01 6.3000E-01
-1.6100E-01 9.2100E+00
-1.8000E-01 8.2700E+00
-1.9800E-01 7.8400E+00
-2.1700E-01 7.2600E+00
-2.3600E-01 6.6200E+00 6.0000E-01
-2.5400E-01 6.3700E+00
-2.7300E-01 6.3100E+00
-2.9100E-01 5.8000E+00
-3.0900E-01 5.0900E+00
-3.2800E-01 5.5800E+00 5.7000E-01
-3.4600E-01 4.9100E+00
-3.6500E-01 4.6700E+00
-3.8300E-01 4.7600E+00
-4.0100E-01 4.9400E+00
-4.2000E-01 5.2500E+00 5.4000E-01
-4.3800E-01 5.2200E+00
-4.5700E-01 5.4600E+00
-4.7500E-01 5.4900E+00
-4.9300E-01 6.1900E+00
-5.1200E-01 6.3700E+00 5.1000E-01
-5.3000E-01 6.4700E+00
-5.4800E-01 7.1100E+00
-5.6700E-01 7.6400E+00
-5.8500E-01 8.2500E+00
-6.0400E-01 8.3700E+00 4.9000E-01
-6.2200E-01 9.1800E+00
-6.4100E-01 9.3900E+00
-6.5900E-01 1.0430E+01
-6.7700E-01 1.1410E+01
-6.9600E-01 1.1960E+01 4.4000E-01
-7.1400E-01 1.2930E+01
-7.3300E-01 1.3570E+01
-7.5100E-01 1.4270E+01
-7.7000E-01 1.5400E+01
-7.8800E-01 1.6650E+01 3.9000E-01
-8.0600E-01 1.7440E+01
-8.2500E-01 1.8420E+01
-8.4300E-01 1.9670E+01
-8.6200E-01 2.0830E+01
-8.8000E-01 2.1690E+01 3.5000E-01
ENDDATA             73
ENDSUBENT           95
SUBENT        30405007     850121              20050926       0000
BIB                  8         15
REACTION   (2-HE-4(N,EL)2-HE-4,,DA)
            INCIDENT NEUTRON ENERGY OF 22.6 MEV.
DETECTOR   (SCIN) HIGH-PRESSURE GAS SCINTILLATION COUNTER.
MONITOR    (2-HE-4(N,EL)2-HE-4,,SIG)
PART-DET   (A)
COMMENT    NO DATA WERE OBTAINED NEAR COS(THETA)=+0.2 BECAUSE OF
           THE PRESENCE OF DISINTEGRATION PARTICLES FROM HE4(N,D)T
STATUS     DATA CONVERTED FROM SCISRS-1 (PRIV.COMM.).
            (PREVIOUSLY EXFOR 70168.006)
           CORRESPONDING TO FIG.5 OF PHYS.REV.135(1964)B99.
CORRECTION CORRECTIONS WERE APPLIED TO THE PULSE-HEIGHT DISTRI-
           BUTIONS FOR THE NEUTRON BACKGROUND AND FOR THE WALL
           EFFECT
ERR-ANALYS RELATIVE ERROR TABULATED, ASSUMING 10 PERCENT ERROR IN
           BACKGROUND.  NORMALIZATION ERROR ABOUT 5 PERCENT.
ENDBIB              15
COMMON               2          3
EN         EN-RSL
MEV        KEV
 2.2600E+01 1.7000E+02
ENDCOMMON            3
DATA                 3         63
COS-CM     DATA-CM    DATA-ERR
NO-DIM     MB/SR      MB/SR
 4.1600E-01 5.5840E+01 1.6000E+00
 3.9800E-01 5.3750E+01
 3.8100E-01 5.1970E+01 1.2000E+00
 3.6300E-01 5.0650E+01
 3.4500E-01 4.8690E+01 1.0000E+00
 1.3300E-01 2.2410E+01
 1.1500E-01 2.0820E+01
 9.7000E-02 1.9340E+01 7.8000E-01
 8.0000E-02 1.7940E+01
 6.2000E-02 1.7190E+01
 4.4000E-02 1.6220E+01
 2.7000E-02 1.5120E+01
 9.0000E-03 1.4200E+01 7.3000E-01
-9.0000E-03 1.2940E+01
-2.7000E-02 1.2800E+01
-4.4000E-02 1.1460E+01
-6.2000E-02 1.1140E+01
-8.0000E-02 1.0380E+01 6.7000E-01
-9.7000E-02 1.0110E+01
-1.1500E-01 1.0090E+01
-1.3300E-01 9.4700E+00
-1.5100E-01 8.8500E+00
-1.6800E-01 8.6300E+00 6.3000E-01
-1.8600E-01 8.3900E+00
-2.0400E-01 8.4200E+00
-2.2100E-01 7.7200E+00
-2.3900E-01 7.8000E+00
-2.5700E-01 7.8500E+00 5.9000E-01
-2.7400E-01 7.6900E+00
-2.9200E-01 7.7500E+00
-3.1000E-01 7.5100E+00
-3.2800E-01 7.7500E+00
-3.4500E-01 7.6900E+00 5.6000E-01
-3.6300E-01 7.8500E+00
-3.8100E-01 8.4500E+00
-3.9800E-01 8.4200E+00
-4.1600E-01 8.0200E+00
-4.3400E-01 8.7400E+00 5.3000E-01
-4.5100E-01 8.5500E+00
-4.6900E-01 9.0400E+00
-4.8700E-01 9.8500E+00
-5.0500E-01 9.8700E+00
-5.2200E-01 9.7900E+00 5.0000E-01
-5.4000E-01 1.0680E+01
-5.5800E-01 1.0810E+01
-5.7500E-01 1.0730E+01
-5.9300E-01 1.1300E+01
-6.1100E-01 1.1890E+01 4.7000E-01
-6.2800E-01 1.2450E+01
-6.4600E-01 1.2830E+01
-6.6400E-01 1.2290E+01
-6.8200E-01 1.3260E+01
-6.9900E-01 1.3990E+01 4.3000E-01
-7.1700E-01 1.4280E+01
-7.3500E-01 1.4880E+01
-7.5200E-01 1.5140E+01
-7.7000E-01 1.5630E+01
-7.8800E-01 1.6060E+01 3.8000E-01
-8.0500E-01 1.6680E+01
-8.2300E-01 1.6870E+01
-8.4100E-01 1.7750E+01
-8.5900E-01 1.7940E+01
-8.7600E-01 1.8320E+01 3.3000E-01
ENDDATA             65
ENDSUBENT           89
SUBENT        30405008     850121              20050926       0000
BIB                  8         15
REACTION   (2-HE-4(N,EL)2-HE-4,,DA)
            INCIDENT NEUTRON ENERGY OF 23.7 MEV.
DETECTOR   (SCIN) HIGH-PRESSURE GAS SCINTILLATION COUNTER.
MONITOR    (2-HE-4(N,EL)2-HE-4,,SIG)
PART-DET   (A)
COMMENT    NO DATA WERE OBTAINED NEAR COS(THETA)=+0.2 BECAUSE OF
           THE PRESENCE OF DISINTEGRATION PARTICLES FROM HE4(N,D)T
STATUS     DATA CONVERTED FROM SCISRS-1 (PRIV.COMM.).
            (PREVIOUSLY EXFOR 70168.007)
           CORRESPONDING TO FIG.5 OF PHYS.REV.135(1964)B99.
CORRECTION CORRECTIONS WERE APPLIED TO THE PULSE-HEIGHT DISTRI-
           BUTIONS FOR THE NEUTRON BACKGROUND AND FOR THE WALL
           EFFECT
ERR-ANALYS RELATIVE ERROR TABULATED, ASSUMING 10 PERCENT ERROR IN
           BACKGROUND.  NORMALIZATION ERROR ABOUT 5 PERCENT.
ENDBIB              15
COMMON               2          3
EN         EN-RSL
MEV        KEV
 2.3700E+01 1.7000E+02
ENDCOMMON            3
DATA                 3         46
COS-CM     DATA-CM    DATA-ERR
NO-DIM     MB/SR      MB/SR
 2.8400E-01 3.8710E+01 1.5000E+00
 2.6400E-01 3.7430E+01
 2.4400E-01 3.5200E+01 1.3000E+00
-1.5000E-02 1.3680E+01
-3.5000E-02 1.2210E+01
-5.5000E-02 1.1700E+01 9.4000E-01
-7.5000E-02 1.0960E+01
-9.4000E-02 9.9800E+00
-1.1400E-01 9.3000E+00
-1.3400E-01 8.6000E+00
-1.5400E-01 8.3500E+00 8.9000E-01
-1.7400E-01 7.8300E+00
-1.9400E-01 7.7800E+00
-2.1400E-01 6.9600E+00
-2.3400E-01 7.1800E+00
-2.5400E-01 6.5000E+00 8.4000E-01
-2.7400E-01 6.8300E+00
-2.9400E-01 6.9600E+00
-3.1300E-01 6.3400E+00
-3.3300E-01 6.6900E+00
-3.5300E-01 6.6400E+00 7.9000E-01
-3.7300E-01 6.8300E+00
-3.9300E-01 7.3200E+00
-4.1300E-01 6.9900E+00
-4.3300E-01 7.6400E+00
-4.5300E-01 8.0800E+00 7.5000E-01
-4.7300E-01 8.3200E+00
-4.9300E-01 8.8900E+00
-5.1200E-01 8.7600E+00
-5.3200E-01 9.2800E+00
-5.5200E-01 9.9600E+00 7.1000E-01
-5.7200E-01 1.0040E+01
-5.9200E-01 1.0610E+01
-6.1200E-01 1.1450E+01
-6.3200E-01 1.1450E+01
-6.5200E-01 1.2400E+01 6.7000E-01
-6.7200E-01 1.2430E+01
-6.9200E-01 1.3220E+01
-7.1100E-01 1.4060E+01
-7.3100E-01 1.4140E+01
-7.5100E-01 1.4630E+01 6.3000E-01
-7.7100E-01 1.4820E+01
-7.9100E-01 1.6180E+01
-8.1100E-01 1.6620E+01
-8.3100E-01 1.7030E+01
-8.5100E-01 1.7540E+01 5.9000E-01
ENDDATA             48
ENDSUBENT           72
SUBENT        30405009     850121              20050926       0000
BIB                  5          8
REACTION   (2-HE-4(N,D)1-H-3,,SIG)
DETECTOR   (SCIN) HIGH-PRESSURE GAS SCINTILLATION COUNTER.
MONITOR    (2-HE-4(N,D)1-H-3,,SIG) NORMALIZED TO VALUES CALCULATED
           FROM INVERSE REACTION AROUND 22.2 MEV.
STATUS     DATA CONVERTED FROM SCISRS-1 (PRIV.COMM.)
            (PREVIOUSLY EXFOR 70168.008)
           CORRESPONDING TO FIG.7 OF PHYS.REV.135(1964)B99.
ERR-ANALYS NO FURTHER INFORMATION
ENDBIB               8
COMMON               1          3
EN-RSL
KEV
 7.0000E+01
ENDCOMMON            3
DATA                 3         11
EN         DATA       DATA-ERR
MEV        MB         MB
 2.2070E+01 2.0000E+00 2.0000E+00
 2.2100E+01 1.0000E+01 2.0000E+00
 2.2120E+01 4.0000E+01 2.0000E+00
 2.2150E+01 7.2000E+01 2.0000E+00
 2.2180E+01 8.7000E+01 2.0000E+00
 2.2200E+01 8.3000E+01 2.0000E+00
 2.2230E+01 7.7000E+01 2.0000E+00
 2.2260E+01 7.0000E+01 2.0000E+00
 2.2320E+01 5.9000E+01 2.0000E+00
 2.2380E+01 5.2000E+01 2.0000E+00
 2.2420E+01 4.8000E+01 2.0000E+00
ENDDATA             13
ENDSUBENT           30
SUBENT        30405010     850121              20050926       0000
BIB                  8         14
REACTION   (2-HE-4(N,EL)2-HE-4,,DA,,LEG/RS)
DETECTOR   (SCIN)  GAS SCINTILLATION COUNTER.
ANALYSIS   LEGENDRE-COEF.OF THE FORM IS
             (4PI/SIG)*(D-SIG/D-OMEGA)= 1 + SUM( A(L)*P(L)).
MONITOR    NONE.
MISC-COL   (MISC1)  SIG/4PI  (ABOVE-MENTIONED FORMULA).
           (MISC2)  ERROR OF (SIG/4PI).
            SEE SUBENTRY .011.
COMMENT    COEFFICIENTS FOR TWO SETS OF DATA ARE PRESENTED AT
           20.0 AND AT 21.85 MEV.
STATUS     DATA TAKEN FROM TABLE III OF PHYS.REV.135(1964)B99.
            (PREVIOUSLY EXFOR 70168.009 TO .012)
ERR-ANALYS THE ERROR INCLUDES THE RESIDUAL ERROR OF THE
           COEFFICIENT AND (SIG/4PI).
ENDBIB              14
COMMON               4          3
NUMBER-CM 1NUMBER-CM 2NUMBER-CM 3NUMBER-CM 4
NO-DIM     NO-DIM     NO-DIM     NO-DIM
 1.0000E+00 2.0000E+00 3.0000E+00 4.0000E+00
ENDCOMMON            3
DATA                11         23
EN         MISC1      MISC2      DATA-CM   1DATA-ERR  1DATA-CM   2
DATA-ERR  2DATA-CM   3DATA-ERR  3DATA-CM   4DATA-ERR  4
MEV        MB/SR      MB/SR      NO-DIM     NO-DIM     NO-DIM
NO-DIM     NO-DIM     NO-DIM     NO-DIM     NO-DIM
 1.6400E+01 7.2200E+01 2.0000E+00 1.5300E+00 5.0000E-02 1.2700E+00
 5.0000E-02 1.0000E-01 3.0000E-02-3.0000E-02 2.0000E-02
 2.0000E+01 6.0100E+01 6.0000E-01 1.6400E+00 8.0000E-02 1.4600E+00
 9.0000E-02 3.1000E-01 5.0000E-02 8.0000E-02 3.0000E-02
 2.0000E+01 6.0100E+01 6.0000E-01 1.5800E+00 7.0000E-02 1.3800E+00
 8.0000E-02 2.1000E-01 4.0000E-02 4.0000E-02 2.0000E-02
 2.1000E+01 5.8000E+01 6.0000E-01 1.6300E+00 5.0000E-02 1.4100E+00
 5.0000E-02 2.6000E-01 3.0000E-02 5.0000E-02 2.0000E-02
 2.1850E+01 5.6900E+01 6.0000E-01 1.6600E+00 4.0000E-02 1.4400E+00
 4.0000E-02 3.0000E-01 3.0000E-02 6.0000E-02 1.0000E-02
 2.1850E+01 5.6900E+01 6.0000E-01 1.6000E+00 1.1000E-01 1.3600E+00
 1.1000E-01 2.0000E-01 6.0000E-02 3.0000E-02 3.0000E-02
 2.1970E+01 5.6900E+01 1.1000E+00 1.6400E+00 1.0000E-01 1.4000E+00
 1.0000E-01 2.8000E-01 6.0000E-02 4.0000E-02 3.0000E-02
 2.1990E+01 5.6900E+01 1.1000E+00 1.6200E+00 1.4000E-01 1.3600E+00
 1.5000E-01 2.3000E-01 9.0000E-02 1.0000E-02 4.0000E-02
 2.2020E+01 5.7300E+01 1.1000E+00 1.6600E+00 1.3000E-01 1.4000E+00
 1.4000E-01 3.0000E-01 9.0000E-02 2.0000E-02 4.0000E-02
 2.2050E+01 5.8100E+01 1.2000E+00 1.7000E+00 8.0000E-02 1.4700E+00
 9.0000E-02 3.9000E-01 5.0000E-02 6.0000E-02 2.0000E-02
 2.2070E+01 5.9300E+01 1.2000E+00 1.6700E+00 8.0000E-02 1.4300E+00
 8.0000E-02 3.8000E-01 5.0000E-02 3.0000E-02 2.0000E-02
 2.2100E+01 6.1100E+01 1.2000E+00 1.7600E+00 1.8000E-01 1.6300E+00
 1.9000E-01 6.9000E-01 1.2000E-01 1.3000E-01 6.0000E-02
 2.2130E+01 6.2800E+01 1.3000E+00 1.8000E+00 1.0000E-01 1.7400E+00
 1.1000E-01 9.0000E-01 7.0000E-02 1.4000E-01 3.0000E-02
 2.2150E+01 6.4000E+01 1.3000E+00 1.8900E+00 7.0000E-02 1.9000E+00
 7.0000E-02 1.1100E+00 5.0000E-02 2.1000E-01 2.0000E-02
 2.2180E+01 6.2400E+01 1.2000E+00 1.8800E+00 1.1000E-01 1.8900E+00
 1.2000E-01 1.0700E+00 8.0000E-02 1.9000E-01 4.0000E-02
 2.2200E+01 6.0500E+01 1.2000E+00 1.8700E+00 7.0000E-02 1.8600E+00
 7.0000E-02 1.0200E+00 5.0000E-02 1.9000E-01 2.0000E-02
 2.2230E+01 5.8900E+01 1.2000E+00 1.8100E+00 6.0000E-02 1.7600E+00
 6.0000E-02 8.9000E-01 4.0000E-02 1.5000E-01 2.0000E-02
 2.2250E+01 5.8100E+01 1.2000E+00 1.8300E+00 1.3000E-01 1.7900E+00
 1.4000E-01 8.9000E-01 9.0000E-02 1.8000E-01 4.0000E-02
 2.2320E+01 5.6200E+01 1.1000E+00 1.7300E+00 1.0000E-01 1.6300E+00
 1.1000E-01 6.7000E-01 7.0000E-02 9.0000E-02 3.0000E-02
 2.2370E+01 5.5300E+01 1.1000E+00 1.7600E+00 6.0000E-02 1.6600E+00
 7.0000E-02 6.9000E-01 4.0000E-02 1.3000E-01 2.0000E-02
 2.2420E+01 5.4700E+01 1.1000E+00 1.7500E+00 1.1000E-01 1.6500E+00
 1.2000E-01 6.6000E-01 7.0000E-02 1.4000E-01 3.0000E-02
 2.2600E+01 5.3300E+01 8.0000E-01 1.6800E+00 6.0000E-02 1.5300E+00
 7.0000E-02 5.2000E-01 4.0000E-02 7.0000E-02 2.0000E-02
 2.3700E+01 5.0100E+01 7.0000E-01 1.6300E+00 1.3000E-01 1.4200E+00
 1.4000E-01 3.7000E-01 8.0000E-02-1.0000E-02 4.0000E-02
ENDDATA             50
ENDSUBENT           73
SUBENT        30405011     850121              20050926       0000
BIB                  4          6
REACTION   (2-HE-0(N,EL)2-HE-0,,SIG)
MONITOR    NONE.
STATUS     THE VALUES WHICH APPEAR AS 'A0' IN TABLE III OF PHYS.
           REV.135(1964)B99,WERE MULTIPLIED BY '4PI' BY COMPILER.
           ORIGINAL VALUE IN SUBENTRY 10 AS MISC1.
ERR-ANALYS THE RESIDUAL ERROR IS GIVEN.
ENDBIB               6
NOCOMMON             0          0
DATA                 3         21
EN         DATA       DATA-ERR
MEV        MB         MB
 1.6400E+01 9.0730E+02 2.5100E+01
 2.0000E+01 7.5520E+02 7.5000E+00
 2.1000E+01 7.2880E+02 7.5000E+00
 2.1850E+01 7.1500E+02 7.5000E+00
 2.1970E+01 7.1500E+02 1.3800E+01
 2.1990E+01 7.1500E+02 1.3800E+01
 2.2020E+01 7.2000E+02 1.3800E+01
 2.2050E+01 7.3010E+02 1.5100E+01
 2.2070E+01 7.4520E+02 1.5100E+01
 2.2100E+01 7.6780E+02 1.5100E+01
 2.2130E+01 7.8920E+02 1.6300E+01
 2.2150E+01 8.0420E+02 1.6300E+01
 2.2180E+01 7.8410E+02 1.5100E+01
 2.2200E+01 7.6020E+02 1.5100E+01
 2.2230E+01 7.4010E+02 1.5100E+01
 2.2250E+01 7.3010E+02 1.5100E+01
 2.2320E+01 7.0620E+02 1.3800E+01
 2.2370E+01 6.9490E+02 1.3800E+01
 2.2420E+01 6.8730E+02 1.3800E+01
 2.2600E+01 6.6980E+02 1.0000E+01
 2.3700E+01 6.2960E+02 8.8000E+00
ENDDATA             23
ENDSUBENT           34
ENDENTRY            11
