ENTRY            F0707   20050623   20050831                  F022
SUBENT        F0707001   20050623   20050831                  F022
BIB                 13         27
TITLE      Evidence for the isoscalar giant quadrupole resonance
           in 16O.
AUTHOR     (K.T.Knopfle,G.J.Wagner,H.Breuer,M.Rogge,
           C.Mayer-Boricke)
INSTITUTE  (2GERMPH,2GERJUL,2GERBON)
REFERENCE  (J,PRL,35,779,1975)
FACILITY   (CYCLO,2GERJUL)
INC-SOURCE 146-MeV alpha beam.
INC-SPECT  The beam energy spread, straggling in the target,and
           reaction kinematics limited the overall energy
           resolution to 350-650 keV depending on the scattering
           angle.
DETECTOR   (TELES,SIBAR)Reaction products were detected and
           identified with cooled dE-E telescopes consisting of
           four 2-mm Si surface-barrier counters.
SAMPLE     Natural oxygen gas was contained in a gas cell with
           2 mg/cm2 Havar windows at a pressure of about 200 Torr.
MONITOR    At extreme forward angles, where the gas target
           presented some difficulties,supplementary normalization
           runs were performed with a 350 mu-g/cm2 Mylar target
           yielding an overall resolution of 220 keV.
METHOD     (EDE)
ERR-ANALYS (ANG-ERR-D)Digitizing error
           (ERR-DIG)Digitizing error
           The absolute cross sections of the two measurements
           agreed withing the estimated error of 10%.
HISTORY    (20050323C)
ENDBIB              27
COMMON               3          3
EN         ANG-ERR-D  ERR-DIG
MEV        ADEG       PER-CENT
  146.      0.15       0.2
ENDCOMMON            3
ENDSUBENT           34
SUBENT        F0707002   20050623   20050831                  F022
BIB                  2          2
REACTION   (8-O-16(A,INL)8-O-16,PAR,DA)
STATUS     (CURVE)Fig.2
ENDBIB               2
NOCOMMON             0          0
DATA                 3        125
E-LVL      ANG-CM     DATA-CM
MEV        ADEG       MB/SR
 0.0000     8.8136     1971.1
 0.0000     9.9589     249.41
 0.0000     11.114     80.945
 0.0000     12.293     323.86
 0.0000     13.461     409.77
 0.0000     15.980     196.86
 0.0000     17.333     92.155
 0.0000     18.493     53.186
 0.0000     19.467     67.296
 0.0000     20.830     85.144
 0.0000     21.803     97.028
 0.0000     23.162     89.681
 0.0000     24.325     70.850
 0.0000     25.683     53.117
 0.0000     26.457     39.827
 0.0000     27.816     33.153
 0.0000     29.175     30.643
 0.0000     30.146     28.324
 0.0000     31.505     26.180
 0.0000     33.444     17.219
 0.0000     35.189     11.625
 0.0000     36.934     7.6463
 0.0000     38.679     5.5841
 0.0000     43.528     2.1752
 0.0000     49.149    0.54298
 6.1300     7.2324     24.313
 6.1300     9.7463     35.424
 6.1300     10.907     41.628
 6.1300     12.276     31.876
 6.1300     13.447     26.447
 6.1300     14.828     13.920
 6.1300     16.014     7.5251
 6.1300     16.992     6.0778
 6.1300     18.156     6.4167
 6.1300     19.510     7.9560
 6.1300     20.672     8.8617
 6.1300     21.842     7.7568
 6.1300     23.209     6.2664
 6.1300     24.384     4.6711
 6.1300     25.551     4.5509
 6.1300     26.720     4.0916
 6.1300     28.079     4.2061
 6.1300     29.050     4.3228
 6.1300     30.022     4.2111
 6.1300     31.192     3.6861
 6.1300     33.339     2.7493
 6.1300     35.097     2.1057
 6.1300     36.851     1.7477
 6.1300     38.800     1.4507
 6.1300     43.492    0.60129
 6.1300     49.345    0.28513
 6.9200     7.0919     33.835
 6.9200     9.6507     26.676
 6.9200     10.637     19.421
 6.9200     12.218     9.2588
 6.9200     13.207     5.0381
 6.9200     14.387     4.7794
 6.9200     15.562     7.9041
 6.9200     16.938     8.3358
 6.9200     18.120     7.1134
 6.9200     19.303     5.1789
 6.9200     20.683     3.5763
 6.9200     21.866     2.6735
 6.9200     23.046     2.6043
 6.9200     24.225     2.8957
 6.9200     25.404     3.1357
 6.9200     26.782     2.7477
 6.9200     27.962     2.4722
 6.9200     29.144     2.1662
 6.9200     30.325     1.8485
 6.9200     31.702     1.8007
 6.9200     33.277     1.4195
 6.9200     35.245     1.3116
 6.9200     37.213     1.0902
 6.9200     38.789    0.81503
 6.9200     43.517    0.34059
 11.520     6.6904     16.818
 11.520     7.6708     17.749
 11.520     8.8591     15.160
 11.520     11.490     3.7377
 11.520     12.876     3.1098
 11.520     14.063     2.7274
 11.520     15.227     3.6532
 11.520     16.597     4.1756
 11.520     17.987     3.2089
 11.520     19.183     2.4012
 11.520     20.374     1.9452
 11.520     21.564     1.6181
 11.520     22.746     1.5364
 11.520     24.121     1.5797
 11.520     25.104     1.5812
 11.520     26.484     1.5017
 11.520     27.866     1.3526
 11.520     28.859     1.1250
 11.520     30.244    0.96105
 11.520     31.228    0.93684
 11.520     32.813    0.75923
 11.520     34.788    0.64898
 11.520     36.962    0.52625
 11.520     38.744    0.41542
 11.520     43.497    0.22111
 18.400     7.0265     6.4678
 18.400     8.0084     6.6485
 18.400     9.2087     4.4647
 18.400     10.593     3.8106
 18.400     11.839     1.0631
 18.400     14.395     1.0657
 18.400     16.942     1.2870
 18.400     18.116     1.4332
 18.400     19.108     1.2228
 18.400     20.488     1.1304
 18.400     21.877    0.89074
 18.400     23.058    0.86831
 18.400     24.033     1.0196
 18.400     25.410     1.0209
 18.400     26.594    0.94363
 18.400     27.981    0.76363
 18.400     29.169    0.65163
 18.400     30.550    0.60240
 18.400     31.742    0.47459
 18.400     33.521    0.39457
 18.400     35.098    0.36482
 18.400     37.069    0.33745
 18.400     38.852    0.25902
 18.400     43.800    0.14107
ENDDATA            127
ENDSUBENT          134
SUBENT        F0707003   20050623   20050831                  F022
BIB                  2          2
REACTION   (8-O-16(A,INL)8-O-16,PAR,DA)
STATUS     (CURVE)Fig.2
ENDBIB               2
COMMON               2          3
E-LVL-MIN  E-LVL-MAX
MEV        MEV
 15.900     27.300
ENDCOMMON            3
DATA                 2         23
ANG-CM     DATA-CM
ADEG       MB/SR
 7.0197     27.852
 8.4112     20.334
 9.2103     15.640
 10.994     11.727
 12.212     5.1921
 15.562     4.5649
 16.733     5.4936
 18.110     5.5000
 19.489     5.2241
 20.870     4.7076
 21.861     4.0234
 23.042     3.9228
 24.218     4.2493
 25.596     4.1437
 26.777     4.0401
 27.767     3.5450
 29.536     3.6450
 30.718     3.4615
 31.902     3.2020
 33.677     2.8864
 35.454     2.4685
 37.233     2.0563
 39.416     1.3522
ENDDATA             25
ENDSUBENT           36
ENDENTRY             3
