ENTRY            F0711   20060619   20060823   20060818       F025
SUBENT        F0711001   20060619   20060823   20060818       F025
BIB                 15         31
TITLE      Spectroscopic factors derived from 16O(d,n)17F
           measurements.
AUTHOR     (C.J.Oliver,P.D.Forsyth,J.L.Hutton,G.Kaye,J.R.Mines)
INSTITUTE  (2UK LVP)
REFERENCE  (J,NP/A,127,567,1969)
FACILITY   (VDGT)
INC-SOURCE Deuteron pulsed beam.
INC-SPECT  Deuteron beam entered through a 7.5 micron thick
           tantalum window. At 7 MeV the energy loss was 420 keV
           with a straggle of about 40 keV and at 11 and 12 MeV
           the energy loss was 300 keV. The beam was stop in a
           0.025 cm tantalum lining to the cell.
SAMPLE     Gaseous target of spectroscopically pure natural oxygen
           was used. The target chamber consisted of a piece of
           2.5 cm diameter 25 micron thick stainless steel tube.
DETECTOR   (SPEC) Neutron time-of-flight spectrometer.
METHOD     (TOF) Neutron flight path of 3.46 m was used for the
           7.73 and 11 MeV measurements and a 6 m flight path was
           used for the 12 MeV measurements.
           Measurements were taken at a gas pressure of 60 cm Hg.
ANALYSIS   Neutron spectra were analyzed using a peak fitting
           programme, based on that of Tepel.
MONITOR    (1-H-2(D,N)2-HE-3,,DA) Relative detector efficiency as
           a function of neutron energy and the absolute cross
           sections were obtained.
MONIT-REF  (,J.B.Marion+,B,FAST N.PH.,80,1960)
ERR-ANALYS Energy resolution was about 3.5% for neutrons 5-8 MeV
           and about 2% for 10 MeV neutrons.
           Normalization of the data contributes an additional
           5% uncertainty.
HISTORY    (20050406C)
ENDBIB              31
NOCOMMON             0          0
ENDSUBENT           34
SUBENT        F0711002   20060619   20060823   20060818       F025
BIB                  2          2
REACTION   (8-O-16(D,N)9-F-17,PAR,DA)
STATUS     (TABLE) Table 1
ENDBIB               2
NOCOMMON             0          0
DATA                 4        164
EN         E-LVL      ANG        DATA
MEV        MEV        ADEG       MB/SR
 7.7300     0.0000     0.0000     36.400
 7.7300     0.0000     5.0000     40.400
 7.7300     0.0000     10.000     43.800
 7.7300     0.0000     15.000     51.500
 7.7300     0.0000     20.000     58.200
 7.7300     0.0000     25.000     60.200
 7.7300     0.0000     30.000     56.500
 7.7300     0.0000     35.000     49.600
 7.7300     0.0000     40.000     42.400
 7.7300     0.0000     45.000     32.100
 7.7300     0.0000     50.000     23.600
 7.7300     0.0000     55.000     16.900
 7.7300     0.0000     60.000     12.300
 7.7300     0.0000     65.000     9.7000
 7.7300     0.0000     70.000     8.0100
 7.7300     0.0000     75.000     7.7300
 7.7300     0.0000     80.000     7.8000
 7.7300     0.0000     85.000     7.7800
 7.7300     0.0000     90.000     8.2700
 7.7300     0.0000     95.000     8.3500
 7.7300     0.0000     100.00     8.0700
 7.7300     0.0000     105.00     8.2500
 7.7300     0.0000     110.00     7.9600
 7.7300     0.0000     115.00     7.3900
 7.7300     0.0000     120.00     6.9500
 7.7300     0.0000     125.00     6.2800
 7.7300     0.0000     130.00     5.5100
 7.7300     0.0000     135.00     4.8600
 7.7300     0.0000     140.00     3.9900
 7.7300     0.0000     150.00     2.9300
 7.7300     0.0000     160.00     2.5000
 7.7300    0.50000     0.0000     249.00
 7.7300    0.50000     5.0000     224.00
 7.7300    0.50000     10.000     160.00
 7.7300    0.50000     15.000     88.000
 7.7300    0.50000     20.000     43.800
 7.7300    0.50000     25.000     20.900
 7.7300    0.50000     30.000     11.600
 7.7300    0.50000     35.000     13.300
 7.7300    0.50000     40.000     15.700
 7.7300    0.50000     45.000     15.200
 7.7300    0.50000     50.000     12.800
 7.7300    0.50000     55.000     9.6000
 7.7300    0.50000     60.000     6.5800
 7.7300    0.50000     65.000     4.8100
 7.7300    0.50000     70.000     3.5300
 7.7300    0.50000     75.000     3.0100
 7.7300    0.50000     80.000     3.1100
 7.7300    0.50000     85.000     3.3900
 7.7300    0.50000     90.000     3.5400
 7.7300    0.50000     95.000     3.8200
 7.7300    0.50000     100.00     3.7700
 7.7300    0.50000     105.00     3.8500
 7.7300    0.50000     110.00     3.7800
 7.7300    0.50000     115.00     3.6300
 7.7300    0.50000     120.00     3.2700
 7.7300    0.50000     125.00     3.3300
 7.7300    0.50000     130.00     3.1300
 7.7300    0.50000     135.00     2.7700
 7.7300    0.50000     140.00     2.7400
 7.7300    0.50000     150.00     2.6400
 7.7300    0.50000     160.00     3.0000
 11.000     0.0000     0.0000     59.400
 11.000     0.0000     5.0000     56.200
 11.000     0.0000     10.000     56.000
 11.000     0.0000     15.000     54.200
 11.000     0.0000     20.000     48.100
 11.000     0.0000     25.000     42.700
 11.000     0.0000     30.000     32.700
 11.000     0.0000     35.000     26.200
 11.000     0.0000     40.000     17.000
 11.000     0.0000     45.000     11.400
 11.000     0.0000     50.000     7.4000
 11.000     0.0000     55.000     5.9500
 11.000     0.0000     60.000     5.1900
 11.000     0.0000     70.000     5.1400
 11.000     0.0000     75.000     4.5100
 11.000     0.0000     80.000     3.7200
 11.000     0.0000     85.000     3.1900
 11.000     0.0000     90.000     3.0500
 11.000     0.0000     95.000     2.5500
 11.000     0.0000     100.00     3.1500
 11.000     0.0000     110.00     3.8800
 11.000     0.0000     120.00     4.8800
 11.000     0.0000     130.00     4.4400
 11.000     0.0000     140.00     3.9100
 11.000     0.0000     150.00     2.8200
 11.000    0.50000     0.0000     169.00
 11.000    0.50000     5.0000     147.00
 11.000    0.50000     10.000     92.000
 11.000    0.50000     15.000     42.900
 11.000    0.50000     20.000     15.100
 11.000    0.50000     25.000     6.0400
 11.000    0.50000     30.000     6.6000
 11.000    0.50000     35.000     9.4800
 11.000    0.50000     40.000     8.8600
 11.000    0.50000     45.000     7.2200
 11.000    0.50000     50.000     5.7500
 11.000    0.50000     55.000     3.7600
 11.000    0.50000     60.000     2.8100
 11.000    0.50000     70.000     2.5600
 11.000    0.50000     75.000     2.6800
 11.000    0.50000     80.000     2.6200
 11.000    0.50000     85.000     2.4000
 11.000    0.50000     90.000     2.4800
 11.000    0.50000     95.000     1.8700
 11.000    0.50000     100.00     1.7100
 11.000    0.50000     110.00     1.5300
 11.000    0.50000     120.00     1.2300
 11.000    0.50000     130.00     1.3000
 11.000    0.50000     140.00     1.1400
 11.000    0.50000     150.00     1.0700
 12.000     0.0000     0.0000     53.600
 12.000     0.0000     5.0000     56.300
 12.000     0.0000     10.000     57.000
 12.000     0.0000     15.000     53.400
 12.000     0.0000     20.000     49.700
 12.000     0.0000     25.000     44.200
 12.000     0.0000     30.000     28.700
 12.000     0.0000     35.000     22.100
 12.000     0.0000     40.000     14.600
 12.000     0.0000     45.000     9.7600
 12.000     0.0000     50.000     6.0400
 12.000     0.0000     55.000     4.8300
 12.000     0.0000     60.000     4.3100
 12.000     0.0000     70.000     3.8400
 12.000     0.0000     75.000     3.0800
 12.000     0.0000     80.000     2.5900
 12.000     0.0000     85.000     2.3600
 12.000     0.0000     90.000     1.8300
 12.000     0.0000     95.000     2.0300
 12.000     0.0000     100.00     2.2800
 12.000     0.0000     110.00     2.1900
 12.000     0.0000     120.00     2.4000
 12.000     0.0000     130.00     2.4300
 12.000     0.0000     140.00     2.0400
 12.000     0.0000     150.00     1.6700
 12.000     0.0000     160.00     1.3500
 12.000    0.50000     0.0000     150.00
 12.000    0.50000     5.0000     123.00
 12.000    0.50000     10.000     74.800
 12.000    0.50000     15.000     29.800
 12.000    0.50000     20.000     9.1200
 12.000    0.50000     25.000     5.4800
 12.000    0.50000     30.000     10.700
 12.000    0.50000     35.000     9.2000
 12.000    0.50000     40.000     8.1800
 12.000    0.50000     45.000     6.2900
 12.000    0.50000     50.000     4.0300
 12.000    0.50000     55.000     2.3800
 12.000    0.50000     60.000     1.5600
 12.000    0.50000     70.000     2.0500
 12.000    0.50000     75.000     2.3100
 12.000    0.50000     80.000     2.2900
 12.000    0.50000     85.000     2.2900
 12.000    0.50000     90.000     1.9100
 12.000    0.50000     95.000     1.6300
 12.000    0.50000     100.00     1.2300
 12.000    0.50000     110.00    0.99000
 12.000    0.50000     120.00    0.98000
 12.000    0.50000     130.00    0.74000
 12.000    0.50000     140.00    0.92000
 12.000    0.50000     150.00    0.73000
 12.000    0.50000     160.00    0.83000
ENDDATA            166
ENDSUBENT          173
ENDENTRY             2
