ENTRY            F0730   20100125   20100518   20100518       F038
SUBENT        F0730001   20100125   20100518   20100518       F038
BIB                  6         12
TITLE      Level densities of the Ni-59 nuclei.
AUTHOR     (B.V.Zhuravlev)
INSTITUTE  (4RUSFEI)
REFERENCE  (J,IZV,64,414,2000)
           (J,BAS,64,331,2000)  Translation from Russian.
           ((S,ISINN-5,247,1997)=(S,JINR-E3-97-213,247,199705))
ANALYSIS   Neutron spectra were measured at the angles of 20,30,
           40,60,70,80,100,110,120,140,150,160 adeg.  Spectra and
           angular distributions were integrated over an angle.
HISTORY    (20060719C)
           (20090615A) New REFERENCE code was added.
           (20100125A) New REFERENCE code was added.
ENDBIB              12
NOCOMMON             0          0
ENDSUBENT           15
SUBENT        F0730002   20070131   20070719   20070627       F027
BIB                  7         11
REACTION   (26-FE-56(A,N)28-NI-59,,DE)
FACILITY   (VDGT,3CHPAEP)HI-13
DETECTOR   (SCIN) Three scintillation detectors (diam. 10.5 cm and
           5 cm thickness) and photomultiplier  XP-2041 were
           placed at the flight distances of 6.1, 6.55 and 5.15 m.
SAMPLE     Self-supporting metal  foil with the thickness of
           0.592 mg/cm2 was used as a target.
METHOD     (TOF)
ERR-ANALYS (E-ERR-DIG)Digitizing error
           (ERR-DIG)Digitizing error
STATUS     (CURVE)Fig.1(a,c)
ENDBIB              11
COMMON               2          3
E-ERR-DIG  ERR-DIG
MEV        PER-CENT
 0.0022     0.2
ENDCOMMON            3
DATA                 3         46
EN         E-CM       DATA-CM
MEV        MEV        MB/MEV
 16.300     2.0117     187.71
 16.300     2.2078     173.66
 16.300     2.3982     152.14
 16.300     2.5943     135.38
 16.300     2.7904     124.27
 16.300     2.9976     109.73
 16.300     3.1993     99.168
 16.300     3.4010     88.243
 16.300     3.5971     78.522
 16.300     3.7931     67.206
 16.300     3.9836     64.139
 16.300     4.1909     54.048
 16.300     4.3701     46.621
 16.300     4.5718     39.286
 16.300     4.7678     36.344
 16.300     4.9583     29.688
 16.300     5.1600     29.002
 16.300     5.3392     22.435
 16.300     5.5465     20.756
 16.300     5.7370     17.627
 16.300     5.9442     14.287
 16.300     6.1627     12.324
 16.300     6.3532     10.466
 16.300     6.5324     8.7510
 16.300     6.7397     6.7170
 16.300     6.9358     6.2141
 16.300     7.1430     3.6613
 16.300     7.3335     3.2579
 16.300     7.5407     2.8321
 16.300     7.7256     1.9195
 16.300     7.9385     2.3314
 16.300     8.1345     2.3313
 16.300     8.3474     1.6427
 16.300     8.5379     1.5436
 16.300     8.7508     1.7755
 16.300     8.9300    0.99839
 18.300     1.9995     180.76
 18.300     2.9781     121.81
 18.300     3.9788     71.963
 18.300     4.9868     40.690
 18.300     5.9653     21.308
 18.300     6.9439     10.679
 18.300     7.9519     4.6925
 18.300     8.9673     2.1076
 18.300     9.9605    0.81191
 18.300     10.969    0.67384
ENDDATA             48
ENDSUBENT           68
SUBENT        F0730003   20070131   20070719   20070627       F027
BIB                  7         12
REACTION   (26-FE-56(A,N)28-NI-59,,DA)
FACILITY   (ACCEL,3CHPAEP)HI-13
DETECTOR   (SCIN) Three scintillation detectors (10.5 cm diam. and
           5 cm thickness) and photomultiplier XP-2041 were
           placed at the flight distances of 6.1, 6.55 and 5.15 m.
SAMPLE     Self-supporting metal  foil with the thickness of
           0.592 mg/cm2 was used as a target.
METHOD     (TOF)
ERR-ANALYS (ANG-ERR-D)Digitizing error
           (ERR-DIG)Digitizing error
           (ERR-S)Statistical error
STATUS     (CURVE)Fig.1(b),3
ENDBIB              12
COMMON               2          3
ANG-ERR-D  ERR-DIG
ADEG       MB/SR
 0.272      0.0019
ENDCOMMON            3
DATA                 4         23
EN         ANG-CM     DATA-CM    ERR-S
MEV        ADEG       MB/SR      MB/SR
 12.300     19.577     8.4205    0.36427
 12.300     29.631     7.4144    0.53276
 12.300     59.655     5.9577    0.27200
 12.300     69.847     5.7057    0.29930
 12.300     79.693     5.6889    0.27331
 12.300     90.035     5.4495    0.26076
 12.300     110.20     5.8958    0.29843
 12.300     120.28     5.7482    0.23346
 12.300     139.99     7.2887    0.42881
 12.300     150.36     7.9078    0.49378
 12.300     160.31     7.0061    0.36384
 16.300     19.724     5.6109    0.13543
 16.300     30.025     5.4375    0.13543
 16.300     39.773     5.5132    0.15168
 16.300     59.709     4.6842    0.15168
 16.300     69.789     4.5704    0.15710
 16.300     79.759     4.8737    0.14084
 16.300     99.476     4.8573    0.15168
 16.300     109.56     4.7109    0.18960
 16.300     119.64     5.1117    0.16251
 16.300     139.47     5.9133    0.15710
 16.300     149.44     5.5394    0.13001
 16.300     159.85     6.0323    0.17876
ENDDATA             25
ENDSUBENT           46
SUBENT        F0730004   20070131   20070719   20070627       F027
BIB                  6         14
REACTION   (26-FE-56(A,N)28-NI-59,,DE)
FACILITY   (CYCLO,4RUSFEI)
DETECTOR   (SCIN) Scintillation detector on the basis of stilben
           crystal (7 cm diam. and 5 cm thickness) and
           photomultiplier were placed at a flight distance of
           2.5 m. Efficiency of neutron detection was defined by
           measuring neutron spectrum of 252Cf spontaneous fission
           and by measuring of yields of monoenergetic neutron
           groups from the T(p,n), D(d,n) and T(d,n) reactions.
SAMPLE     Target thickness was 2.6 mg/cm2.
ERR-ANALYS (E-ERR-DIG)Digitizing error
           (ERR-DIG)Digitizing error
           (ERR-S)Statistical error
STATUS     (CURVE)Fig.2
ENDBIB              14
COMMON               3          3
EN         E-ERR-DIG  ERR-DIG
MEV        MEV        PER-CENT
  26.6      0.0031     0.2
ENDCOMMON            3
DATA                 3         50
E          DATA       ERR-S
MEV        MB/MEV     MB/MEV
 1.3509     574.53
 1.5414     511.05
 1.7492     454.58
 1.9483     417.18
 2.1648     385.85
 2.3639     340.55
 2.5803     300.57
 2.7622     271.56
 2.9700     245.36
 3.1691     221.68
 3.3509     200.29
 3.5500     182.38
 3.7665     163.50
 4.0002     145.44
 4.1994     132.43
 4.4158     117.80
 4.5890     108.95
 4.7795     96.916
 4.9699     89.639
 5.2037     78.500
 5.4028     70.373
 5.5587     65.089
 5.7405     60.674
 6.0002     53.134
 6.2600     46.895
 6.4504     42.702
 6.6669     38.884
 6.8660     34.052
 7.0998     30.290
 7.3249     26.733
 7.5760     23.229
 7.8443     20.824
 8.1214     18.237
 8.4071     15.359
 8.7188     13.346
 9.0478     11.240
 9.3855     9.4664
 9.7404     8.2256
 10.121     6.8204
 10.528     5.3545
 10.961     4.6526
 11.429     3.3784
 11.905     2.4152
 12.424     1.8813
 12.970     1.4770
 13.559     1.1239
 14.191    0.83542
 14.883    0.58797    0.14936
 15.602    0.41706
 16.372    0.29353
ENDDATA             52
ENDSUBENT           75
ENDENTRY             4
