ENTRY            F0749   20081225   20090323   20090318       F034
SUBENT        F0749001   20081225   20090323   20090318       F034
BIB                  9         17
TITLE      The reactions 116,118Sn(t,p)118,120Sn.
AUTHOR     (J.H.Bjerregaard,O.Hansen,O.Nathan,L.Vistisen,
           R.Chapman,S.Hinds))
INSTITUTE  (2DENCOP,2UK ALD)
REFERENCE  (J,NP/A,110,1,1968)
FACILITY   (VDGT,2UK ALD)
DETECTOR   (MAGSP,PLATE) Reaction protons were detected in
           photographic emulsions after momentum analysis in
           the multi-angle spectrograph. The overall energy
           resolution being 15-20 keV FWHM.
SAMPLE     Targets of 116Sn and 118Sn were prepared by vacuum
           evaporation of the enriched metal onto equal
           50 mu-g/cm2 carbon films.
ERR-ANALYS (ANG-ERR-D) Angle digitizing error
           (ERR-DIG)   Data digitizing error
           (DATA-ERR)  Error from the graphic bars
HISTORY    (20080908C)
ENDBIB              17
COMMON               1          3
ERR-DIG
PER-CENT
 0.2
ENDCOMMON            3
ENDSUBENT           24
SUBENT        F0749002   20081225   20090323   20090318       F034
BIB                  4          6
REACTION   (50-SN-116(T,P)50-SN-118,PAR,DA,,REL)
SAMPLE     The thickness of the 116Sn target was measured to be
           180+-35 mu-g/cm2.
ERR-ANALYS Absolute cross section scale was established accurate
           to within +-25%
STATUS     (CURVE) Fig.1-3
ENDBIB               6
COMMON               2          3
EN         ANG-ERR-D
MEV        ADEG
 13.        0.151
ENDCOMMON            3
DATA                 4        189
E-LVL      ANG-CM     DATA-CM    DATA-ERR
MEV        ADEG       ARB-UNITS  ARB-UNITS
         0.     6.5213 4.6048E+04 5.4700E+03
         0.     14.875 8.4392E+03     613.32
         0.     21.971 4.4921E+03     394.54
         0.     29.823 1.5674E+04 1.1391E+03
         0.     37.938 1.1685E+04     849.16
         0.     44.628 2.8747E+03     252.49
         0.      52.36     860.84     91.401
         0.      59.68 2.9204E+03     301.39
         0.     67.156 3.9245E+03     226.56
         0.     74.786 2.1485E+03      188.7
         0.     82.532     591.44     77.427
         0.     89.988     901.78     93.065
         0.     94.774 1.2286E+03     107.91
         0.      102.3 1.2125E+03      106.5
         0.     109.94     645.44     66.611
         0.     117.05     315.82     47.571
         0.     124.57     334.34     45.002
         0.     132.08     364.02     48.996
         0.     139.58     425.15     57.224
         0.     147.16     308.15     41.476
         0.     154.21     220.23     31.497
         0.     161.32     106.26     25.999
         0.     169.33      142.8      23.81
         0.     176.41     83.855       21.4
      1.233     6.0186     68.833     8.0786
      1.233     13.531     79.154     6.8699
      1.233      21.06     83.754     6.0152
      1.233     29.369     26.513      2.301
      1.233     36.429     19.831     2.0222
      1.233      44.35     43.772      3.799
      1.233     51.901     41.451     4.2268
      1.233     59.163     11.263     1.4976
      1.233     66.254     7.2322     1.1922
      1.233     74.147     18.339     2.1523
      1.233     81.662     20.798     2.7655
      1.233     88.841     8.5677     1.4123
      1.233     93.769     5.7337     1.0385
      1.233     100.95     2.3295    0.70533
      1.233     108.35     4.7969     0.9011
      1.233     115.91     4.3573    0.86729
      1.233     123.46     4.0694    0.76445
      1.759     6.8628 2.2052E+04 3.9658E+03
      1.759     14.549 8.6687E+03 1.5589E+03
      1.759      21.63     215.36     43.529
      1.759     29.689 5.2159E+03       938.
      1.759     36.691 4.8634E+03     985.99
      1.759     44.924 1.8066E+03     520.53
      2.064     6.9632 9.6730E+03 1.3897E+03
      2.064     14.724 2.3306E+03      522.4
      2.064     21.767     64.018      10.74
      2.064     29.934     907.68     213.78
      2.064     37.375 1.5306E+03     291.78
      2.064     44.744     151.69      77.79
      2.283     6.9146     52.223     12.945
      2.283     14.482      42.22     9.0788
      2.283     21.433     51.584     7.4801
      2.283     29.479     57.052     7.5734
      2.283     37.054     44.195     5.8666
      2.283      44.67      27.65     4.9982
      2.283      51.75     17.053      4.937
      2.283      59.67     36.835     6.6586
      2.283     67.197     36.871      6.232
      2.283     74.349     15.481     3.3289
      2.283     81.986     8.6422     2.5889
      2.283     88.959     9.4218     2.4356
      2.324     6.2299 3.4042E+03      375.6
      2.324      13.26 3.7329E+03     304.82
      2.324     21.299 3.9878E+03     269.58
      2.324     29.363 3.4556E+03     233.59
      2.324     36.434 2.6966E+03      220.2
      2.324     44.473 2.8808E+03     235.24
      2.324     52.044 2.3078E+03     156.01
      2.324     59.095 2.1348E+03     174.32
      2.324     67.695 1.4055E+03     134.79
      2.324      74.75 1.2501E+03     102.08
      2.324     82.811 1.1120E+03     90.805
      2.324     89.394     771.34     73.974
      2.324     94.469     528.03     65.979
      2.324     102.04     412.07     73.424
      2.324     109.07     469.93     58.743
      2.324     116.64     381.41     55.415
      2.324     124.26     203.68     40.615
      2.324     131.78     238.45     42.487
      2.324     139.32     248.14     36.053
      2.324     146.38     212.21     35.516
      2.324     153.89     279.48      43.71
      2.324     160.55     104.82     24.133
      2.324     168.54     167.99     33.499
      2.324      175.6     147.47     30.942
      2.405     6.8455      62.67     28.403
      2.405     13.852     56.853     19.542
      2.405     21.382     56.112     13.138
      2.405     29.342     99.879     15.486
      2.405     37.432     86.882     16.498
      2.405     44.528     48.219      11.29
      2.405     51.674      20.21     4.7319
      2.405     59.107     34.007     11.374
      2.405     66.685     25.705     8.5972
      2.405     74.318     14.267     5.6605
      2.405     81.848     14.082     5.4667
      2.405     88.335     11.578     5.8398
      2.405     93.675     14.102     5.4746
      2.489     6.4734 4.2100E+03 1.0524E+03
      2.489     14.029 3.8442E+03     684.63
      2.489     21.109 2.7739E+03     552.86
      2.489     29.161 2.6690E+03     475.33
      2.489     36.673 3.4688E+03     425.15
      2.489     43.793 1.8051E+03     340.75
      2.489     50.929     824.23     237.54
      2.489     58.856 2.2279E+03     348.26
      2.489     66.874 2.8210E+03     377.91
      2.489      73.95 2.1170E+03     354.12
      2.489     82.111     826.34     238.15
      2.489     88.687     604.09      185.2
      2.489     94.221     596.52     182.88
      2.576     5.7369     18.006     4.7716
      2.576     12.718     22.852     3.5327
      2.576     20.298     14.206     2.5276
      2.576     28.336     22.872     2.7068
      2.576     35.864     26.319     3.4372
      2.576     43.396     29.041     3.4368
      2.576     50.913     37.904     4.4857
      2.576      58.99     38.456     3.5886
      2.576     66.007     32.072      3.397
      2.576     73.041     21.988     2.8716
      2.576     81.132      18.86     2.6909
      2.576     88.125     20.809     2.4627
      2.576     93.523     18.097     2.3635
      2.576      101.1     12.236     1.8915
      2.576      107.6     7.3958     1.4004
      2.576     115.14      7.825     1.6568
      2.576     122.68     7.8284     1.5705
      2.733     6.1079 1.3820E+03     329.71
      2.733     13.642 1.5143E+03      251.6
      2.733     21.192 1.4384E+03     223.34
      2.733     29.164 2.8266E+03     278.77
      2.733       36.2 2.9787E+03     293.78
      2.733     43.813 1.5779E+03     227.57
      2.733     51.369 1.4230E+03     173.21
      2.733     58.921 1.3171E+03     189.97
      2.733     66.434 1.7534E+03     233.28
      2.733     74.005 1.3710E+03     197.73
      2.733      81.66     498.42     93.465
      2.733     88.717     432.33     107.39
      2.733     94.202     663.74     124.47
      2.733     101.26     590.87      123.1
      2.733     108.84     405.76     92.767
      2.733     115.98     159.46     62.082
      2.733     123.54     140.12     60.966
      3.055     5.1176     170.91     54.109
      3.055      13.13     225.31     45.064
      3.055     20.129     313.02     45.619
      3.055     28.193      274.7     40.035
      3.055     35.773     205.93     30.012
      3.055     43.374     131.88      23.57
      3.055     50.367     193.09     25.962
      3.055     58.415     190.71     34.084
      3.055     65.546     93.925     19.766
      3.055     73.576     107.17     22.554
      3.136     6.1237     165.45     27.443
      3.136     13.797     65.935     14.222
      3.136     20.741     2.9805    0.69381
      3.136     28.948     35.745     6.5145
      3.136     36.451     41.707      8.294
      3.136     43.991     38.389     7.6804
      3.136     51.162     12.237     3.6034
      3.136     58.649     15.743     4.7897
      3.136     65.734     8.6473     3.7669
      3.369     14.494 4.1523E+03     740.25
      3.369     30.015 3.1986E+03     464.97
      3.369     37.491 4.2679E+03     620.41
      3.369     45.054 1.9724E+03     393.51
      3.369     52.611     985.98     293.55
      3.369     60.046 2.1635E+03     408.82
      3.369     67.041 2.2807E+03     406.59
      3.369     75.073 1.5407E+03     339.25
      3.581     6.1479     689.02     191.02
      3.581     13.628     893.71     177.05
      3.581     21.126     905.74     160.32
      3.581      29.15     663.47      65.47
      3.581     36.679     449.56     54.751
      3.581     43.684     416.01     78.051
      3.581     51.669     505.68       49.9
      3.581     59.213       282.     34.344
      3.581     67.236     206.57     29.808
      3.581     74.219     257.69     34.303
      3.581     82.227     229.36     33.097
      3.581     89.238      198.9     24.223
      3.581     94.263     141.94     25.123
ENDDATA            191
ENDSUBENT          206
SUBENT        F0749003   20081225   20090323   20090318       F034
BIB                  2          2
REACTION   (50-SN-118(T,P)50-SN-120,PAR,DA,,REL)
STATUS     (CURVE) Fig.1-3
ENDBIB               2
COMMON               2          3
EN         ANG-ERR-D
MEV        ADEG
  12.       0.199
ENDCOMMON            3
DATA                 4        257
E-LVL      ANG-CM     DATA-CM    DATA-ERR
MEV        ADEG       ARB-UNITS  ARB-UNITS
         0.     6.9756 2.2000E+04 2.2851E+03
         0.     14.313 2.9244E+03      258.5
         0.     21.754 4.7975E+03     424.07
         0.       29.6 1.7109E+04 1.2513E+03
         0.     36.679 1.0156E+04      742.8
         0.     45.021 2.0334E+03     148.72
         0.     51.711     510.16     45.096
         0.     59.471 2.9820E+03     263.59
         0.     66.964 3.6369E+03     265.99
         0.     75.136 1.9560E+03     143.06
         0.     82.317     641.78     66.661
         0.     89.297     679.63     60.075
         0.     94.571 1.2304E+03     89.988
         0.     102.09 1.3031E+03     95.303
         0.     109.68     878.38     77.645
         0.     116.83     356.17     31.484
         0.     124.38     313.95     27.751
         0.     132.37     466.61     41.245
         0.     139.36     480.37     49.896
         0.      146.4     362.51     32.043
         0.     154.51     277.49     28.822
         0.     161.54     218.46      26.12
         0.     168.58     160.27     16.647
         0.     176.13     141.27     22.015
      1.174      5.716      219.6      22.32
      1.174     13.317     162.16     14.028
      1.174     20.365      128.3     9.1852
      1.174     28.579     65.226     5.6428
      1.174     35.652     45.569     4.6316
      1.174     43.549     113.63     8.1349
      1.174     51.128     93.725     8.1082
      1.174     58.349     31.031       3.63
      1.174      66.06     13.179     1.9545
      1.174     73.433     30.665     3.5873
      1.174     80.943     35.739     4.7366
      1.174     88.585     21.447     2.8424
      1.174       93.1     7.6063     1.8837
      1.174     100.12     6.9109     1.4762
      1.174     107.71     5.3193     1.3173
      1.174      115.7     8.4043     4.1464
      1.174     123.29     6.4688     1.3818
      1.174     130.36     4.7107    0.98689
      1.174     137.51     2.2038    0.70752
      1.174     144.93     4.1102    0.90569
      1.174     153.01     4.0023     1.0087
      1.174     159.42     5.2094     1.2587
      1.174     167.15     2.0083    0.75331
      1.174     174.14     2.2144    0.73157
      1.881     7.3921     822.61     226.36
      1.881     14.526     313.48     110.32
      1.881     21.889     25.632     15.453
      1.881     30.115      318.4     49.214
      1.881     37.081     371.64     74.139
      1.881     45.259     174.72     31.082
      1.881     51.947     35.971     15.703
      1.881      59.99     41.407     16.033
      1.881     66.906     67.618     21.274
      1.881      74.37     102.97     25.134
      1.881     82.433      104.5     53.309
      1.881     90.066     51.233     15.624
      1.881     94.905     51.258     15.632
      1.881     101.97     30.565     10.478
       2.15      6.788     265.89     78.293
       2.15     13.922     104.48     35.733
       2.15     21.132     25.196     12.118
       2.15     29.138     36.753     8.5583
       2.15     35.989     89.826     13.847
       2.15     44.136     52.908     9.3875
       2.15      51.32     15.084      6.805
       2.15     59.699     63.532     11.273
       2.15      66.25     33.463     8.8444
       2.15     74.306     35.414     8.2463
       2.15     81.867     28.351     13.219
       2.15     88.865     26.832     6.5331
       2.15      93.76     18.678     5.4999
       2.15     101.21     30.039     6.6709
       2.15     108.48     4.9702     3.3193
       2.15     116.34     18.463     5.2535
      2.201     6.5505     170.06     87.749
      2.201      13.66     87.112     31.375
      2.201     21.119     127.09     13.424
      2.201     29.121     180.32     14.483
      2.201     36.721     120.42      12.72
      2.201     43.858     52.904     6.8906
      2.201     51.375     55.992     8.6331
      2.201     58.866     68.135     8.0415
      2.201     66.391     69.155      8.162
      2.201     73.553     26.426     6.4354
      2.201     80.713      10.24     3.9566
      2.201     88.549     36.493     6.4761
      2.201     93.473      22.72     5.0465
      2.201     101.55     21.508     10.188
      2.201     108.09     12.666     3.8541
      2.201     115.71     7.6712      2.624
      2.201     129.81     3.9328     2.6449
      2.201     145.23     10.036     3.7914
      2.289     5.9904     27.371     8.2213
      2.289     12.975     32.732      3.807
      2.289     21.042     35.556     2.8133
      2.289     28.569     39.157     3.0982
      2.289     36.085     52.267     4.1356
      2.289     43.635     39.722      3.143
      2.289     50.642     32.781     3.4119
      2.289     58.711     34.171     3.1331
      2.289     66.242     35.619     3.2659
      2.289     73.784     31.056     2.8475
      2.289     80.794     24.259     2.5249
      2.289     88.357     15.003     1.9258
      2.289     93.249     6.6716     2.8206
      2.289     100.78     6.7659     1.2599
      2.289     108.29     10.361     1.8129
      2.289     115.83     9.2857     1.5188
      2.289     130.41     3.9641    0.86847
      2.289     144.43     2.3211     1.1692
      2.361     5.7845     650.13      328.2
      2.361     13.213 1.7043E+03     373.39
      2.361     20.803 1.1692E+03     346.44
      2.361     28.812 1.5989E+03     158.11
      2.361     36.432     845.51     122.26
      2.361     43.517     587.61     260.48
      2.361     51.016     857.58       124.
      2.361     58.599     619.76     116.51
      2.361     66.152     573.55     113.85
      2.361     73.758     340.98     94.709
      2.361      81.24     574.24     107.95
      2.361     88.813     448.71     111.72
      2.361     93.407     256.48     132.74
      2.361     100.92      320.2     88.934
      2.361     115.67     82.806     42.332
      2.478     5.3293      3.825     1.6368
      2.478     12.836     5.5788    0.79424
      2.478     20.367     6.2408    0.65954
      2.478     27.888     7.6981     0.9097
      2.478     35.444     6.4232    0.56125
      2.478      42.99     5.9927    0.52364
      2.478     50.527     6.1651    0.63296
      2.478     58.052     7.3953     0.6462
      2.478     65.583     8.1582    0.83758
      2.478     73.148     6.0876    0.53194
      2.478     80.712     4.6065    0.40251
      2.478     88.266     3.9524     0.5292
      2.478     92.603     2.8278    0.33416
      2.478     100.68     2.9501      0.395
      2.478     107.67     3.1647    0.42373
      2.478     114.73     1.6657    0.24958
      2.478     129.79     2.1435    0.32116
      2.478     144.35     1.7158    0.25709
      2.591     4.7686     122.07     53.538
      2.591     12.839     100.33     49.616
      2.591     20.152      10.79     7.2527
      2.591     28.137     18.011     7.3545
      2.591     34.504     73.361     37.709
      2.591     42.918      3.591     7.2195
      2.591     50.293     14.437      7.421
      2.591     58.255     28.957     11.369
      2.591     65.948     8.5529     2.1371
      2.693     12.837     19.074      5.165
      2.693     20.083     3.2304      1.622
      2.693     28.002      9.762     1.4258
      2.693     34.512     12.541     1.6899
      2.693     43.055     13.228      1.932
      2.693     50.186     6.0895     2.4443
      2.693     58.148     12.731     1.7155
      2.693     65.244     7.9321     1.5058
      2.693     72.774     8.9346     1.4047
      2.693     79.897     4.3928     2.1176
      2.693     87.888     7.1523     1.4335
      2.693     92.917     7.1552     1.5089
      2.693     99.969     6.5292     1.2395
      2.693     107.56     4.1767     1.0084
      2.693     114.65     2.7793    0.95507
      2.852     7.0215 6.1776E+03 2.0615E+03
      2.852     14.502 7.7218E+03 1.3773E+03
      2.852     21.299      259.8     97.671
      2.852     29.624 1.9031E+03      276.8
      2.852     36.634 1.6922E+03     246.12
      2.852     44.651 1.3911E+03     248.12
      2.852     51.687     915.19      328.9
      2.852     59.633 1.6946E+03     246.46
      2.852     66.668 1.1296E+03     213.56
      2.852     74.188     892.74      178.2
      2.852     81.251     434.57     208.81
      2.852     89.613 2.0934E+03     304.48
      2.852     93.739     495.75     138.43
      2.852     101.22     619.67     130.15
      2.852     108.77     330.62     104.48
      2.852     116.24     464.96      138.5
      3.183     6.3398     332.32     139.77
      3.183     13.791      620.3     109.85
      3.183       20.9     152.51       42.3
      3.183     29.318     431.47      47.62
      3.183     37.307     497.97     54.551
      3.183     43.867     228.44     28.339
      3.183     51.404      141.3       20.4
      3.183     59.356     260.35     34.675
      3.183     66.426     106.25     43.067
      3.183     74.392     163.21     25.366
      3.183     81.904      139.7      20.17
      3.183      88.96     67.505     28.392
      3.183     93.429     99.709     17.657
      3.183      100.9     151.18     20.135
      3.183     108.44     84.278      15.82
      3.183     116.51     33.953      10.66
      3.183     131.52     28.698     7.9599
      3.183     146.04     23.329     10.329
      3.475     6.0559     313.42     137.05
      3.475      14.01     571.95     95.623
      3.475     21.125     124.03     58.649
      3.475     29.037       397.     48.631
      3.475      36.59     196.11     28.462
      3.475     51.567     261.63     32.049
      3.475     59.083     209.59     30.419
      3.475     66.166     69.954     14.662
      3.475     73.653     81.862     38.143
      3.475     81.207     39.913      12.59
      3.475     88.637     100.98     20.115
      3.475     93.695      46.72     11.212
      3.475     101.13     116.66     38.858
      3.475     115.38      3.957      7.903
      3.475     130.71     35.113     11.388
      3.593     12.774     58.348     18.509
      3.593     20.253     73.973     10.804
      3.593     28.288     48.576     6.5454
      3.593     35.307     38.856     4.7904
      3.593     43.309     37.864     4.6681
      3.593     50.335     27.623     4.9474
      3.593     58.313     35.485     4.3748
      3.593     65.362     19.897     6.1316
      3.593     72.873     17.224     2.8976
      3.593     80.059     1.8894     1.2719
      3.593      88.43     8.6972     2.5197
      3.593     93.414     10.459     4.8974
      3.593     100.87      17.48     3.5035
      3.593     114.59     1.2757    0.56826
      3.593       130.     3.7068     1.2416
       3.78     5.0634     13.187     6.3569
       3.78     12.167     4.1446     1.9115
       3.78     27.637     5.7645    0.84194
       3.78      35.11     7.7033     1.1251
       3.78     43.105     8.1236     1.1865
       3.78     58.095     9.0338     1.1138
       3.78     64.636     5.7023    0.89651
       3.78      72.15     4.8717     1.9168
       3.78     80.155     4.5638    0.71752
       3.78     87.182     3.3735    0.74621
       3.78     92.166     4.0041    0.76014
       3.78     99.247     1.6373    0.76665
       3.78     114.24     1.7735    0.53027
       3.78      129.2     2.8506    0.63054
      3.818      4.352     6.4954     2.7947
      3.818     11.864      5.554     2.1757
      3.818     19.328     8.6691     2.1682
      3.818     27.338     7.6094     1.0199
      3.818     34.818     9.6339     1.1814
      3.818     64.888     4.0165     0.7586
      3.818     72.401     3.4344     1.7399
      3.818     79.933     2.2903    0.59514
ENDDATA            259
ENDSUBENT          270
SUBENT        F0749004   20081225   20090323   20090318       F034
BIB                  2          2
REACTION   (50-SN-118(T,P)50-SN-120,PAR,DA,,REL)
STATUS     (CURVE) Fig.3(a)
ENDBIB               2
COMMON               4          3
EN         E-LVL      E-LVL      ANG-ERR-D
MEV        MEV        MEV        ADEG
  12.        2.402      2.416     0.362
ENDCOMMON            3
DATA                 3         18
ANG-CM     DATA-CM    DATA-ERR
ADEG       ARB-UNITS  ARB-UNITS
      5.391     256.76     24.697
     11.923     270.74     22.174
     19.488     228.43     18.709
     27.057     185.29     12.563
     35.175      104.1     8.5257
     42.731     95.024     7.7826
     50.257     109.85     8.9965
     57.775     135.59     13.042
     64.902     67.685     5.5434
      72.53     34.235     3.7887
     80.082     32.082     4.0209
     87.574      48.85      5.406
     92.175     26.725     3.3496
      100.2     31.304       4.86
     107.33     16.042     2.4906
     115.37     16.697     2.4323
     129.99     12.043     6.1129
     144.63     7.6177     1.6024
ENDDATA             20
ENDSUBENT           31
ENDENTRY             4
