ENTRY            F0759   20180205   20180409   20180409       F067
SUBENT        F0759001   20180205   20180409   20180409       F067
BIB                  9         13
TITLE      Investigation of mechanism of alpha particles elastic
           scattering on Be-9 nucleus.
AUTHOR     (N.Burtebaev)
INSTITUTE  (4KASKAZ)
REFERENCE  (J,VAT/Y,,(1-2),137,2002)
FACILITY   (ISOCY,4KASKAZ)
DETECTOR   (SI)
SAMPLE     Beryllium metallic foils with the thickness from 0.5
           to 1 mg/cm2 were used as a target.
METHOD     (EDE)
HISTORY    (20060427C)
           (20100806A) Reference code was changed.
           (20180205A) Volume number was removed from Reference.
ENDBIB              13
NOCOMMON             0          0
ENDSUBENT           16
SUBENT        F0759002   20060613   20060823   20060818       F025
BIB                  2          2
REACTION   (4-BE-9(A,EL)4-BE-9,,DA)
STATUS     (TABLE) Data were presented by Dr. N.Burtebaev
ENDBIB               2
NOCOMMON             0          0
DATA                 3        239
EN         ANG-CM     DATA-CM
MEV        ADEG       MB/SR
 29.000     14.423     3326.3
 29.000     17.298     595.81
 29.000     20.168     186.44
 29.000     23.032     12.696
 29.000     25.888     48.035
 29.000     28.737     103.09
 29.000     31.577     112.74
 29.000     34.407     95.017
 29.000     37.227     53.827
 29.000     40.035     27.942
 29.000     42.830     9.8046
 29.000     45.613     4.1490
 29.000     48.380     5.8309
 29.000     52.503     11.822
 29.000     56.588     11.613
 29.000     60.632     8.1064
 29.000     64.632     3.1860
 29.000     68.584     1.3264
 29.000     72.486     1.6003
 29.000     76.334     2.8440
 29.000     81.377     3.7962
 29.000     86.311     3.2587
 29.000     91.131     2.4778
 29.000     95.831     2.0572
 29.000     100.40     1.8992
 29.000     100.40     1.3612
 29.000     105.94     2.4430
 29.000     111.26     2.6019
 29.000     116.37     3.2223
 29.000     116.37     3.4812
 29.000     121.26     3.7724
 29.000     125.94     3.4502
 29.000     130.40     2.3609
 29.000     134.67     1.6272
 29.000     138.74     1.5710
 29.000     142.62     1.7726
 29.000     146.33     2.0636
 29.000     149.89     1.6339
 29.000     153.30     1.1213
 29.000     156.59    0.49200
 29.000     159.76    0.76600
 29.000     162.83    0.82900
 29.000     165.82     1.4539
 29.000     168.74     2.1275
 29.000     171.60     3.5049
 29.000     174.42     4.8838
 40.000     14.423     1045.6
 40.000     15.861     549.07
 40.000     17.298     233.62
 40.000     18.734     82.275
 40.000     20.168     18.810
 40.000     21.601     13.229
 40.000     23.032     34.933
 40.000     24.461     64.948
 40.000     25.888     86.507
 40.000     27.314     92.523
 40.000     28.737     94.893
 40.000     30.158     81.290
 40.000     31.577     58.215
 40.000     34.407     27.557
 40.000     37.227     8.2646
 40.000     40.035     3.6470
 40.000     42.830     7.0764
 40.000     45.613     11.667
 40.000     48.380     11.946
 40.000     51.133     9.8434
 40.000     53.869     7.0232
 40.000     56.588     4.7623
 40.000     59.288     3.6663
 40.000     61.970     3.2294
 40.000     64.632     3.3147
 40.000     67.272     3.1803
 40.000     69.891     2.8425
 40.000     72.486     2.6594
 40.000     75.058     2.5489
 40.000     77.605     2.6031
 40.000     80.126     2.4566
 40.000     82.621     2.5517
 40.000     85.088     2.2182
 40.000     87.527     1.8414
 40.000     91.131     1.3217
 40.000     94.667     1.2138
 40.000     98.133     1.3389
 40.000     102.64     1.2684
 40.000     105.94     1.0480
 40.000     109.16    0.84038
 40.000     112.30    0.79027
 40.000     116.37    0.93448
 40.000     119.33     1.4176
 40.000     122.21     1.2854
 40.000     125.02     1.5680
 40.000     127.75     1.1386
 40.000     130.40     1.0397
 40.000     132.99     1.0591
 40.000     135.50     1.3300
 40.000     137.94     1.5394
 40.000     140.31     1.3029
 40.000     142.62     1.0748
 40.000     144.87    0.90868
 40.000     147.06     1.1556
 40.000     149.19     1.2848
 40.000     151.27     1.8469
 40.000     153.97     2.7933
 45.000     14.423     561.61
 45.000     15.861     319.14
 45.000     17.298     140.60
 45.000     18.734     28.920
 45.000     20.168     11.430
 45.000     21.601     17.613
 45.000     23.032     38.877
 45.000     24.461     62.352
 45.000     25.888     69.009
 45.000     27.314     72.121
 45.000     28.737     62.081
 45.000     30.158     56.201
 45.000     31.577     41.857
 45.000     32.993     28.332
 45.000     34.407     17.307
 45.000     35.819     14.432
 45.000     37.227     9.9092
 45.000     38.632     6.1798
 45.000     40.035     3.9143
 45.000     41.434     5.5342
 45.000     42.830     5.4630
 45.000     45.613     10.258
 45.000     48.380     8.1961
 45.000     51.133     8.7824
 45.000     52.503     7.0856
 45.000     55.230     5.1617
 45.000     56.588     4.2916
 45.000     59.288     3.4670
 45.000     61.970     3.3775
 45.000     63.303     3.1774
 45.000     67.272     3.1198
 45.000     69.891     2.7903
 45.000     72.486     2.3481
 45.000     76.334     1.9457
 45.000     80.126     1.8895
 45.000     82.621     2.1248
 45.000     83.858     1.7478
 45.000     87.527     1.7227
 45.000     91.131     1.1135
 45.000     94.667    0.88343
 45.000     98.133    0.83899
 45.000     101.53    0.90521
 45.000     104.85    0.85727
 45.000     108.09    0.74733
 45.000     111.26    0.73879
 45.000     114.35    0.92339
 45.000     116.37     1.0120
 45.000     119.33     1.2156
 45.000     122.21     1.1478
 45.000     125.02    0.92539
 45.000     127.75    0.64987
 45.000     131.27    0.47809
 45.000     134.67    0.66720
 45.000     137.94    0.89459
 45.000     138.74    0.87068
 45.000     141.09    0.92620
 45.000     144.13    0.76168
 45.000     147.06    0.64078
 45.000     149.89    0.95605
 45.000     153.30     1.5437
 45.000     155.94     2.2126
 45.000     156.59     2.1039
 45.000     158.50     2.3183
 45.000     159.76     1.9128
 45.000     161.00     2.2004
 45.000     162.83     1.8920
 45.000     163.43     1.7122
 45.000     165.82     1.3367
 50.500     14.400     420.60
 50.500     17.300     120.48
 50.500     20.100     20.310
 50.500     23.000     67.480
 50.500     25.900     79.900
 50.500     28.700     55.820
 50.500     31.600     12.900
 50.500     34.400     8.6700
 50.500     37.200     6.2100
 50.500     40.000     9.8100
 50.500     42.800     12.400
 50.500     45.600     12.100
 50.500     48.300     9.2400
 50.500     51.100     6.8770
 50.500     53.800     5.3800
 50.500     56.600     4.5100
 50.500     59.300     4.0500
 50.500     61.900     3.7100
 50.500     64.600     3.2500
 50.500     67.300     2.8100
 50.500     69.900     2.4600
 50.500     72.500     2.2600
 50.500     75.100     2.1700
 50.500     77.600     1.6500
 50.500     80.100     1.5000
 50.500     82.600     1.2800
 50.500     85.100     1.2500
 50.500     87.500     1.2600
 50.500     89.900     1.1600
 50.500     92.300     1.0100
 50.500     94.600    0.97500
 50.500     97.000    0.74700
 50.500     99.200    0.68400
 50.500     101.50    0.62100
 50.500     103.70    0.60200
 50.500     105.90    0.42700
 50.500     108.10    0.60910
 50.500     110.20    0.61810
 50.500     112.30    0.59310
 50.500     114.30    0.63110
 50.500     116.30    0.69210
 50.500     119.30    0.64010
 50.500     122.20    0.68310
 50.500     125.00    0.61010
 50.500     127.70    0.42510
 50.500     130.40    0.31200
 50.500     133.00    0.30900
 50.500     135.50    0.48500
 50.500     137.90    0.52000
 50.500     140.30    0.61700
 50.500     142.50    0.61500
 50.500     144.80    0.56700
 50.500     147.00    0.43000
 50.500     149.20    0.29800
 50.500     151.20    0.33600
 50.500     153.30    0.39100
 50.500     155.30    0.58200
 50.500     157.20    0.71800
 50.500     159.10    0.71700
 50.500     161.00    0.79500
 50.500     162.20    0.68700
 50.500     164.00    0.62100
 50.500     165.80    0.44000
 50.500     167.50    0.34800
 50.500     169.30    0.30000
 50.500     171.00    0.41300
 50.500     172.70    0.57800
 50.500     174.40     1.1510
ENDDATA            241
ENDSUBENT          248
ENDENTRY             2
