ENTRY            F0788   20070126   20070320   20070315       F026
SUBENT        F0788001   20070126   20070320   20070315       F026
BIB                 10         20
TITLE      Excited states in 10B from the reaction 6Li(a,a)6Li.
AUTHOR     (V.Meyer,R.E.Pixley,P.Truol)
INSTITUTE  (2SWTZUR)
REFERENCE  (J,NP/A,101,321,1967)
FACILITY   (VDG)
DETECTOR   (NAICR)7.6*7.6 cm crystal to be placed perpendicularly
           to the beam at a distance of 2 cm from the target.
           (SIBAR)The alpha detectors were of the silicon surface
           barrier type with a specific resistivity of 5000 omega
           *cm and 300 omega*cm, and an active area of 40 mm**2.
SAMPLE     The targets consisted of thin layers of 6Li enriched
            (99.3%)LiF (2-5 mu-g/cm**2),evaporated within a lower
           section of the chamber on carbon backings.The thin LiF-
           target contained a small gold layer for calibration
           purposes.
METHOD     (PHD)
ERR-ANALYS (ERR-S) Statistical error of experiment
           (ERR-SYS) Systematic errors of the absolute cross
           sections
HISTORY    (20061018C)
ENDBIB              20
COMMON               3          3
EN-NRM     ERR-S      ERR-SYS
KEV        PER-CENT   PER-CENT
 3188.8     5.         10.
ENDCOMMON            3
ENDSUBENT           27
SUBENT        F0788002   20070126   20070320   20070315       F026
BIB                  3          5
REACTION   (3-LI-6(A,EL)3-LI-6,,DA)
ERR-ANALYS (ANG-ERR-D)Digitizing error
           (ERR-DIG)Digitizing error
           (DATA-ERR)Error from the graphic bars
STATUS     (CURVE)Fig.2
ENDBIB               5
COMMON               2          3
ANG-ERR-D  ERR-DIG
ADEG       MB/SR
 0.011      0.02519
ENDCOMMON            3
DATA                 4         78
EN         ANG-CM     DATA-CM    DATA-ERR
MEV        ADEG       MB/SR      MB/SR
 1.4000     64.909    0.40600    0.60000E-02
 1.4000     80.182    0.26133    0.46667E-02
 1.4000     94.727    0.19800    0.53333E-02
 1.4000     109.03    0.21200    0.53333E-02
 1.4000     121.03    0.24266    0.66667E-02
 1.4000     132.67    0.21866    0.73333E-02
 1.7000     65.043    0.34618    0.67566E-02
 1.7000     79.861    0.22051    0.40540E-02
 1.7000     95.401    0.15498    0.40540E-02
 1.7000     108.65    0.14552    0.40540E-02
 1.7000     121.06    0.16715    0.54053E-02
 1.7000     132.14    0.18607    0.47297E-02
 1.7000     141.42    0.19283    0.54053E-02
 2.0000     64.982    0.28286    0.61433E-02
 2.0000     80.317    0.16207    0.47781E-02
 2.0000     94.683    0.99983E-010.47781E-02
 2.0000     108.80    0.90455E-010.34129E-02
 2.0000     120.75    0.11300    0.34130E-02
 2.0000     132.09    0.14920    0.54607E-02
 2.0000     141.51    0.17516    0.54607E-02
 2.0000     148.87    0.20043    0.75085E-02
 2.3000     64.561    0.28047    0.47458E-02
 2.3000     79.948    0.12727    0.40678E-02
 2.3000     94.490    0.67623E-010.33898E-02
 2.3000     108.55    0.69670E-010.54237E-02
 2.3000     120.81    0.97478E-010.40678E-02
 2.3000     131.74    0.14766    0.40678E-02
 2.3000     140.87    0.18428    0.47458E-02
 2.3000     148.80    0.23242    0.47457E-02
 2.3000     155.29    0.24395    0.61017E-02
 2.6000     49.155    0.48121    0.93960E-02
 2.6000     57.107    0.37114    0.67114E-02
 2.6000     65.059    0.23155    0.40269E-02
 2.6000     72.650    0.15973    0.33557E-02
 2.6000     79.759    0.97990E-010.33557E-02
 2.6000     87.831    0.65105E-010.46980E-02
 2.6000     94.699    0.44300E-010.40268E-02
 2.6000     101.93    0.39603E-010.33557E-02
 2.6000     108.79    0.41617E-010.40268E-02
 2.6000     115.42    0.56383E-010.40268E-02
 2.6000     120.84    0.76518E-010.33557E-02
 2.6000     126.75    0.10135    0.46980E-02
 2.6000     131.93    0.12216    0.33557E-02
 2.6000     136.51    0.14229    0.40268E-02
 2.6000     140.84    0.16511    0.40268E-02
 2.6000     145.42    0.19397    0.46980E-02
 2.6000     148.67    0.23692    0.10067E-01
 2.6000     155.54    0.24162    0.80537E-02
 2.9000     49.113    0.20618    0.66622E-02
 2.9000     65.153    0.19217    0.59960E-02
 2.9000     80.103    0.72899E-010.39973E-02
 2.9000     94.694    0.27576E-010.33311E-02
 2.9000     108.68    0.30889E-010.46635E-02
 2.9000     120.75    0.67515E-010.33311E-02
 2.9000     132.45    0.11014    0.39973E-02
 2.9000     141.25    0.16475    0.46635E-02
 2.9000     149.34    0.21671    0.59960E-02
 2.9000     155.85    0.22136    0.86608E-02
 3.1000     49.051    0.19494    0.74324E-02
 3.1000     64.976    0.13078    0.60810E-02
 3.1000     80.057    0.44326E-010.40540E-02
 3.1000     94.894    0.13275E-010.40540E-02
 3.1000     108.76    0.20060E-010.27027E-02
 3.1000     120.22    0.47110E-010.40540E-02
 3.1000     133.24    0.89028E-010.40540E-02
 3.1000     140.84    0.12620    0.40540E-02
 3.1000     148.92    0.15392    0.40540E-02
 3.1000     155.55    0.16813    0.47297E-02
 3.5000     48.931    0.18629    0.47945E-02
 3.5000     64.614    0.70510E-010.41096E-02
 3.5000     79.824    0.71172E-010.47945E-02
 3.5000     94.553    0.45122E-010.47945E-02
 3.5000     108.20    0.18388E-010.47945E-02
 3.5000     120.18    0.41658E-010.47945E-02
 3.5000     131.80    0.13274    0.47945E-02
 3.5000     140.31    0.25806    0.61644E-02
 3.5000     148.58    0.36422    0.75342E-02
 3.5000     154.69    0.39845    0.75343E-02
ENDDATA             80
ENDSUBENT           94
SUBENT        F0788003   20070126   20070320   20070315       F026
BIB                  3          5
REACTION   (3-LI-6(A,EL)3-LI-6,,DA)
ERR-ANALYS (EN-ERR-DIG)Digitizing error
           (ERR-DIG)Digitizing error
           (DATA-ERR)Error from the graphic bars
STATUS     (CURVE)Fig.3,5,6
ENDBIB               5
COMMON               2          3
EN-ERR-DIG ERR-DIG
MEV        MB/SR
 0.0041     0.13
ENDCOMMON            3
DATA                 4        300
ANG-CM     EN         DATA-CM    DATA-ERR
ADEG       MEV        MB/SR      MB/SR
 49.500     2.7607     350.74     8.2927
 49.500     2.7652     350.01     7.5610
 49.500     2.7674     348.80     7.0732
 49.500     2.7696     346.12     7.8049
 49.500     2.7718     346.37     7.3171
 49.500     2.7740     344.42     7.3171
 49.500     2.7763     338.32     7.5610
 49.500     2.7784     326.86     6.5854
 49.500     2.7806     312.72     6.8293
 49.500     2.7828     328.58     6.8293
 49.500     2.7851     336.63     6.3415
 49.500     2.7871     340.54     6.5854
 49.500     2.7895     340.54     6.5854
 49.500     2.7916     341.03     6.3415
 49.500     2.7939     336.16     6.3415
 49.500     2.7961     340.79     6.3415
 49.500     2.8006     343.24     6.0976
 54.700     3.2925     319.56
 54.700     3.3225     332.11
 54.700     3.3500     330.66
 54.700     3.3828     325.34
 54.700     3.4118     289.11
 54.700     3.4398     265.92
 54.700     3.4592     229.69
 54.700     3.4698     186.70
 54.700     3.4785     146.60
 54.700     3.4896     130.18
 54.700     3.4997     139.84
 54.700     3.5075     171.72
 54.700     3.5200     230.65
 54.700     3.5297     254.32
 54.700     3.5490     274.12
 54.700     3.5795     254.80
 54.700     3.6104     265.42
 54.700     3.6398     259.14
 54.700     3.6712     252.37
 54.700     3.7002     238.36
 54.700     3.7311     227.73
 73.100     2.7606     133.83
 73.100     2.7651     129.67
 73.100     2.7674     133.84
 73.100     2.7695     127.47
 73.100     2.7718     126.00
 73.100     2.7739     121.84
 73.100     2.7762     114.00
 73.100     2.7784     97.825
 73.100     2.7807     123.81
 73.100     2.7828     153.71
 73.100     2.7851     144.16
 73.100     2.7872     144.16
 73.100     2.7895     148.57
 73.100     2.7917     152.01
 73.100     2.7938     147.85
 73.100     2.7960     145.15
 73.100     2.8005     141.48
 90.000     1.9936     120.00     6.0606
 90.000     2.0210     115.76     4.5454
 90.000     2.0476     115.76     6.0606
 90.000     2.0724     144.25     7.5757
 90.000     2.0990     117.89     5.1515
 90.000     2.1247     116.37     5.1515
 90.000     2.1504     133.95     8.1818
 90.000     2.1779     86.073     4.8485
 90.000     2.2036     81.226     4.2424
 90.000     2.2311     85.168     3.3333
 90.000     2.2568     76.078     4.2424
 90.000     2.2825     75.474     3.6364
 90.000     2.3091     68.809     4.2424
 90.000     2.3357     69.719     4.2424
 90.000     2.3623     64.266     3.0303
 90.000     2.3889     63.056     2.4242
 90.000     2.4146     57.300     2.7273
 90.000     2.4421     47.908     4.2424
 90.000     2.4669     82.151     3.3333
 90.000     2.4935     60.638     2.7273
 90.000     2.5200     59.427     3.3333
 90.000     2.5475     50.338     3.3333
 90.000     2.5732     50.340     3.3333
 90.000     2.5980     47.311     3.0303
 90.000     2.6237     54.282     3.0303
 90.000     2.6503     44.890     3.0303
 90.000     2.6769     48.225     3.0303
 90.000     2.7026     47.014     3.0303
 90.000     2.7310     35.198     3.3333
 90.000     2.7549     43.381     3.6364
 90.000     2.7815     35.504     3.6364
 90.000     2.8081     32.475     2.1212
 90.000     2.8356     35.204     2.7273
 90.000     2.8613     34.903     2.7273
 90.000     2.8870     31.874     2.7273
 90.000     2.9135     42.482     2.4242
 90.000     2.9393     37.938     2.7273
 90.000     2.9658     47.030     3.6363
 90.000     2.9924     25.517     3.3333
 90.000     3.0199     27.033     2.4242
 90.000     3.0447     27.338     2.4242
 90.000     3.0722     23.400     2.1212
 90.000     3.0970     24.917     2.4242
 90.000     3.1245     23.403     2.4242
 90.000     3.1502     22.496     2.1212
 90.000     3.1768     19.770     1.8182
 90.000     3.2034     21.590     2.4242
 90.000     3.2291     20.985     2.7273
 90.000     3.2557     21.290     2.1212
 90.000     3.2822     24.928     2.4242
 110.00     2.7607     44.817
 110.00     2.7650     45.908
 110.00     2.7674     48.085
 110.00     2.7695     45.912
 110.00     2.7716     47.001
 110.00     2.7740     50.990
 110.00     2.7761     56.913
 110.00     2.7783     65.858
 110.00     2.7805     89.666
 110.00     2.7828     84.834
 110.00     2.7850     48.944
 110.00     2.7871     32.873
 110.00     2.7894     31.788
 110.00     2.7916     32.756
 110.00     2.7938     31.670
 110.00     2.7960     33.847
 110.00     2.8005     32.884
 112.00     1.9963     120.71     2.7985
 112.00     2.0229     116.61     4.2911
 112.00     2.0486     124.07     4.4776
 112.00     2.0734     114.56     3.1716
 112.00     2.1009     97.206     3.7313
 112.00     2.1266     106.72     4.1045
 112.00     2.1541     97.395     3.7313
 112.00     2.1798     91.985     2.9851
 112.00     2.2064     89.188     2.9851
 112.00     2.2330     82.659     3.1716
 112.00     2.2596     77.622     2.7985
 112.00     2.2844     82.847     2.9851
 112.00     2.3118     74.453     2.9851
 112.00     2.3384     72.774     2.6119
 112.00     2.3641     66.059     2.2388
 112.00     2.3907     65.127     3.5448
 112.00     2.4155     64.195     2.4254
 112.00     2.4430     55.614     3.1716
 112.00     2.4678     110.65     4.2910
 112.00     2.4944     78.004     2.9851
 112.00     2.5201     64.945     2.7985
 112.00     2.5476     56.177     2.9851
 112.00     2.5742     52.074     3.1716
 112.00     2.6008     50.022     2.4254
 112.00     2.6265     50.770     2.6119
 112.00     2.6540     41.815     3.1716
 112.00     2.6806     43.309     2.2388
 112.00     2.7054     45.549     2.7985
 112.00     2.7328     44.803     2.4254
 112.00     2.7577     45.177     2.9851
 112.00     2.7842     46.857     2.4254
 112.00     2.8099     54.321     1.6791
 112.00     2.8374     37.717     2.0522
 112.00     2.8631     39.584     2.0522
 112.00     2.8897     37.906     2.2388
 112.00     2.9163     38.840     2.2388
 112.00     2.9420     35.482     2.4254
 112.00     2.9686     31.006     2.0522
 112.00     2.9952     33.618     2.0522
 112.00     3.0209     33.246     2.2388
 112.00     3.0475     31.381     1.4925
 112.00     3.0732     32.315     1.6791
 112.00     3.0998     31.197     1.6791
 112.00     3.1255     35.302     2.0522
 112.00     3.1521     34.743     2.2388
 112.00     3.1795     32.506     1.4925
 112.00     3.2052     29.895     1.6791
 112.00     3.2309     36.239     2.4254
 112.00     3.2575     37.732     2.4254
 112.00     3.2841     34.188     2.2388
 125.30     1.9991     139.38     5.7458
 125.30     2.0265     157.20     8.0440
 125.30     2.0505     147.43     8.0441
 125.30     2.0771     142.26     6.8949
 125.30     2.1037     140.54     6.3203
 125.30     2.1294     127.90     8.0441
 125.30     2.1559     135.95     6.3203
 125.30     2.1834     133.66     7.4695
 125.30     2.2091     130.79     6.3203
 125.30     2.2348     130.79     7.4695
 125.30     2.2623     125.05     6.3203
 125.30     2.2871     116.43     6.3203
 125.30     2.3137     112.41     6.8949
 125.30     2.3394     130.80     7.4695
 125.30     2.3660     131.38     7.4695
 125.30     2.3926     140.00     8.6187
 125.30     2.4192     129.66     7.4695
 125.30     2.4449     153.23     8.0441
 125.30     2.4697     191.73     9.7678
 125.30     2.4962     297.45     22.408
 125.30     2.5228     183.69     10.917
 125.30     2.5503     94.057     5.1712
 125.30     2.5761     86.591     4.5966
 125.30     2.6018     93.489     6.3203
 125.30     2.6301     102.11     5.1712
 125.30     2.6549     83.153     4.5966
 125.30     2.6815     90.626     4.5966
 125.30     2.7081     79.712     7.4695
 125.30     2.7338     84.312     5.1712
 125.30     2.7604     85.464     5.1712
 125.30     2.7870     95.810     5.7458
 125.30     2.8127     86.620     4.5966
 125.30     2.8393     71.110     5.1712
 125.30     2.8650     83.754     7.4695
 125.30     2.8907     75.138     6.8949
 125.30     2.9173     89.506     4.5966
 125.30     2.9439     69.399     6.3203
 125.30     2.9704     67.104     6.3203
 125.30     2.9970     74.002     4.5966
 125.30     3.0236     71.707     5.1712
 125.30     3.0493     69.987     6.3203
 125.30     3.0750     69.415     5.1712
 125.30     3.1016     66.546     5.1712
 125.30     3.1273     68.847     5.1712
 125.30     3.1539     67.701     5.7458
 125.30     3.1805     70.003     4.5966
 125.30     3.2071     72.305     5.1712
 125.30     3.2328     74.606     5.7458
 125.30     3.2594     76.333     5.1712
 125.30     3.2868     72.314     5.7458
 141.00     2.7609     188.18
 141.00     2.7653     184.34
 141.00     2.7675     173.67
 141.00     2.7696     184.77
 141.00     2.7719     176.66
 141.00     2.7741     177.52
 141.00     2.7763     183.92
 141.00     2.7784     187.77
 141.00     2.7806     222.77
 141.00     2.7827     320.09
 141.00     2.7850     274.85
 141.00     2.7871     223.20
 141.00     2.7894     205.28
 141.00     2.7915     194.61
 141.00     2.7937     183.51
 141.00     2.7960     184.80
 141.00     2.8003     177.97
 141.00     3.2950     144.28
 141.00     3.3221     148.65
 141.00     3.3492     148.65
 141.00     3.3825     153.51
 141.00     3.4120     161.77
 141.00     3.4396     189.50
 141.00     3.4599     212.86
 141.00     3.4691     244.97
 141.00     3.4798     266.38
 141.00     3.4895     285.85
 141.00     3.4996     285.84
 141.00     3.5102     212.36
 141.00     3.5194     162.24
 141.00     3.5305     143.26
 141.00     3.5494     117.95
 141.00     3.5799     109.67
 141.00     3.6099     109.18
 141.00     3.6403     101.39
 141.00     3.6718     109.17
 141.00     3.7013     114.03
 141.00     3.7308     110.62
 148.80     2.7609     180.31
 148.80     2.7632     180.55
 148.80     2.7653     180.07
 148.80     2.7676     182.25
 148.80     2.7698     182.25
 148.80     2.7719     180.32
 148.80     2.7740     177.90
 148.80     2.7762     174.27
 148.80     2.7783     178.63
 148.80     2.7805     182.26
 148.80     2.7828     210.35
 148.80     2.7850     249.82
 148.80     2.7871     249.82
 148.80     2.7894     238.93
 148.80     2.7915     221.01
 148.80     2.7938     210.12
 148.80     2.7960     209.88
 148.80     2.7981     206.73
 148.80     2.8004     204.80
 155.30     3.2949     243.90
 155.30     3.3249     249.99
 155.30     3.3515     259.74
 155.30     3.3844     250.58
 155.30     3.4120     246.31
 155.30     3.4395     224.96
 155.30     3.4599     248.74
 155.30     3.4705     265.81
 155.30     3.4802     330.44
 155.30     3.4894     462.15
 155.30     3.5000     542.02
 155.30     3.5107     531.04
 155.30     3.5204     505.43
 155.30     3.5310     443.84
 155.30     3.5508     352.38
 155.30     3.5798     312.13
 155.30     3.6113     285.90
 155.30     3.6408     275.53
 155.30     3.6717     260.89
 155.30     3.7017     266.98
 155.30     3.7307     252.95
ENDDATA            302
ENDSUBENT          316
SUBENT        F0788004   20070126   20070320   20070315       F026
BIB                  3          5
REACTION   (3-LI-6(A,EL)3-LI-6,,DA,,REL)
ERR-ANALYS (EN-ERR-DIG)Digitizing error
           (ERR-DIG)Digitizing error
           (DATA-ERR)Error from the graphic bars
STATUS     (CURVE)Fig.4,9
ENDBIB               5
COMMON               2          3
EN-ERR-DIG ERR-DIG
MEV        ARB-UNITS
 0.009      0.0049
ENDCOMMON            3
DATA                 4         80
ANG-CM     EN-CM      DATA-CM    DATA-ERR
ADEG       MEV        ARB-UNITS  ARB-UNITS
 90.000     2.5954    0.88909    0.12183E-01
 90.000     2.5967    0.88325    0.12436E-01
 90.000     2.5979    0.90356    0.13198E-01
 90.000     2.5993    0.90559    0.12183E-01
 90.000     2.6006    0.90533    0.13198E-01
 90.000     2.6019    0.91244    0.10406E-01
 90.000     2.6032    0.94924    0.12436E-01
 90.000     2.6045    0.92995    0.11929E-01
 90.000     2.6058    0.86397    0.11421E-01
 90.000     2.6072    0.84112    0.12436E-01
 90.000     2.6085    0.87082    0.12183E-01
 90.000     2.6098    0.89975    0.12690E-01
 90.000     2.6111    0.88377    0.12183E-01
 90.000     2.6124    0.87158    0.12183E-01
 91.700     2.5977     1.0199    0.16500E-01
 91.700     2.5990     1.0099    0.16500E-01
 91.700     2.6003     1.0124    0.17000E-01
 91.700     2.6016     1.0084    0.16500E-01
 91.700     2.6029     1.0259    0.16750E-01
 91.700     2.6042     1.0397    0.17250E-01
 91.700     2.6055     1.0484    0.15500E-01
 91.700     2.6069     1.0142    0.16750E-01
 91.700     2.6082    0.98043    0.16500E-01
 91.700     2.6095    0.98668    0.16000E-01
 91.700     2.6108    0.97468    0.16500E-01
 91.700     2.6121     1.0007    0.16750E-01
 91.700     2.6135    0.97243    0.16750E-01
 110.40     2.5976     1.0028    0.11970E-01
 110.40     2.5988     1.0001    0.12718E-01
 110.40     2.6002     1.0071    0.12219E-01
 110.40     2.6014     1.0198    0.10972E-01
 110.40     2.6027     1.0128    0.12967E-01
 110.40     2.6041     1.0098    0.11471E-01
 110.40     2.6053    0.99830    0.13715E-01
 110.40     2.6066    0.99082    0.12967E-01
 110.40     2.6079    0.98907    0.12718E-01
 110.40     2.6092    0.98133    0.12718E-01
 110.40     2.6106    0.97110    0.13217E-01
 110.40     2.6119     1.0033    0.12219E-01
 110.40     2.6132    0.98530    0.12718E-01
 112.00     2.5953    0.81211    0.12030E-01
 112.00     2.5967    0.81160    0.13033E-01
 112.00     2.5980    0.80734    0.13283E-01
 112.00     2.5993    0.80783    0.12782E-01
 112.00     2.6006    0.78978    0.12030E-01
 112.00     2.6019    0.78602    0.12281E-01
 112.00     2.6032    0.80582    0.12281E-01
 112.00     2.6045    0.81333    0.12531E-01
 112.00     2.6058    0.79804    0.12531E-01
 112.00     2.6072    0.81182    0.12281E-01
 112.00     2.6085    0.80780    0.10025E-01
 112.00     2.6098    0.78399    0.12030E-01
 112.00     2.6111    0.80378    0.12531E-01
 112.00     2.6124    0.77195    0.12030E-01
 141.20     2.5978    0.97929    0.65656E-02
 141.20     2.5992    0.97601    0.70707E-02
 141.20     2.6005    0.97778    0.73231E-02
 141.20     2.6017    0.98763    0.70707E-02
 141.20     2.6031     1.0000    0.73231E-02
 141.20     2.6044     1.0121    0.68182E-02
 141.20     2.6056     1.0260    0.70707E-02
 141.20     2.6070     1.0164    0.65657E-02
 141.20     2.6083     1.0002    0.70707E-02
 141.20     2.6096     1.0028    0.65657E-02
 141.20     2.6109    0.98838    0.70706E-02
 141.20     2.6122    0.99671    0.63131E-02
 141.20     2.6135    0.99040    0.73231E-02
 148.80     2.5976     1.0029    0.12121E-01
 148.80     2.5989     1.0150    0.12626E-01
 148.80     2.6003    0.96852    0.12879E-01
 148.80     2.6016    0.98694    0.11869E-01
 148.80     2.6029     1.0031    0.11869E-01
 148.80     2.6041     1.0127    0.12626E-01
 148.80     2.6055    0.98920    0.12374E-01
 148.80     2.6067     1.0048    0.13131E-01
 148.80     2.6081    0.99524    0.12374E-01
 148.80     2.6093     1.0278    0.12374E-01
 148.80     2.6106     1.0137    0.11616E-01
 148.80     2.6119    0.99724    0.12374E-01
 148.80     2.6133     1.0096    0.12626E-01
ENDDATA             82
ENDSUBENT           96
SUBENT        F0788005   20070126   20070320   20070315       F026
BIB                  3          5
REACTION  1(3-LI-6(A,EL),,WID)
          2(3-LI-6(A,0),,J)
          3(3-LI-6(A,0),,PTY)
ERR-ANALYS (DATA-ERR)  Error in resonance width definition
STATUS     Data from text p.321.
ENDBIB               5
NOCOMMON             0          0
DATA                 5          4
EN-RES     DATA      1DATA-ERR  1DATA      2DATA      3
MEV        KEV        KEV        NO-DIM     NO-DIM
 2.6100    0.90000E-010.40000E-01 4.0000     1.0000
 2.7800     3.9500    0.55000     3.0000    -1.0000
 3.5000     41.800     1.9000     2.0000    -1.0000
 3.5000     41.800     1.9000     4.0000    -1.0000
ENDDATA              6
ENDSUBENT           16
ENDENTRY             5
