ENTRY            F0796   20070111   20070320   20070315       F026
SUBENT        F0796001   20070111   20070320   20070315       F026
BIB                 10         18
TITLE      The reaction 12C(d,n0)13N and 12(d,p0)13C at deuteron
           energies from 2.7 to 3.2 MeV.
AUTHOR     (T.Gudehus,M.Cosack,R.Felst,H.Wahl)
INSTITUTE  (2GERHAM)
REFERENCE  (J,NP,80,577,1966)
FACILITY   (VDG)3 MeV HVEC
INC-SOURCE The energy spread of the beam was about 2 keV.
DETECTOR   (SCIN) NE-213 liquid scintillator (12.5*2.5 cm).
           The relative efficiency of the scintillator was
           determined by measuring the H3(P,N)HE4 and H2(D,N)HE3
           neutrons, relating them to the known cross sections.
METHOD     (TOF)
ERR-ANALYS (ERR-DIG)Digitizing error
           The relative errors of the efficiency are estimated to
           be less than 10% for neutrons in the energy range from
           1.2 to 2.8 MeV. For a single yield the error is
           estimated to be less than 5%.
HISTORY    (20061110C)
ENDBIB              18
COMMON               1          3
EN-RSL
KEV
  10.
ENDCOMMON            3
ENDSUBENT           25
SUBENT        F0796002   20070111   20070320   20070315       F026
BIB                  5          7
REACTION   (6-C-12(D,N)7-N-13,,DA,,REL)
DETECTOR   Time-of-flight spectrometer.
SAMPLE     The target was a thin layer of 30 mu-g/cm2 natural
           carbon, which was evaporated on a tantalum sheet (2.8
           *0.02 cm).
ERR-ANALYS (ANG-ERR-D)Digitizing error
STATUS     (CURVE)Fig.5
ENDBIB               7
COMMON               2          3
ANG-ERR-D  ERR-DIG
ADEG       ARB-UNITS
 0.066      0.046
ENDCOMMON            3
DATA                 3         61
EN         ANG-CM     DATA-CM
MEV        ADEG       ARB-UNITS
 2.8900     1.6246     113.70
 2.8900     7.3824     116.20
 2.8900     13.288     127.00
 2.8900     18.898     130.00
 2.8900     23.918     133.30
 2.8900     29.823     126.90
 2.8900     34.843     119.50
 2.8900     45.325     86.600
 2.8900     56.841     49.700
 2.8900     66.880     36.900
 2.8900     77.067     31.000
 2.8900     87.254     28.900
 2.8900     102.61     37.300
 2.8900     107.18     39.400
 2.8900     117.37     43.400
 2.8900     126.67     46.400
 2.8900     135.97     48.000
 2.8900     145.27     50.100
 2.8900     154.43     50.000
 2.8900     162.99     49.800
 3.0000    0.66225     159.14
 3.0000     7.3033     162.30
 3.0000     12.611     171.45
 3.0000     18.215     177.95
 3.0000     23.676     180.61
 3.0000     29.880     176.18
 3.0000     34.919     152.85
 3.0000     45.147     102.85
 3.0000     57.430     66.924
 3.0000     66.902     39.560
 3.0000     77.246     28.047
 3.0000     87.435     25.097
 3.0000     92.454     25.296
 3.0000     102.78     34.553
 3.0000     107.50     36.622
 3.0000     117.68     44.304
 3.0000     126.54     45.489
 3.0000     136.58     44.705
 3.0000     145.44     44.511
 3.0000     154.89     41.069
 3.0000     163.31     37.332
 3.1600    0.74010     107.48
 3.1600     1.5019     114.42
 3.1600     7.8677     118.74
 3.1600     15.081     126.88
 3.1600     20.175     127.59
 3.1600     23.998     122.46
 3.1600     28.532     111.51
 3.1600     41.143     74.933
 3.1600     52.336     46.294
 3.1600     61.685     27.404
 3.1600     72.157     26.200
 3.1600     81.072     26.705
 3.1600     95.361     33.843
 3.1600     102.86     39.272
 3.1600     109.79     43.394
 3.1600     118.70     52.240
 3.1600     128.75     56.965
 3.1600     137.24     58.676
 3.1600     147.00     58.075
 3.1600     154.22     56.871
ENDDATA             63
ENDSUBENT           79
SUBENT        F0796003   20070111   20070320   20070315       F026
BIB                  5         11
REACTION   (6-C-12(D,P)6-C-13,,DA,,REL)
DETECTOR   (SIBAR)The protons were detected with two silicon
           surface barrier counters, with a depletion layer of
           about 500 mu and 4.5 mm diameter sensitive area. They
           were mounted at 7.5 cm distance from the target.
SAMPLE     A self-supporting target of natural carbon was used.The
           target thickness was determined to be about 10 mu-g/cm2
           by comparing the energy loss of alpha particles in the
           target with that in the equivalent amount of air.
ERR-ANALYS (ANG-ERR-D)Digitizing error
STATUS     (CURVE)Fig.6
ENDBIB              11
COMMON               2          3
ANG-ERR-D  ERR-DIG
ADEG       ARB-UNITS
 0.135      0.105
ENDCOMMON            3
DATA                 3         50
EN         ANG-CM     DATA-CM
MEV        ADEG       ARB-UNITS
 2.9300     13.024     122.46
 2.9300     22.891     139.82
 2.9300     33.974     133.01
 2.9300     44.467     114.34
 2.9300     54.966     88.203
 2.9300     65.757     72.171
 2.9300     76.245     60.312
 2.9300     84.634     52.407
 2.9300     96.312     50.874
 2.9300     106.49     57.030
 2.9300     114.56     67.797
 2.9300     125.93     80.104
 2.9300     136.40     87.138
 2.9300     145.09     85.165
 2.9300     155.27     75.942
 2.9300     163.37     58.152
 2.9300     168.47     51.783
 2.9900     12.192     199.02
 2.9900     33.761     187.84
 2.9900     44.593     142.63
 2.9900     55.124     98.081
 2.9900     65.640     66.261
 2.9900     76.139     48.928
 2.9900     84.530     41.910
 2.9900     96.799     47.405
 2.9900     106.07     60.580
 2.9900     114.43     73.535
 2.9900     125.49     89.345
 2.9900     135.97     91.108
 2.9900     144.66     82.334
 2.9900     155.16     63.684
 2.9900     163.27     43.715
 2.9900     168.97     30.989
 3.1500     14.673     67.846
 3.1500     25.152     91.075
 3.1500     36.230     89.527
 3.1500     46.409     73.819
 3.1500     56.589     55.014
 3.1500     67.367     35.546
 3.1500     77.546     34.440
 3.1500     85.630     29.573
 3.1500     97.905     27.582
 3.1500     108.08     35.546
 3.1500     116.47     43.289
 3.1500     127.85     51.032
 3.1500     137.73     56.120
 3.1500     146.71     56.784
 3.1500     157.49     53.023
 3.1500     165.57     48.598
 3.1500     171.56     46.607
ENDDATA             52
ENDSUBENT           72
SUBENT        F0796004   20070111   20070320   20070315       F026
BIB                  5          8
REACTION   (6-C-12(D,N)7-N-13,,DA,,REL)
DETECTOR   Time-of-flight spectrometer.
SAMPLE     The target was a thin layer of 30 mu-g/cm2 natural
           carbon, which was evaporated on a tantalum sheet (2.8
           cm diam.*0.02 cm).
ERR-ANALYS (EN-ERR-DIG)Digitizing error
           (DATA-ERR)Error from the graphic bars
STATUS     (CURVE)Fig.7
ENDBIB               8
COMMON               2          3
EN-ERR-DIG ERR-DIG
MEV        ARB-UNITS
 0.01      0.038
ENDCOMMON            3
DATA                 4        173
ANG-CM     EN         DATA-CM    DATA-ERR
ADEG       MEV        ARB-UNITS  ARB-UNITS
 22.500     2.7604     109.20     1.9000
 22.500     2.7618     114.00     2.0000
 22.500     2.7745     112.30     2.0000
 22.500     2.7855     119.00     1.7000
 22.500     2.7880     121.20     2.1000
 22.500     2.7990     127.40     2.3000
 22.500     2.8102     130.40     2.1000
 22.500     2.8116     132.30     2.0000
 22.500     2.8251     136.10     2.0000
 22.500     2.8318     138.50     2.0000
 22.500     2.8371     147.20     1.6000
 22.500     2.8416     135.80     2.0000
 22.500     2.8445     129.30     1.6000
 22.500     2.8465     126.40     2.2000
 22.500     2.8486     122.70     1.9000
 22.500     2.8500     121.00     1.8000
 22.500     2.8612     120.90     2.1000
 22.500     2.8631     120.70     2.4000
 22.500     2.8733     133.50     2.1000
 22.500     2.8753     133.40     1.9000
 22.500     2.8865     133.30     1.4000
 22.500     2.8884     135.90     1.9000
 22.500     2.8996     136.10     2.0000
 22.500     2.9018     137.60     1.8000
 22.500     2.9124     136.70     2.3000
 22.500     2.9165     140.40     1.7000
 22.500     2.9251     144.10     1.6000
 22.500     2.9267     143.80     2.2000
 22.500     2.9371     145.80     1.7000
 22.500     2.9394     145.90     2.0000
 22.500     2.9496     154.20     1.9000
 22.500     2.9514     151.40     2.6000
 22.500     2.9604     160.30     1.5000
 22.500     2.9639     156.50     2.4000
 22.500     2.9751     170.70     1.9000
 22.500     2.9767     172.20     1.2000
 22.500     2.9890     178.20     1.9000
 22.500     2.9906     176.40     1.6000
 22.500     2.9967     178.90     1.4000
 22.500     3.0037     177.80     1.3000
 22.500     3.0037     180.00     1.5000
 22.500     3.0139     177.20     1.1000
 22.500     3.0163     169.60     2.0000
 22.500     3.0225     163.00     1.3000
 22.500     3.0286     156.00     1.8000
 22.500     3.0414     134.80     2.1000
 22.500     3.0452     131.60     1.9000
 22.500     3.0514     119.90     1.4000
 22.500     3.0543     115.90     1.8000
 22.500     3.0671     111.10     2.2000
 22.500     3.0800     113.80     1.6000
 22.500     3.0818     111.10     1.7000
 22.500     3.0941     114.40     1.7000
 22.500     3.0945     111.80     1.7000
 22.500     3.1059     111.90     2.2000
 22.500     3.1074     114.50     2.6000
 22.500     3.1084     114.20     2.8000
 22.500     3.1198     112.50     1.6000
 22.500     3.1208     118.40     2.0000
 22.500     3.1339     118.30     1.5000
 22.500     3.1357     117.50     1.7000
 22.500     3.1461     123.60     2.0000
 22.500     3.1469     123.00     2.2000
 22.500     3.1582     124.40     2.3000
 22.500     3.1600     126.00     2.7000
 22.500     3.1735     124.90     1.4000
 22.500     3.1739     128.50     2.1000
 22.500     3.1876     129.80     1.6000
 22.500     3.1896     130.10     1.4000
 22.500     3.2002     130.50     1.8000
 22.500     3.2039     129.90     1.6000
 22.500     3.2135     130.40     2.1000
 22.500     3.2173     127.80     1.7000
 22.500     3.2267     130.70     1.2000
 22.500     3.2271     133.10     1.8000
 22.500     3.2412     132.60     1.5000
 77.000     2.8416     102.60
 77.000     2.8667     101.60
 77.000     2.8984     102.20
 77.000     2.9233     101.50
 77.000     2.9480     100.90
 77.000     2.9759     101.20
 77.000     3.0045     98.701
 77.000     3.0167     92.701
 77.000     3.0263     87.101
 77.000     3.0518     85.801
 77.000     3.0780     88.401
 77.000     3.1037     94.401
 77.000     3.1292     95.801
 77.000     3.1569     94.402
 77.000     3.1839     95.302
 77.000     3.2086     95.802
 77.000     3.2355     94.702
 135.50     2.7484     85.000     2.1000
 135.50     2.7604     71.900     1.8000
 135.50     2.7727     73.600     1.7000
 135.50     2.7841     68.500     1.8000
 135.50     2.7976     70.101     1.9000
 135.50     2.8139     70.501     1.5000
 135.50     2.8276     74.701     1.6000
 135.50     2.8435     80.001     1.6000
 135.50     2.8484     80.801     1.7000
 135.50     2.8541     79.801     1.7000
 135.50     2.8669     71.901     1.9000
 135.50     2.8735     70.001     1.8000
 135.50     2.8869     68.401
 135.50     2.8992     70.402
 135.50     2.9127     72.302
 135.50     2.9247     71.102
 135.50     2.9367     72.802
 135.50     2.9480     71.802     1.8000
 135.50     2.9600     67.602
 135.50     2.9731     65.802
 135.50     2.9882     66.302
 135.50     3.0014     64.002
 135.50     3.0151     63.703
 135.50     3.0269     66.403
 135.50     3.0404     67.803
 135.50     3.0529     68.603
 135.50     3.0676     68.903
 135.50     3.0806     68.703
 135.50     3.0937     66.203     1.6000
 135.50     3.1078     66.503
 135.50     3.1216     68.004
 135.50     3.1345     68.804
 135.50     3.1465     68.504
 135.50     3.1596     70.104
 135.50     3.1720     66.604     1.3000
 135.50     3.1867     69.704
 135.50     3.2000     72.904     1.3000
 135.50     3.2137     71.704
 135.50     3.2276     71.905
 135.50     3.2394     71.105
 162.50     2.7606     52.300     1.7000
 162.50     2.7735     33.400     1.6000
 162.50     2.7757     19.200     1.4000
 162.50     2.7855     26.300     1.7000
 162.50     2.7980     27.200     1.8000
 162.50     2.8041     24.900     1.5000
 162.50     2.8102     23.700     2.1000
 162.50     2.8243     20.700
 162.50     2.8294     17.900
 162.50     2.8357     16.800
 162.50     2.8406     17.100     1.6000
 162.50     2.8480     26.200
 162.50     2.8624     29.500
 162.50     2.8757     28.900
 162.50     2.8869     23.801     1.3000
 162.50     2.9000     25.701
 162.50     2.9141     24.301
 162.50     2.9237     22.901
 162.50     2.9359     19.301     1.7000
 162.50     2.9498     16.901     1.6000
 162.50     2.9629     16.901
 162.50     2.9757     15.601
 162.50     2.9869     15.201
 162.50     3.0022     15.601
 162.50     3.0151     20.801
 162.50     3.0282     26.801
 162.50     3.0394     34.801
 162.50     3.0529     37.401
 162.50     3.0657     39.301
 162.50     3.0800     40.201
 162.50     3.0922     38.001
 162.50     3.1067     42.201     1.7000
 162.50     3.1320     32.801     2.1000
 162.50     3.1449     35.001
 162.50     3.1584     34.101
 162.50     3.1722     33.301
 162.50     3.1859     34.002
 162.50     3.1984     35.002
 162.50     3.2122     35.302
 162.50     3.2243     33.502
ENDDATA            175
ENDSUBENT          192
SUBENT        F0796005   20070111   20070320   20070315       F026
BIB                  5         12
REACTION   (6-C-12(D,P)6-C-13,,DA,,REL)
DETECTOR   (SIBAR)The protons were detected with two silicon
           surface barrier counters,with a depletion layer of
           about 500 mu and 4.5 mm diameter sensitive area. They
           were mounted at 7.5 cm distance from the target.
SAMPLE     A self-supporting target of natural carbon was used.The
           target thickness was determined to be about 10 mu-g/cm2
           by comparing the energy loss of alpha particles in the
           target with that in the equivalent amount of air.
ERR-ANALYS (EN-ERR-DIG)Digitizing error
           (DATA-ERR)Error from the graphic bars
STATUS     (CURVE)Fig.8
ENDBIB              12
COMMON               2          3
EN-ERR-DIG ERR-DIG
MEV        ARB-UNITS
 0.007      0.054
ENDCOMMON            3
DATA                 4        121
ANG-CM     EN         DATA-CM    DATA-ERR
ADEG       MEV        ARB-UNITS  ARB-UNITS
 21.500     2.7518     107.81
 21.500     2.7645     109.00
 21.500     2.7774     110.49
 21.500     2.7892     111.38
 21.500     2.8021     114.95
 21.500     2.8154     113.17
 21.500     2.8290     110.59
 21.500     2.8419     111.88
 21.500     2.8552     114.46
 21.500     2.8678     114.26     1.1883
 21.500     2.8772     118.13
 21.500     2.8906     118.23
 21.500     2.9098     121.20
 21.500     2.9203     123.18
 21.500     2.9354     133.19
 21.500     2.9460     136.46     1.4854
 21.500     2.9643     143.69
 21.500     2.9787     151.91
 21.500     2.9908     158.35     1.1884
 21.500     3.0025     154.39    0.99028
 21.500     3.0187     141.42
 21.500     3.0338     125.78
 21.500     3.0461     120.23
 21.500     3.0599     117.07
 21.500     3.0730     114.10
 21.500     3.0875     108.06
 21.500     3.0987     98.654
 21.500     3.1130     96.379
 21.500     3.1247     94.994
 21.500     3.1378     97.868
 21.500     3.1504     94.405
 74.200     2.7520     104.34
 74.200     2.7643     104.05
 74.200     2.7778     102.66
 74.200     2.7892     102.27
 74.200     2.8025     102.96
 74.200     2.8156     102.17
 74.200     2.8290     101.18
 74.200     2.8423     101.29
 74.200     2.8554     100.89
 74.200     2.8675     99.805
 74.200     2.8793     101.89
 74.200     2.8932     99.512
 74.200     2.9063     101.89
 74.200     2.9227     102.59
 74.200     2.9334     101.50
 74.200     2.9469     100.91
 74.200     2.9601     99.622
 74.200     2.9766     96.158
 74.200     2.9871     89.822
 74.200     3.0009     83.487
 74.200     3.0140     77.052
 74.200     3.0291     78.144
 74.200     3.0429     81.414
 74.200     3.0590     83.892
 74.200     3.0706     85.479
 74.200     3.0841     84.194
 74.200     3.1013     82.117
 74.200     3.1128     81.326
 74.200     3.1237     78.655
 74.200     3.1364     78.161
 74.200     3.1495     77.867
 109.30     2.7627     61.661
 109.30     2.7760     61.366
 109.30     2.7875     62.755
 109.30     2.8008     63.450
 109.30     2.8156     63.552
 109.30     2.8273     61.078
 109.30     2.8413     60.981
 109.30     2.8532     61.379
 109.30     2.8647     60.886
 109.30     2.8792     60.789
 109.30     2.8907     58.909
 109.30     2.9057     60.199
 109.30     2.9182     62.182
 109.30     2.9299     58.817
 109.30     2.9431     60.899
 109.30     2.9724     68.826
 109.30     2.9865     67.838
 109.30     3.0013     65.662
 109.30     3.0142     62.594
 109.30     3.0287     56.555
 109.30     3.0419     51.012
 109.30     3.0528     46.855
 109.30     3.0730     44.283
 109.30     3.0849     47.454
 109.30     3.0952     49.436
 109.30     3.1122     47.657
 109.30     3.1237     46.470
 109.30     3.1364     45.581
 109.30     3.1485     44.494
 161.50     2.7515     55.520
 161.50     2.7659     47.699
 161.50     2.7764     41.264
 161.50     2.7885     38.889
 161.50     2.8016     37.208
 161.50     2.8154     32.853
 161.50     2.8285     32.459
 161.50     2.8416     33.253
 161.50     2.8544     31.076
 161.50     2.8681     29.791
 161.50     2.8826     28.902
 161.50     2.8919     27.914
 161.50     2.9083     27.421
 161.50     2.9230     20.987
 161.50     2.9336     26.435
 161.50     2.9489     26.438
 161.50     2.9624     21.785
 161.50     2.9760     17.628
 161.50     2.9861     12.382
 161.50     3.0024     14.365
 161.50     3.0146     19.120
 161.50     3.0283     23.975
 161.50     3.0428     26.552
 161.50     3.0584     31.011
 161.50     3.0713     33.687
 161.50     3.0847     37.353
 161.50     3.0879     36.264
 161.50     3.1006     27.354
 161.50     3.1119     26.167
 161.50     3.1224     25.971
ENDDATA            123
ENDSUBENT          144
ENDENTRY             5
