ENTRY            F0643   20040715   20050610                  F020
SUBENT        F0643001   20040715   20050610                  F020
BIB                 12         27
TITLE      High resolution study of the 24Mg(a,g0)28Si capture
           reaction.
AUTHOR     (D.Bohle,K.Glasner,L.Ricken,E.Kuhlmann)
INSTITUTE  (2GERBOC)
REFERENCE  (J,ZP/A,318,339,1984)
FACILITY   (DYNAM)
SAMPLE     Thin, highly enriched (99.94%) 24MgO targets on
           0.1 Ta backings. The target thickness was (120+-13)
           mu-g/cm2, corresponding to an effictive thickness of 80
            (60) keV for alpha-particles of 6(9) MeV, respectively
METHOD     (GSPEC)
DETECTOR   (NAICR) Six NaI(Tl) crystals ranging in size from 11.4
           cm x 12.7 cm to 7.6 cm x 7.6 cm were kept fixed at 48,
           60,69, 90, 120 and 135 degrees.
MONITOR    (12-MG-24(P,G)13-AL-25,,DA) Target thickness was
           determined at proton  energy of 223 keV.
           (5-B-11(P,G)6-C-12,,DA) Relative detector efficience
           was determined at proton energy of 163 keV.
           (11-NA-23(P,G)12-MG-24,,DA)Relative detector efficience
           was determined at proton energy of 309 keV.
MONIT-REF  (,F.Ajzenberg-Selove,J,NP/A,336,1,1980) For the 2-nd
           and 3-rd monitors.
            (,P.Endt+,J,NP/A,310,1,1978) For the 2-nd and 3-rd
           monitors.
ERR-ANALYS (ERR-DIG)    Digitizing error
           (DATA-ERR)  Error from the graphic bars.
HISTORY    (20031112C)
ENDBIB              27
COMMON               1          3
EN-RSL
PER-CENT
 10.
ENDCOMMON            3
ENDSUBENT           34
SUBENT        F0643002   20040715   20050610                  F020
BIB                  3          3
REACTION   (12-MG-24(A,G)14-SI-28,,DA,,REL)
ERR-ANALYS (EN-ERR-DIG) Digitizing error
STATUS     (CURVE)Fig.2
ENDBIB               3
COMMON               2          3
EN-ERR-DIG ERR-DIG
MEV        ARB-UNITS
 0.006      1.3
ENDCOMMON            3
DATA                 4        124
ANG        EN         DATA       DATA-ERR
ADEG       MEV        ARB-UNITS  ARB-UNITS
 90.000     4.1784     64.102     28.171
 90.000     4.2857     31.898     23.998
 90.000     4.4747     72.823     27.128
 90.000     4.5906     167.90     30.253
 90.000     4.6959     30.331     23.998
 90.000     5.2916     65.512     29.210
 90.000     5.3836     147.00     31.296
 90.000     5.4917     52.203     34.421
 90.000     5.5886     25.202     18.778
 90.000     5.6951     51.418     27.123
 90.000     5.9026     245.72     32.344
 90.000     6.0098     465.98     35.469
 90.000     6.1037     155.21     30.257
 90.000     6.3122     285.88     28.167
 90.000     6.3582     194.14     31.296
 90.000     6.3981     50.222     30.253
 90.000     6.4431     37.760     26.080
 90.000     6.4841     63.892     26.085
 90.000     6.5344     167.24     26.085
 90.000     6.5583     186.04     17.735
 90.000     6.6089     263.31     30.257
 90.000     6.6498     297.78     27.123
 90.000     6.7025     219.61     28.167
 90.000     6.7492     84.049     28.158
 90.000     6.8015     39.257     25.037
 90.000     6.8476     195.80     29.214
 90.000     6.8715     216.69     33.383
 90.000     6.9152     542.24     29.214
 90.000     6.9494     560.01     33.387
 90.000     6.9616     426.50     34.426
 90.000     7.0124     246.08     32.339
 90.000     7.0460     58.344     30.257
 90.000     7.0941     68.838     29.219
 90.000     7.2707     6.4678     19.821
 90.000     7.4740     6.7253     19.812
 90.000     7.5274     134.07     22.959
 90.000     7.5833     79.890     25.037
 90.000     7.7077     53.966     27.132
 90.000     7.7524     66.542     28.167
 90.000     7.8174     100.01     30.257
 90.000     7.8733     42.701     25.037
 90.000     7.9354     37.563     28.167
 90.000     8.0041     59.558     28.167
 90.000     8.0661     59.636     34.426
 90.000     8.1379     101.46     33.383
 90.000     8.2090     195.44     29.201
 90.000     8.2608     184.03     30.257
 90.000     8.3429     232.12     30.262
 90.000     8.3857     377.18     32.344
 90.000     8.4427     237.46     33.383
 90.000     8.5219     496.28     38.603
 90.000     8.5788     369.08     32.335
 90.000     8.6325     224.14     34.426
 90.000     8.6746     173.08     30.253
 90.000     8.7309     337.98     31.305
 90.000     8.7887     395.43     32.344
 90.000     8.8475     374.64     39.629
 90.000     8.8991     131.63     29.214
 90.000     8.9701     233.96     32.353
 90.000     8.9969     292.41     32.348
 90.000     9.0636     451.07     37.564
 130.00     4.1888     51.448     25.146
 130.00     4.3004     316.86     22.024
 130.00     4.3978     288.76     24.106
 130.00     4.4883     111.82     25.154
 130.00     4.5953     119.38     26.202
 130.00     4.6994     104.92     27.257
 130.00     5.2907     100.92     22.010
 130.00     5.4084     246.85     28.305
 130.00     5.4921     62.561     24.113
 130.00     5.6168     510.37     33.546
 130.00     5.6959     71.372     23.065
 130.00     5.9073     204.93     27.257
 130.00     6.0123     299.48     33.531
 130.00     6.0979     32.385     22.010
 130.00     6.3174     261.33     24.113
 130.00     6.3499     201.66     20.954
 130.00     6.3972     97.995     21.995
 130.00     6.4438     26.820     13.625
 130.00     6.4981     69.907     26.209
 130.00     6.5174     133.88     27.257
 130.00     6.5477     172.73     28.298
 130.00     6.6179     427.57     33.538
 130.00     6.6545     491.58     31.442
 130.00     6.7178     292.57     27.257
 130.00     6.7602     100.85     24.120
 130.00     6.7964     30.702     15.728
 130.00     6.8394     266.62     24.098
 130.00     6.8542     226.82     23.065
 130.00     6.9195     546.64     30.394
 130.00     6.9423     304.57     33.538
 130.00     6.9672     425.15     31.442
 130.00     7.0045     155.86     23.058
 130.00     7.0474     92.018     22.010
 130.00     7.0933     50.190     16.769
 130.00     7.2699     36.934     17.824
 130.00     7.4736     53.082     24.106
 130.00     7.5352     233.49     26.202
 130.00     7.5942     224.18     27.257
 130.00     7.6291     55.503     26.195
 130.00     7.7080     83.968     26.209
 130.00     7.7497     76.718     28.291
 130.00     7.8293     73.740     23.058
 130.00     7.8711     59.154     31.435
 130.00     7.9399     75.020     27.257
 130.00     8.0091     70.972     20.961
 130.00     8.0647     58.511     24.106
 130.00     8.1431     107.94     29.353
 130.00     8.1930     196.08     31.457
 130.00     8.2430     127.01     27.250
 130.00     8.3193     115.64     31.449
 130.00     8.3704     149.29     29.353
 130.00     8.4210     205.99     31.457
 130.00     8.5031     242.85     32.505
 130.00     8.5711     294.35     27.264
 130.00     8.6320     201.19     28.305
 130.00     8.6809     27.309     14.680
 130.00     8.7373     132.24     24.106
 130.00     8.7922     151.22     20.961
 130.00     8.8479     131.42     24.106
 130.00     8.9065     140.98     25.161
 130.00     8.9645     174.64     25.161
 130.00     9.0192     203.05     28.291
 130.00     9.0616     163.31     24.106
ENDDATA            126
ENDSUBENT          138
SUBENT        F0643003   20040715   20050610                  F020
BIB                  3          3
REACTION   (12-MG-24(A,G)14-SI-28,,DA,,REL)
ERR-ANALYS (ANG-ERR-D)  Digitizing error
STATUS     (CURVE)Fig.3
ENDBIB               3
COMMON               2          3
ANG-ERR-D  ERR-DIG
ADEG       ARB-UNITS
 0.4        0.01
ENDCOMMON            3
DATA                 4         34
EN         ANG-CM     DATA-CM    DATA-ERR
MEV        ADEG       ARB-UNITS  ARB-UNITS
 4.4000    0.74241    0.26349    0.11769
 4.4000     22.414     1.5122    0.10088
 4.4000     44.610     2.1946    0.11775
 4.4000     66.111     1.4421    0.11762
 4.4000     90.303    0.22479    0.10088
 4.4000     111.97     1.1818    0.11769
 4.4000     139.44     2.0614    0.16819
 4.6000     45.190    0.87069    0.20777
 4.6000     66.738     1.7114    0.24720
 4.6000     91.111     1.8392    0.26405
 4.6000     109.52     1.1907    0.30899
 4.6000     139.29    0.82504    0.25282
 6.0000     45.857     1.2044    0.19019
 6.0000     54.694     1.6086    0.23492
 6.0000     67.035     2.3321    0.24051
 6.0000     90.090     2.5933    0.20137
 6.0000     109.08     2.3448    0.19013
 6.0000     137.71     1.2032    0.15093
 6.5200     49.498     1.8482    0.28747
 6.5200     61.829     2.0368    0.34375
 6.5200     70.439     2.2416    0.41151
 6.5200     91.585     2.3644    0.37192
 6.5200     121.01     1.7958    0.39454
 6.5200     136.75     1.9344    0.40588
 7.5800     49.205     1.3657    0.19721
 7.5800     60.563    0.41078    0.17460
 7.5800     68.412    0.36758    0.18031
 7.5800     90.584    0.64891    0.23647
 7.5800     120.73     1.1349    0.30414
 7.5800     135.59     2.0173    0.33801
 8.6000     49.354    0.90449    0.23577
 8.6000     90.262     1.8677    0.25837
 8.6000     120.19     1.8123    0.34818
 8.6000     135.95     1.4058    0.33134
ENDDATA             36
ENDSUBENT           48
ENDENTRY             3
