ENTRY            F0688   20131016   20140701   20140626       F053
SUBENT        F0688001   20131016   20140701   20140626       F053
BIB                  9         16
TITLE      Excitation functions of elastic and inelastic
           scattering of alpha-particles on the 28Si nucleus.
AUTHOR     (S.E.Belov,M.Brenner,D.D.Kossajn,N.R.Fletcher,
           S.Kh.Majer,H.A.Liendo,T.Kurtjukjan-Nieto)
INSTITUTE  (4RUSSUL,2SF ABA,1USAFSU,3VENUSB)
           (3VENVEN)Karabobo University, Venezuela
REFERENCE  (J,IZV,64,1019,2000)
           (J,BAS,64,818,2000)   English translation
FACILITY   (LINAC,1USAFSU)
DETECTOR   (PS)The angle range was 150-173.4 degr.in lab.system.
SAMPLE     Targets of natural Si with the thicknesses of 27.6 and
           8.7 mu-g/cm2 were used.
ERR-ANALYS (ERR-DIG)Data digitizing error
HISTORY    (20040430C)
           (20131016A)In sub 001 INSTITUTE code was changed,
           DETECTOR was corrected.
ENDBIB              16
COMMON               1          3
EN-RSL
KEV
        36.
ENDCOMMON            3
ENDSUBENT           23
SUBENT        F0688002   20040519              20050926       0000
BIB                  3          3
REACTION   (14-SI-28(A,EL)14-SI-28,,DA)
ERR-ANALYS (EN-ERR-DIG)Digitizing error
STATUS     (CURVE)Fig.1(a)
ENDBIB               3
COMMON               3          3
ANG        EN-ERR-DIG ERR-DIG
ADEG       MEV        MB/SR
  173.4     0.01       0.25
ENDCOMMON            3
DATA                 2        227
EN         DATA
MEV        MB/SR
 14.301     148.20
 14.305     158.06
 14.310     120.08
 14.315     168.89
 14.320     182.20
 14.325     170.36
 14.331     175.28
 14.336     96.847
 14.341     33.706
 14.347     9.5281
 14.351     11.493
 14.356     27.760
 14.361     29.724
 14.367     26.262
 14.371     35.625
 14.377     48.931
 14.381     62.239
 14.386     63.710
 14.391     48.411
 14.397     43.469
 14.401     43.955
 14.406     21.257
 14.411     27.660
 14.416     96.701
 14.421     59.208
 14.427     68.076
 14.431     71.027
 14.436     69.539
 14.441     87.285
 14.446     107.99
 14.451     106.01
 14.456     73.448
 14.461     44.339
 14.465     31.014
 14.471     28.045
 14.476     27.543
 14.481     18.656
 14.486     47.253
 14.491     91.139
 14.496     143.41
 14.501     169.54
 14.506     181.86
 14.512     198.62
 14.516     202.56
 14.521     195.15
 14.526     224.74
 14.531     169.49
 14.536     115.23
 14.541     235.07
 14.545     359.35
 14.550     427.40
 14.555     455.51
 14.560     472.76
 14.565     402.72
 14.570     325.77
 14.575     304.55
 14.580     255.22
 14.585     176.79
 14.591     128.44
 14.596     115.61
 14.601     101.79
 14.606     73.669
 14.611     51.957
 14.616     26.301
 14.621     14.948
 14.626     21.351
 14.631     83.486
 14.636     127.87
 14.641     100.24
 14.646     52.880
 14.651     25.251
 14.656     19.323
 14.661     26.712
 14.666     79.970
 14.670     157.89
 14.676     170.70
 14.681     131.73
 14.687     86.838
 14.691     39.481
 14.698     15.302
 14.702     26.639
 14.707     36.000
 14.711     41.418
 14.717     73.467
 14.721     93.187
 14.727     82.327
 14.732     72.453
 14.737     53.701
 14.742     50.733
 14.747     52.203
 14.752     41.837
 14.757     28.019
 14.762     22.584
 14.767     61.046
 14.772     112.33
 14.777     71.878
 14.782     43.263
 14.786     25.992
 14.791     20.065
 14.797     19.067
 14.802     21.525
 14.807     25.461
 14.812     33.344
 14.817     39.747
 14.821     39.245
 14.827     42.687
 14.831     47.118
 14.837     44.149
 14.841     23.426
 14.847     14.044
 14.851     13.051
 14.856     9.5882
 14.862     5.1395
 14.867     3.1568
 14.872     2.6546
 14.878     1.6584
 14.882     1.1571
 14.886     1.6423
 14.892     13.963
 14.897     56.370
 14.902     95.325
 14.907     55.366
 14.912     22.804
 14.916     35.126
 14.921     72.601
 14.926     103.17
 14.932     101.68
 14.937     71.587
 14.942     66.153
 14.947     95.244
 14.952     97.701
 14.956     96.212
 14.962     102.12
 14.967     131.70
 14.972     135.15
 14.977     115.41
 14.982     95.672
 14.987     196.77
 14.992     300.34
 14.997     324.00
 15.002     282.57
 15.006     214.99
 15.012     156.78
 15.017     120.27
 15.022     88.202
 15.027     62.546
 15.032     49.712
 15.036     39.347
 15.042     38.844
 15.047     47.219
 15.052     52.635
 15.058     54.598
 15.063     49.164
 15.067     37.812
 15.072     30.897
 15.077     24.477
 15.082     18.056
 15.087     10.649
 15.092     5.7074
 15.098     5.6967
 15.101     12.102
 15.103     17.525
 15.107     20.477
 15.112     18.495
 15.117     12.568
 15.122     18.971
 15.127     35.237
 15.132     51.011
 15.137     66.290
 15.142     60.363
 15.147     49.996
 15.152     33.219
 15.157     22.359
 15.161     12.980
 15.166     11.985
 15.171     16.414
 15.176     26.763
 15.181     43.523
 15.187     68.667
 15.191     91.346
 15.197     104.16
 15.202     106.12
 15.207     104.14
 15.211     91.803
 15.217     83.409
 15.221     71.564
 15.226     67.608
 15.231     63.160
 15.236     57.233
 15.241     49.826
 15.246     42.911
 15.251     58.192
 15.257     85.802
 15.262     109.47
 15.267     122.77
 15.272     121.29
 15.277     108.45
 15.281     80.332
 15.286     63.060
 15.291     62.558
 15.297     58.602
 15.301     34.920
 15.306     10.251
 15.311     3.8299
 15.316     7.7667
 15.321     13.183
 15.326     20.572
 15.331     32.894
 15.336     55.573
 15.341     82.689
 15.345     85.641
 15.351     111.77
 15.356     157.14
 15.361     168.47
 15.366     193.62
 15.371     219.75
 15.376     231.58
 15.381     230.09
 15.387     231.56
 15.391     202.45
 15.396     147.20
 15.401     116.12
 15.406     84.051
 15.411     47.543
 15.416     51.974
 15.421     88.462
 15.426     102.26
ENDDATA            229
ENDSUBENT          241
SUBENT        F0688003   20040519              20050926       0000
BIB                  3          3
REACTION   (14-SI-28(A,INL)14-SI-28,PAR,DA)
ERR-ANALYS (EN-ERR-DIG)Digitizing error
STATUS     (CURVE)Fig.2
ENDBIB               3
COMMON               3          3
ANG        EN-ERR-DIG ERR-DIG
ADEG       MEV        MB/SR
  173.4     0.01       0.45
ENDCOMMON            3
DATA                 3        451
E-LVL      EN         DATA
MEV        MEV        MB/SR
 1.7790     14.303     50.206
 1.7790     14.311     66.249
 1.7790     14.315     46.817
 1.7790     14.321     77.686
 1.7790     14.326     81.501
 1.7790     14.331     66.279
 1.7790     14.335     103.76
 1.7790     14.341     113.99
 1.7790     14.346     96.961
 1.7790     14.351     76.930
 1.7790     14.356     67.318
 1.7790     14.361     63.719
 1.7790     14.366     61.923
 1.7790     14.371     53.915
 1.7790     14.376     52.919
 1.7790     14.381     60.743
 1.7790     14.387     62.956
 1.7790     14.392     62.562
 1.7790     14.396     54.153
 1.7790     14.401     45.744
 1.7790     14.406     31.122
 1.7790     14.411     14.497
 1.7790     14.416     9.8943
 1.7790     14.421     11.706
 1.7790     14.426     5.3003
 1.7790     14.431     5.5090
 1.7790     14.436     4.7142
 1.7790     14.440     8.9292
 1.7790     14.446     21.763
 1.7790     14.451     34.796
 1.7790     14.456     32.600
 1.7790     14.461     17.978
 1.7790     14.466     11.372
 1.7790     14.471     16.590
 1.7790     14.476     32.029
 1.7790     14.481     48.068
 1.7790     14.486     50.681
 1.7790     14.491     29.246
 1.7790     14.496     13.421
 1.7790     14.501     9.4210
 1.7790     14.505     5.6196
 1.7790     14.511     4.8262
 1.7790     14.517     7.0396
 1.7790     14.521     15.464
 1.7790     14.526     26.292
 1.7790     14.532     35.318
 1.7790     14.537     35.727
 1.7790     14.541     23.909
 1.7790     14.546     22.514
 1.7790     14.551     31.540
 1.7790     14.556     37.359
 1.7790     14.562     60.413
 1.7790     14.567     73.846
 1.7790     14.571     60.427
 1.7790     14.577     53.622
 1.7790     14.582     70.863
 1.7790     14.587     86.702
 1.7790     14.592     81.299
 1.7790     14.596     63.070
 1.7790     14.602     61.074
 1.7790     14.607     62.685
 1.7790     14.611     67.501
 1.7790     14.617     72.318
 1.7790     14.621     60.302
 1.7790     14.627     47.484
 1.7790     14.631     37.270
 1.7790     14.636     37.278
 1.7790     14.641     36.884
 1.7790     14.647     37.895
 1.7790     14.651     41.309
 1.7790     14.656     28.691
 1.7790     14.660     26.092
 1.7790     14.665     31.110
 1.7790     14.671     39.935
 1.7790     14.676     37.940
 1.7790     14.681     21.114
 1.7790     14.686     12.103
 1.7790     14.691     12.311
 1.7790     14.696     14.523
 1.7790     14.701     11.725
 1.7790     14.706     14.538
 1.7790     14.711     23.162
 1.7790     14.715     35.193
 1.7790     14.721     43.016
 1.7790     14.726     38.816
 1.7790     14.731     34.015
 1.7790     14.736     16.586
 1.7790     14.740     7.3751
 1.7790     14.745     6.1795
 1.7790     14.751     18.613
 1.7790     14.756     72.327
 1.7790     14.762     113.62
 1.7790     14.767     122.24
 1.7790     14.772     112.43
 1.7790     14.776     80.373
 1.7790     14.781     43.908
 1.7790     14.786     34.096
 1.7790     14.791     31.298
 1.7790     14.796     32.708
 1.7790     14.801     30.511
 1.7790     14.806     27.713
 1.7790     14.811     28.322
 1.7790     14.815     33.940
 1.7790     14.821     41.965
 1.7790     14.827     38.766
 1.7790     14.831     31.158
 1.7790     14.836     27.157
 1.7790     14.842     33.579
 1.7790     14.847     75.670
 1.7790     14.853     91.510
 1.7790     14.857     83.902
 1.7790     14.863     71.284
 1.7790     14.867     57.664
 1.7790     14.873     75.708
 1.7790     14.878     86.136
 1.7790     14.883     84.741
 1.7790     14.888     81.943
 1.7790     14.892     57.701
 1.7790     14.897     35.264
 1.7790     14.902     30.262
 1.7790     14.907     23.456
 1.7790     14.911     25.867
 1.7790     14.917     33.491
 1.7790     14.921     31.293
 1.7790     14.927     38.315
 1.7790     14.932     41.328
 1.7790     14.937     36.526
 1.7790     14.941     25.311
 1.7790     14.946     12.494
 1.7790     14.951     20.115
 1.7790     14.956     37.959
 1.7790     14.962     54.199
 1.7790     14.967     60.219
 1.7790     14.972     51.809
 1.7790     14.977     46.406
 1.7790     14.982     52.827
 1.7790     14.987     79.487
 1.7790     14.993     99.936
 1.7790     14.998     103.75
 1.7790     15.003     103.76
 1.7790     15.008     102.36
 1.7790     15.013     97.361
 1.7790     15.018     97.168
 1.7790     15.022     94.169
 1.7790     15.028     80.951
 1.7790     15.032     48.493
 1.7790     15.037     33.471
 1.7790     15.041     25.862
 1.7790     15.047     30.279
 1.7790     15.052     42.711
 1.7790     15.057     56.145
 1.7790     15.061     55.350
 1.7790     15.067     54.958
 1.7790     15.072     66.388
 1.7790     15.077     86.636
 1.7790     15.082     114.10
 1.7790     15.088     138.15
 1.7790     15.092     131.75
 1.7790     15.097     125.94
 1.7790     15.102     123.55
 1.7790     15.107     116.14
 1.7790     15.112     90.496
 1.7790     15.116     79.480
 1.7790     15.122     77.685
 1.7790     15.127     77.693
 1.7790     15.132     81.708
 1.7790     15.137     103.16
 1.7790     15.143     129.62
 1.7790     15.148     145.86
 1.7790     15.153     149.67
 1.7790     15.158     155.29
 1.7790     15.164     169.13
 1.7790     15.169     177.15
 1.7790     15.175     175.56
 1.7790     15.178     154.32
 1.7790     15.183     125.67
 1.7790     15.188     94.617
 1.7790     15.193     80.596
 1.7790     15.197     65.573
 1.7790     15.203     68.788
 1.7790     15.207     57.572
 1.7790     15.212     54.574
 1.7790     15.217     51.576
 1.7790     15.222     56.995
 1.7790     15.227     46.179
 1.7790     15.232     45.386
 1.7790     15.236     32.367
 1.7790     15.241     23.557
 1.7790     15.245     15.547
 1.7790     15.251     15.356
 1.7790     15.256     17.366
 1.7790     15.261     15.971
 1.7790     15.266     12.371
 1.7790     15.271     5.9658
 1.7790     15.276     4.7709
 1.7790     15.281     5.7804
 1.7790     15.285     4.5849
 1.7790     15.291     3.5912
 1.7790     15.295     2.9968
 1.7790     15.300     5.0082
 1.7790     15.306     11.028
 1.7790     15.311     13.841
 1.7790     15.316     15.652
 1.7790     15.321     20.069
 1.7790     15.327     22.482
 1.7790     15.331     22.689
 1.7790     15.336     23.499
 1.7790     15.341     26.311
 1.7790     15.346     17.501
 1.7790     15.350     9.8921
 1.7790     15.355     8.8984
 1.7790     15.360     13.915
 1.7790     15.366     36.368
 1.7790     15.371     47.197
 1.7790     15.376     53.217
 1.7790     15.381     49.015
 1.7790     15.386     39.805
 1.7790     15.391     41.816
 1.7790     15.396     60.661
 1.7790     15.401     60.067
 1.7790     15.406     43.843
 1.7790     15.410     22.607
 1.7790     15.415     10.590
 1.7790     15.420     5.9888
 1.7790     15.430     8.6089
 4.6170     14.302     6.1650
 4.6170     14.306     2.4537
 4.6170     14.311     1.7538
 4.6170     14.317     3.3624
 4.6170     14.322     7.2790
 4.6170     14.327     7.0809
 4.6170     14.332     3.7716
 4.6170     14.337     3.7742
 4.6170     14.341     5.2820
 4.6170     14.347     7.8944
 4.6170     14.353     12.213
 4.6170     14.358     14.724
 4.6170     14.363     20.347
 4.6170     14.368     24.364
 4.6170     14.372     17.442
 4.6170     14.378     13.731
 4.6170     14.382     14.035
 4.6170     14.388     18.353
 4.6170     14.393     30.198
 4.6170     14.398    0.92351E-01
 4.6170     14.402    0.94687E-01
 4.6170     14.408     25.790
 4.6170     14.413     22.882
 4.6170     14.417     15.157
 4.6170     14.422     9.7396
 4.6170     14.427     6.0289
 4.6170     14.432     4.8269
 4.6170     14.437     5.0305
 4.6170     14.442     3.5277
 4.6170     14.447     2.2253
 4.6170     14.452     1.2243
 4.6170     14.456     1.0259
 4.6170     14.462     2.2334
 4.6170     14.467     1.7339
 4.6170     14.472     1.6361
 4.6170     14.477     7.3592
 4.6170     14.482     11.778
 4.6170     14.487     10.275
 4.6170     14.492     6.1627
 4.6170     14.496     3.1543
 4.6170     14.502     3.0570
 4.6170     14.507     2.5578
 4.6170     14.512     3.4636
 4.6170     14.517     4.4698
 4.6170     14.522     6.7807
 4.6170     14.527     9.2923
 4.6170     14.533     16.320
 4.6170     14.538     22.746
 4.6170     14.544     31.380
 4.6170     14.548     26.464
 4.6170     14.553     25.062
 4.6170     14.558     24.262
 4.6170     14.562     18.845
 4.6170     14.567     9.2124
 4.6170     14.572     11.222
 4.6170     14.577     18.049
 4.6170     14.583     26.483
 4.6170     14.587     25.883
 4.6170     14.593     29.599
 4.6170     14.598     32.211
 4.6170     14.603     30.708
 4.6170     14.608     30.510
 4.6170     14.613     27.903
 4.6170     14.617     19.876
 4.6170     14.622     13.757
 4.6170     14.626     7.1355
 4.6170     14.631     5.7330
 4.6170     14.636     9.2480
 4.6170     14.641     9.6522
 4.6170     14.646     5.6405
 4.6170     14.651     7.2486
 4.6170     14.656     9.3587
 4.6170     14.660     9.3608
 4.6170     14.666     9.4645
 4.6170     14.671     9.9689
 4.6170     14.677     13.585
 4.6170     14.681     10.275
 4.6170     14.686     7.9692
 4.6170     14.690     4.4590
 4.6170     14.696     7.1716
 4.6170     14.701     18.114
 4.6170     14.707     27.751
 4.6170     14.713     41.303
 4.6170     14.720     83.257
 4.6170     14.725     81.553
 4.6170     14.729     45.927
 4.6170     14.732     23.750
 4.6170     14.736     15.924
 4.6170     14.742     14.923
 4.6170     14.746     14.323
 4.6170     14.752     15.631
 4.6170     14.757     15.533
 4.6170     14.761     7.2050
 4.6170     14.766     5.3008
 4.6170     14.771     4.9020
 4.6170     14.776     4.8042
 4.6170     14.780     6.1112
 4.6170     14.786     7.1176
 4.6170     14.790     9.0268
 4.6170     14.796     11.438
 4.6170     14.801     13.548
 4.6170     14.806     12.246
 4.6170     14.811     9.9407
 4.6170     14.815     4.1222
 4.6170     14.821     7.7380
 4.6170     14.826     3.6258
 4.6170     14.832     14.267
 4.6170     14.837     19.890
 4.6170     14.842     19.391
 4.6170     14.847     17.085
 4.6170     14.851     15.783
 4.6170     14.856     12.473
 4.6170     14.861     9.5652
 4.6170     14.866     14.084
 4.6170     14.871     13.384
 4.6170     14.876    0.46294E-01
 4.6170     14.881     3.0520
 4.6170     14.886     2.5528
 4.6170     14.891     4.6632
 4.6170     14.896     7.0741
 4.6170     14.902     11.092
 4.6170     14.907     16.915
 4.6170     14.911     13.606
 4.6170     14.916     7.8874
 4.6170     14.920     4.0761
 4.6170     14.925     2.7740
 4.6170     14.931     2.0743
 4.6170     14.935     2.6788
 4.6170     14.941     7.0975
 4.6170     14.946     10.412
 4.6170     14.951     10.314
 4.6170     14.956     10.317
 4.6170     14.961     11.825
 4.6170     14.967     17.849
 4.6170     14.971     22.468
 4.6170     14.976     21.668
 4.6170     14.981     21.570
 4.6170     14.987     20.369
 4.6170     14.991     11.740
 4.6170     14.995     7.9286
 4.6170     15.001     5.7236
 4.6170     15.007     3.4182
 4.6170     15.011     3.8217
 4.6170     15.016     2.6200
 4.6170     15.021     5.2322
 4.6170     15.026     7.0412
 4.6170     15.031     7.6457
 4.6170     15.035     7.7484
 4.6170     15.041     6.7479
 4.6170     15.045     4.2410
 4.6170     15.051     1.8353
 4.6170     15.055    0.63330
 4.6170     15.060     1.3384
 4.6170     15.065     2.3446
 4.6170     15.070     3.5515
 4.6170     15.076     5.9630
 4.6170     15.081     10.381
 4.6170     15.086     15.201
 4.6170     15.091     11.089
 4.6170     15.095     7.8799
 4.6170     15.100     6.7783
 4.6170     15.105     10.394
 4.6170     15.110     11.601
 4.6170     15.115     9.6968
 4.6170     15.120     5.1829
 4.6170     15.125     1.3716
 4.6170     15.130     1.6753
 4.6170     15.135    0.87528
 4.6170     15.140     1.0783
 4.6170     15.145     4.8948
 4.6170     15.150     9.7147
 4.6170     15.156     11.625
 4.6170     15.161     11.025
 4.6170     15.165    0.71516E-01
 4.6170     15.170    0.71256E-01
 4.6170     15.176     13.341
 4.6170     15.181     16.756
 4.6170     15.186     13.848
 4.6170     15.190     7.6279
 4.6170     15.195     5.7237
 4.6170     15.200     5.5253
 4.6170     15.205     3.0189
 4.6170     15.210     1.1147
 4.6170     15.215     1.8200
 4.6170     15.220     1.6217
 4.6170     15.225     1.2228
 4.6170     15.230     1.9279
 4.6170     15.235     3.4362
 4.6170     15.240     8.0553
 4.6170     15.246     11.270
 4.6170     15.251     14.684
 4.6170     15.256     19.505
 4.6170     15.261     23.722
 4.6170     15.267     29.847
 4.6170     15.272     34.767
 4.6170     15.278     37.681
 4.6170     15.282     33.568
 4.6170     15.286     24.438
 4.6170     15.290     16.511
 4.6170     15.295     9.2879
 4.6170     15.299     3.4691
 4.6170     15.303    0.96222
 4.6170     15.309    0.16246
 4.6170     15.314    0.64436E-01
 4.6170     15.319     2.0745
 4.6170     15.325     4.9878
 4.6170     15.330     7.8004
 4.6170     15.334     8.7060
 4.6170     15.340     14.731
 4.6170     15.346     22.461
 4.6170     15.351     24.070
 4.6170     15.355     16.745
 4.6170     15.359     11.228
 4.6170     15.364     9.9259
 4.6170     15.369     6.4156
 4.6170     15.373     3.6079
 4.6170     15.378     2.9080
 4.6170     15.383     2.5091
 4.6170     15.389     2.1105
 4.6170     15.392    0.48207E-02
 4.6170     15.399    0.10881
 4.6170     15.404    0.61269
 4.6170     15.408     2.4217
 4.6170     15.413     6.9405
 4.6170     15.420     13.969
 4.6170     15.425     20.796
ENDDATA            453
ENDSUBENT          465
SUBENT        F0688004   20040519              20050926       0000
BIB                  3          4
REACTION   (14-SI-28(A,EL)14-SI-28,,DA)
ERR-ANALYS (ANG-ERR-D)Digitizing error
           (DATA-ERR1) Error from the graphic bars
STATUS     (CURVE)Fig.3
ENDBIB               4
COMMON               2          3
ANG-ERR-D  ERR-DIG
ADEG       MB/SR
 0.1        0.2
ENDCOMMON            3
DATA                 4         36
EN         ANG-CM     DATA-CM    DATA-ERR1
MEV        ADEG       MB/SR      MB/SR
 14.560     154.15     43.152     5.3170
 14.560     156.73     44.885     5.5304
 14.560     159.20     24.167     3.2418
 14.560     161.72     3.7678    0.67418
 14.560     164.32     9.0123     1.7160
 14.560     166.93     60.748     7.4850
 14.560     169.60     158.54     19.534
 14.560     172.00     306.43     37.757
 14.560     174.54     469.50     52.767
 14.770     154.24     13.067     2.0463
 14.770     156.85     13.748     2.1528
 14.770     159.30     6.5920     1.3339
 14.770     161.85     1.9091    0.50036
 14.770     164.46     2.4622    0.52708
 14.770     166.98     12.466     1.9521
 14.770     169.68     37.752     4.6597
 14.770     172.15     69.701     7.8474
 14.770     174.68     111.27     11.333
 14.885     154.24     1.5068    0.18800
 14.885     156.83     2.4001    0.28188
 14.885     159.29     2.0960    0.26151
 14.885     161.86     1.7832    0.23563
 14.885     164.44     1.0802    0.15076
 14.885     166.90    0.74566    0.10406
 14.885     169.40    0.74204    0.98052E-01
 14.885     171.95     1.3381    0.20679
 14.885     174.47     2.6096    0.30648
 14.995     154.19     28.316     3.5216
 14.995     156.67     24.519     3.0494
 14.995     159.29     12.530     1.5583
 14.995     161.66     6.7877     1.2262
 14.995     164.33     17.556     2.9701
 14.995     166.85     57.962     7.2087
 14.995     169.49     130.75     16.262
 14.995     171.95     219.99     22.574
 14.995     174.52     326.03     40.547
ENDDATA             38
ENDSUBENT           51
ENDENTRY             4
