ENTRY            A1515   19990324   19990505
SUBENT        A1515001   19990324   19990505
BIB                  9         12
INSTITUTE  (3INDTRM)
REFERENCE  (J,NC/A,1,(2),205,197101)
AUTHOR     (M.BALAKRISHNAN,M.K.MEHTA,A.S.DIVATIA)
TITLE      States in 10B from elastic scattering of alphas by 6Li
FACILITY   (VDG)
SAMPLE     The targets were prepared by converting 6Li (99.7%) in
           metallic form to lithium fluoride which was then
           evaporated onto thin carbon backings (5 to 10 mu-g/cm2)
DETECTOR   (SOLST) Silicon surface-barrier detectors
ERR-ANALYS (ERR-T) The overall error on the absolute cross section
HISTORY    (19800814C) Compilation produced by RFNC-VNIIEF Sarov
           (19990323U)CNPD: corrected 4-dig. year and lower cases.
ENDBIB              12
COMMON               1          3
ERR-T
PER-CENT
  10.0
ENDCOMMON            3
ENDSUBENT           19
SUBENT        A1515002   19990324   19990505
BIB                  3          6
REACTION   (3-LI-6(A,EL)3-LI-6,,DA)
ERR-ANALYS (EN-ERR) Digitizing error
           (DATA-ERR) Digitizing error
           (DATA-ERR1) The overal error on the absolute cross
           section
STATUS     (CURVE) Fig 2
ENDBIB               6
COMMON               3          3
EN-ERR     DATA-ERR1  DATA-ERR
MEV        PER-CENT   MB/SR
 0.03         10.      1.
ENDCOMMON            3
DATA                 3        697
EN         ANG-CM     DATA
MEV        ADEG       MB/SR
     3.257    125.        92.01
     3.26     141.       187.2
     3.268     90.        25.97
     3.272     70.       134.
     3.272    125.        87.96
     3.273     90.        22.95
     3.275    141.       189.1
     3.277    125.        92.94
     3.279    141.       181.2
     3.286     70.       131.9
     3.287     70.       127.9
     3.289    141.       185.1
     3.292    125.        87.88
     3.293     90.        25.87
     3.294    141.       189.1
     3.296     70.       126.9
     3.297    125.        90.86
     3.298     90.        21.85
     3.3      141.       183.1
     3.301     70.       130.8
     3.304    141.       186.1
     3.307     70.       123.9
     3.307    125.        89.83
     3.309    141.       179.1
     3.311     70.       122.8
     3.311     70.       125.8
     3.312    125.        92.81
     3.313     90.        21.8
     3.315     70.       119.8
     3.319    141.       182.1
     3.322    125.        95.77
     3.322    125.        89.77
     3.328     90.        24.74
     3.329    141.       183.
     3.33      70.       119.7
     3.333     90.        21.72
     3.337    125.        91.71
     3.339    141.       188.9
     3.34      70.       117.7
     3.344    141.       180.
     3.347    125.        93.67
     3.348     90.        22.67
     3.349    141.       184.9
     3.35      70.       116.7
     3.352     90.        22.65
     3.355     70.       119.6
     3.357    125.        90.64
     3.358    141.       179.9
     3.365     70.       117.6
     3.367     90.        21.59
     3.367    125.        94.6
     3.37      70.       115.6
     3.374    141.       189.8
     3.377    125.        99.56
     3.379     70.       112.6
     3.382     90.        22.53
     3.387    125.        96.52
     3.389     70.       107.5
     3.389    141.       189.7
     3.392    125.       101.5
     3.394     70.       112.5
     3.397     90.        20.48
     3.397     90.        24.48
     3.402    125.        96.47
     3.403     70.       110.4
     3.404    141.       193.6
     3.412     90.        24.42
     3.414     70.       106.5
     3.415    141.       196.7
     3.418     70.       104.4
     3.418     70.       107.4
     3.418    141.       197.5
     3.422    125.        99.39
     3.423     70.       101.4
     3.426    125.        96.38
     3.427     70.        99.39
     3.431    141.       209.3
     3.432     70.        95.38
     3.433     70.       101.3
     3.435    141.       205.4
     3.437     90.        25.33
     3.437    125.       105.3
     3.442     70.        98.36
     3.443     70.        93.32
     3.445    141.       204.3
     3.446    141.       213.2
     3.447     70.        94.27
     3.447     90.        27.29
     3.447    125.       105.3
     3.448    125.       109.3
     3.451    141.       216.2
     3.452     90.        30.27
     3.453    141.       220.1
     3.457     70.        91.3
     3.457    141.       228.1
     3.461     70.        91.25
     3.461     70.        88.25
     3.463    125.       112.2
     3.468     90.        33.21
     3.468    125.       113.2
     3.468    141.       233.9
     3.469    141.       248.8
     3.47      70.        87.21
     3.471     70.        82.21
     3.473     90.        37.18
     3.476     70.        84.2
     3.476     90.        42.19
     3.476    141.       266.6
     3.479     90.        45.17
     3.483    125.       117.2
     3.483    125.       122.2
     3.484     90.        51.15
     3.484    125.       112.2
     3.485     70.        82.16
     3.487    141.       273.4
     3.488    141.       287.3
     3.489    141.       292.2
     3.49     141.       301.1
     3.495     90.        56.11
     3.496     70.        88.12
     3.496     70.        85.12
     3.496     70.        89.08
     3.496    125.       111.1
     3.499    141.       300.1
     3.5       90.        62.09
     3.5      141.       307.
     3.501    141.       311.
     3.502    125.       121.1
     3.503    125.       101.1
     3.504    125.        89.06
     3.505    141.       317.9
     3.506     70.        92.12
     3.506     90.        66.07
     3.507     70.        96.05
     3.51     125.        95.04
     3.511    125.       100.1
     3.512     70.        98.06
     3.512     70.        96.08
     3.513     70.       105.
     3.513    125.        80.08
     3.515     70.       103.1
     3.515    141.       312.9
     3.516     90.        70.03
     3.516    125.        72.04
     3.516    141.       319.8
     3.518     70.       106.1
     3.518    141.       297.
     3.519    141.       248.6
     3.52     141.       307.
     3.521     90.        67.01
     3.521    141.       268.4
     3.522     70.       102.
     3.522     70.       109.
     3.524    125.        75.
     3.524    125.        80.
     3.524    141.       290.1
     3.525     90.        61.
     3.526    141.       279.2
     3.527    125.        67.95
     3.528     70.       111.
     3.528     70.       115.
     3.529     70.       113.
     3.53      90.        59.96
     3.53     141.       262.4
     3.532    141.       284.1
     3.533     70.       118.
     3.533    125.        71.97
     3.533    141.       272.3
     3.533    141.       246.5
     3.534     70.       121.
     3.535     90.        58.98
     3.536    141.       231.7
     3.537    125.        62.99
     3.538    125.        55.95
     3.539     70.       124.
     3.539     90.        54.94
     3.539     90.        51.94
     3.539    141.       243.6
     3.541    125.        50.94
     3.542    141.       218.8
     3.545     70.       128.9
     3.548     90.        47.91
     3.549     70.       123.9
     3.549     70.       126.9
     3.549    141.       216.8
     3.553     90.        42.89
     3.553     90.        39.89
     3.556    125.        51.88
     3.556    141.       197.
     3.556    141.       168.3
     3.557     90.        35.87
     3.558    141.       187.1
     3.559    141.       155.4
     3.56     141.       164.3
     3.561    125.        48.86
     3.562     90.        31.86
     3.562    141.       177.2
     3.564     70.       127.9
     3.564     70.       124.9
     3.568     70.       121.8
     3.571    125.        46.83
     3.571    141.       172.2
     3.574    141.       156.4
     3.575    141.       166.3
     3.576     90.        28.8
     3.578    141.       151.4
     3.579     70.       126.8
     3.579     70.       124.8
     3.58     141.       162.3
     3.581     90.        25.78
     3.581    125.        50.79
     3.583     70.       119.8
     3.584     70.       117.8
     3.584    141.       145.5
     3.591     90.        25.73
     3.591    125.        53.75
     3.593     70.       116.7
     3.593     70.       120.7
     3.594    141.       149.4
     3.595    141.       160.2
     3.596     90.        22.75
     3.596    125.        56.73
     3.599    141.       154.3
     3.603     70.       122.7
     3.603     70.       116.7
     3.603     70.       119.7
     3.603    141.       146.4
     3.604    141.       158.2
     3.606     90.        27.69
     3.606    125.        53.69
     3.609    141.       151.3
     3.609    141.       156.2
     3.611     90.        27.63
     3.612    125.        59.67
     3.613     70.       118.7
     3.613     70.       122.7
     3.613    141.       148.3
     3.617    125.        62.65
     3.618     70.       116.7
     3.62      90.        23.67
     3.621     90.        21.63
     3.621    125.        57.63
     3.623    141.       144.3
     3.624    141.       153.2
     3.627     70.       119.6
     3.628    141.       146.3
     3.63      90.        24.59
     3.631     90.        21.6
     3.632    125.        62.6
     3.633     70.       112.6
     3.636    125.        60.58
     3.638     70.       115.6
     3.639    141.       154.1
     3.642     70.       113.5
     3.642    125.        63.56
     3.642    125.        65.56
     3.642    141.       149.2
     3.643    141.       141.3
     3.645     90.        22.54
     3.647     70.       111.6
     3.648    141.       144.2
     3.65      90.        24.52
     3.651    125.        61.52
     3.652     70.       109.5
     3.655     90.        20.5
     3.662     70.       111.5
     3.662    125.        63.48
     3.663    141.       148.1
     3.666    125.        59.46
     3.668    141.       153.
     3.67      90.        19.45
     3.671     70.       102.5
     3.672    141.       144.1
     3.673    141.       149.1
     3.676     70.       106.4
     3.677    125.        64.43
     3.68      90.        22.41
     3.682    125.        66.41
     3.686    125.        62.39
     3.687    141.       143.1
     3.69      90.        22.37
     3.691     70.       103.4
     3.691     70.       107.4
     3.692    141.       145.
     3.696    125.        65.35
     3.697    125.        67.35
     3.701     70.       105.3
     3.702    141.       146.
     3.703    141.       153.9
     3.705     90.        19.31
     3.706     70.       102.3
     3.707    125.        69.31
     3.71      70.        99.31
     3.711    125.        63.29
     3.712    141.       143.
     3.719     90.        18.26
     3.721     70.       103.3
     3.726    125.        61.24
     3.727    141.       145.9
     3.73      90.        22.22
     3.731    141.       135.
     3.735     70.       104.2
     3.736     70.        99.21
     3.736    125.        62.2
     3.736    141.       132.
     3.741    125.        68.18
     3.742    141.       148.8
     3.744     90.        17.17
     3.746    141.       136.9
     3.75      70.       102.2
     3.75      70.        97.16
     3.751    125.        62.14
     3.752    141.       145.8
     3.754     90.        19.13
     3.756    125.        64.13
     3.759     90.        21.11
     3.76      70.        99.12
     3.761    141.       134.9
     3.766    125.        67.09
     3.769     70.        92.08
     3.771    125.        62.07
     3.771    141.       132.9
     3.774     90.        21.05
     3.776    125.        64.05
     3.78      70.        97.04
     3.78     141.       130.9
     3.784     90.        20.01
     3.785    141.       125.9
     3.786    125.        63.01
     3.789     70.        94.01
     3.789     90.        22.99
     3.791    141.       135.8
     3.795    141.       124.9
     3.796    125.        66.97
     3.799     90.        19.96
     3.8      141.       131.8
     3.804     70.        94.95
     3.805    141.       126.8
     3.809     90.        21.92
     3.811    125.        64.92
     3.815    125.        61.9
     3.819     70.        96.89
     3.819     70.        93.89
     3.819     90.        17.88
     3.82     125.        64.88
     3.82     141.       128.7
     3.825    125.        62.86
     3.825    141.       125.7
     3.827     70.        96.87
     3.829    141.       118.8
     3.834     90.        19.83
     3.839     70.        95.82
     3.839     90.        22.81
     3.839    141.       127.6
     3.84     125.        60.81
     3.844    141.       120.7
     3.845    125.        63.79
     3.845    141.       124.7
     3.848     70.        90.78
     3.849    141.       123.7
     3.853     90.        19.75
     3.855    125.        64.75
     3.858    141.       111.7
     3.86     125.        61.73
     3.863     90.        17.71
     3.863    141.       123.6
     3.864     70.        92.73
     3.864    141.       115.7
     3.87     125.        62.69
     3.874     70.        92.69
     3.878     70.        86.67
     3.878     90.        20.66
     3.879    125.        57.66
     3.883    141.       116.6
     3.883    141.       111.7
     3.888     70.        91.63
     3.888     90.        19.62
     3.895    125.        60.6
     3.898     70.        87.6
     3.898    141.       116.6
     3.9      125.        62.58
     3.903     90.        17.56
     3.907    141.       110.6
     3.908     70.        90.56
     3.908     90.        21.54
     3.909    125.        58.55
     3.922     70.        88.5
     3.923     70.        84.5
     3.923     90.        18.49
     3.923    141.       116.5
     3.924    125.        60.49
     3.928     90.        20.47
     3.928    141.       114.5
     3.932    141.       110.5
     3.933     70.        87.47
     3.934    125.        58.45
     3.937     70.        83.45
     3.942     70.        87.43
     3.943     90.        22.41
     3.947     70.        86.41
     3.947    141.       108.5
     3.948     90.        19.39
     3.949    125.        56.4
     3.951    141.       104.5
     3.952     70.        82.39
     3.957     90.        21.34
     3.962     70.        85.35
     3.963     90.        17.36
     3.964    125.        58.34
     3.967     70.        88.33
     3.971    141.        99.47
     3.972    141.       110.4
     3.973     90.        19.3
     3.978    125.        55.28
     3.981    141.       105.4
     3.982     70.        86.28
     3.987     90.        19.24
     3.988    125.        57.24
     3.992     70.        89.24
     3.993    125.        53.23
     3.997     70.        83.22
     4.002     90.        17.19
     4.006    141.        99.34
     4.012     70.        87.17
     4.018    125.        51.13
     4.02     141.        96.32
     4.022     90.        18.11
     4.032     70.        89.09
     4.033    125.        51.08
     4.035    141.        92.31
     4.037     90.        18.06
     4.044    141.        86.34
     4.047     90.        19.02
     4.051     70.        85.02
     4.052    125.        50.
     4.062    125.        46.97
     4.064    141.        85.27
     4.066     90.        15.94
     4.071     70.        84.94
     4.085    141.        97.07
     4.086     70.        85.88
     4.087     90.        19.87
     4.087    125.        47.87
     4.104    141.        93.04
     4.106     70.        84.81
     4.107    125.        47.8
     4.116     90.        17.76
     4.125     70.        79.74
     4.126    125.        45.72
     4.129    141.        93.93
     4.131     90.        19.7
     4.139    141.        95.87
     4.141    125.        40.67
     4.145     70.        73.66
     4.161     90.        18.59
     4.164     70.        68.59
     4.164    141.        92.81
     4.165    125.        39.57
     4.176     90.        21.53
     4.185    125.        39.5
     4.188     70.        64.5
     4.188     70.        61.5
     4.19     125.        34.48
     4.191     90.        23.47
     4.192    141.        81.82
     4.202    141.        76.84
     4.204    125.        36.43
     4.205    125.        30.43
     4.206     90.        25.42
     4.217     70.        54.39
     4.217     90.        28.38
     4.22     125.        36.37
     4.222     70.        49.38
     4.226    141.        77.72
     4.227     90.        33.34
     4.229    125.        32.33
     4.231     70.        45.34
     4.232    141.        72.79
     4.241     70.        43.3
     4.242     90.        38.28
     4.244    125.        29.28
     4.245    141.        68.76
     4.246    141.        63.82
     4.253     90.        44.24
     4.253    125.        24.24
     4.256     70.        44.25
     4.26     141.        59.81
     4.263     90.        48.2
     4.266     70.        44.21
     4.268    125.        26.18
     4.269    141.        53.84
     4.27     141.        63.73
     4.274     90.        58.16
     4.278    141.        48.85
     4.279    125.        33.14
     4.28      90.        69.14
     4.28      90.        64.14
     4.281     70.        44.15
     4.283    141.        44.88
     4.291     70.        47.11
     4.294    125.        34.09
     4.296     90.        75.08
     4.297     70.        57.09
     4.302     70.        61.07
     4.304    125.        38.05
     4.306     90.        78.04
     4.307    141.        43.8
     4.308    141.        38.85
     4.313     70.        67.03
     4.315     90.        75.01
     4.315    125.        48.01
     4.315    125.        42.01
     4.321     90.        79.99
     4.322    141.        35.83
     4.323     70.        71.99
     4.327    141.        39.77
     4.33     125.        48.95
     4.338     70.        76.93
     4.341     90.        77.91
     4.342    141.        36.74
     4.346     90.        79.89
     4.347    141.        42.66
     4.349     70.        81.89
     4.352    141.        35.72
     4.354     70.        83.87
     4.357    141.        39.65
     4.365    125.        49.82
     4.367    141.        39.6
     4.369     70.        85.81
     4.372    141.        45.55
     4.374     70.        88.79
     4.38     125.        53.76
     4.382    141.        42.53
     4.384     70.        89.76
     4.385     90.        79.74
     4.385     90.        75.74
     4.386    125.        58.74
     4.392    141.        46.45
     4.4       90.        74.69
     4.401    125.        61.68
     4.402    141.        43.44
     4.405     90.        72.67
     4.407    141.        48.37
     4.409     70.        91.66
     4.415    125.        57.63
     4.416    125.        61.63
     4.419     90.        70.61
     4.42      70.        93.62
     4.423    141.        51.28
     4.427    141.        45.33
     4.43     125.        59.57
     4.434     90.        69.56
     4.436    125.        63.55
     4.437    141.        46.28
     4.444     70.        93.53
     4.45     125.        60.5
     4.452    141.        50.18
     4.457    141.        45.22
     4.459     90.        71.46
     4.46     125.        59.46
     4.46     125.        62.46
     4.465     70.        97.45
     4.467    141.        47.16
     4.472     90.        68.41
     4.472    141.        45.16
     4.474    125.        56.41
     4.475    125.        57.4
     4.478     90.        65.39
     4.479     70.        92.4
     4.48     125.        58.39
     4.492    141.        47.07
     4.493     90.        66.33
     4.494     70.        94.34
     4.495    125.        59.33
     4.501    141.        43.07
     4.505    125.        62.29
     4.506    141.        46.02
     4.511    141.        43.04
     4.513     90.        67.26
     4.515    125.        59.25
     4.519     70.        93.25
     4.52     125.        62.23
     4.523     90.        64.22
     4.529     70.        96.21
     4.529    125.        56.2
     4.531    141.        46.92
     4.531    141.        43.95
     4.538     90.        62.17
     4.541    141.        40.95
     4.544     70.        98.15
     4.544     70.        95.15
     4.549    125.        58.12
     4.551    141.        46.84
     4.552     90.        59.11
     4.555    125.        62.1
     4.558     90.        67.09
     4.559     70.        98.09
     4.561    141.        40.87
     4.564    125.        60.07
     4.566    141.        45.8
     4.567     90.        64.05
     4.569     70.       100.1
     4.575    125.        62.03
     4.58     141.        44.75
     4.581    141.        35.85
     4.582     90.        65.
     4.583     70.        95.
     4.584    125.        64.99
     4.585    125.        60.99
     4.587     90.        60.98
     4.59     125.        62.97
     4.594     70.        96.96
     4.597     90.        65.94
     4.599    125.        58.93
     4.6      141.        36.77
     4.603     70.        94.93
     4.604     70.        98.93
     4.607     90.        60.9
     4.612     90.        64.88
     4.614    125.        60.88
     4.615    141.        39.68
     4.618     70.        97.87
     4.619    125.        63.86
     4.619    141.        33.73
     4.622     90.        66.84
     4.628    125.        54.82
     4.639    141.        30.68
     4.643    125.        55.77
     4.649    141.        35.59
     4.653     70.        97.74
     4.657     90.        65.71
     4.668    125.        57.67
     4.669    141.        33.54
     4.673     70.        97.66
     4.682     90.        65.62
     4.688     70.       100.6
     4.688    125.        59.6
     4.693    141.        29.49
     4.697     90.        64.56
     4.713     70.       101.5
     4.714    125.        62.5
     4.719    141.        33.35
     4.721     90.        64.47
     4.728    125.        60.45
     4.731     90.        66.43
     4.733     70.       103.4
     4.739    141.        35.26
     4.748     70.        99.38
     4.748    141.        29.29
     4.753    125.        59.35
     4.756     90.        63.34
     4.768     70.       100.3
     4.768    141.        26.25
     4.773    125.        62.28
     4.776     90.        62.26
     4.787     70.        97.23
     4.788    125.        58.22
     4.788    141.        30.13
     4.795     90.        60.19
     4.807     70.        95.16
     4.807    125.        58.15
     4.811     90.        63.13
     4.813    141.        31.02
     4.823    125.        63.09
     4.827     70.        99.08
     4.827    141.        28.
     4.835     90.        61.04
     4.838    125.        65.03
     4.847     70.       101.
     4.85      90.        64.98
     4.852    141.        31.86
     4.858    125.        63.96
     4.867    141.        27.85
     4.872     70.       100.9
     4.872    125.        60.9
     4.875     90.        60.89
     4.896     70.        93.82
     4.897    125.        64.81
     4.897    141.        25.76
     4.902    125.        59.79
     4.905     90.        64.77
     4.916     70.        97.74
     4.917    125.        63.73
     4.921    141.        23.69
     4.93      90.        61.68
     4.945     90.        64.62
     4.946     70.       102.6
     4.947    125.        66.62
     4.956    141.        23.56
     4.965     90.        67.55
     4.967     70.       104.6
     4.972    125.        65.52
     4.981    141.        23.47
     4.992     70.       106.5
     4.992    125.        66.45
     4.995     90.        67.44
     5.006    141.        25.35
ENDDATA            699
ENDSUBENT          714
ENDENTRY             2
