ENTRY            12853     860129
SUBENT        12853001     860129              20050926       0000
BIB                  9         20
INSTITUTE  (1USAANL)
REFERENCE  (R,ANL-NDM-80,8305)
AUTHOR     (W.P.POENITZ,J.F.WHALEN)
TITLE      NEUTRON TOTAL CROSS SECTION MEASUREMENTS IN THE ENERGY
            REGION FROM 47 KEV TO 20 MEV
FACILITY   (DYNAM)
CORRECTION THE DATA WERE CORRECTED FOR DEAD-TIME, BACKGROUND AND
            RESONANCE SELF-SHIELDING. INSCATTERING OF NEUTRONS
            WAS CALCULATED AND FOUND TO BE NEGLIGIBLE.
ERR-ANALYS (ERR-T) TOTAL UNCERTAINTY
             SYSTEMATIC UNCERTAINITES IN PERCENT INCLUDE -
                CORRELATED DEAD-TIME UNCERTAINTY       0.3-0.6
                BACKGROUND CORRECTION                  0.3
                SAMPLE THICKNESS                       0.5-1.0
STATUS     DATA RECEIVED IN PRIVATE COMMUNICATION 12/14/83 FROM
             W.P.POENITZ
           (APRVD) W.P.POENITZ, 84/2/13.
HISTORY    (831220C)
           (850806A) MISSING SUBENTRIES ADDED
           (860129A) BIB CORRECTION.
ENDBIB              20
NOCOMMON             0          0
ENDSUBENT           23
SUBENT        12853002     840106              20050926       0000
BIB                  5          6
REACTION   (6-C-0(N,TOT),,SIG)
N-SOURCE   (D-LI7) WHITE NEUTRON SPECTRUM
METHOD     (TOF)  8.414 METER FLIGHT PATH
SAMPLE     NATURAL CARBON
DETECTOR   BLACK NEUTRON DETECTOR 7.62 CM RADIUS AND 17.78 CM HIGH
             WITH PULSE SHAPE DISCRIMINATION
ENDBIB               6
NOCOMMON             0          0
DATA                 5        167
EN         EN-ERR     EN-RSL-FW  DATA       ERR-T
MEV        MEV        MEV        B          B
  1.808E+00  9.038E-03  7.420E-03  1.805E+00  1.276E-02
  1.823E+00  9.113E-03  7.485E-03  1.790E+00  1.266E-02
  1.838E+00  9.188E-03  7.577E-03  1.785E+00  1.262E-02
  1.853E+00  9.264E-03  7.680E-03  1.782E+00  1.169E-02
  1.868E+00  9.342E-03  7.783E-03  1.765E+00  1.088E-02
  1.884E+00  9.420E-03  7.885E-03  1.760E+00  1.154E-02
  1.900E+00  9.499E-03  7.982E-03  1.751E+00  1.148E-02
  1.916E+00  9.580E-03  8.072E-03  1.730E+00  1.134E-02
  1.932E+00  9.661E-03  8.200E-03  1.722E+00  1.129E-02
  1.949E+00  9.743E-03  8.292E-03  1.716E+00  1.125E-02
  1.965E+00  9.827E-03  8.415E-03  1.703E+00  1.117E-02
  1.982E+00  9.912E-03  8.540E-03  1.705E+00  1.118E-02
  2.000E+00  9.998E-03  8.655E-03  1.723E+00  1.130E-02
  2.017E+00  1.008E-02  8.760E-03  1.750E+00  1.148E-02
  2.035E+00  1.017E-02  8.577E-03  1.806E+00  1.184E-02
  2.051E+00  1.026E-02  8.297E-03  1.874E+00  1.155E-02
  2.068E+00  1.034E-02  8.592E-03  1.937E+00  1.194E-02
  2.086E+00  1.043E-02  9.125E-03  1.976E+00  1.218E-02
  2.104E+00  1.052E-02  9.348E-03  1.971E+00  1.215E-02
  2.123E+00  1.062E-02  9.483E-03  1.919E+00  1.183E-02
  2.142E+00  1.071E-02  9.577E-03  1.827E+00  1.126E-02
  2.161E+00  1.081E-02  9.680E-03  1.736E+00  1.138E-02
  2.181E+00  1.090E-02  9.228E-03  1.691E+00  1.109E-02
  2.198E+00  1.099E-02  6.765E-03  1.654E+00  1.085E-02
  2.208E+00  1.104E-02  5.890E-03  1.642E+00  1.161E-02
  2.222E+00  1.111E-02  8.460E-03  1.631E+00  1.070E-02
  2.242E+00  1.121E-02  1.016E-02  1.620E+00  1.062E-02
  2.262E+00  1.131E-02  1.046E-02  1.615E+00  1.059E-02
  2.284E+00  1.142E-02  1.063E-02  1.608E+00  1.054E-02
  2.305E+00  1.152E-02  1.076E-02  1.607E+00  1.054E-02
  2.327E+00  1.163E-02  1.091E-02  1.603E+00  1.051E-02
  2.349E+00  1.174E-02  1.107E-02  1.596E+00  1.047E-02
  2.371E+00  1.185E-02  1.123E-02  1.596E+00  1.047E-02
  2.394E+00  1.197E-02  1.141E-02  1.592E+00  1.044E-02
  2.417E+00  1.208E-02  1.159E-02  1.603E+00  1.051E-02
  2.440E+00  1.220E-02  1.174E-02  1.603E+00  1.051E-02
  2.464E+00  1.232E-02  1.191E-02  1.606E+00  1.053E-02
  2.488E+00  1.244E-02  1.209E-02  1.614E+00  1.058E-02
  2.512E+00  1.256E-02  1.228E-02  1.619E+00  1.062E-02
  2.537E+00  1.268E-02  1.247E-02  1.621E+00  1.063E-02
  2.562E+00  1.281E-02  1.266E-02  1.647E+00  1.080E-02
  2.587E+00  1.294E-02  1.285E-02  1.646E+00  1.079E-02
  2.613E+00  1.307E-02  1.305E-02  1.671E+00  1.096E-02
  2.640E+00  1.320E-02  1.328E-02  1.707E+00  1.052E-02
  2.666E+00  1.333E-02  1.346E-02  1.736E+00  1.070E-02
  2.693E+00  1.347E-02  1.366E-02  1.776E+00  1.095E-02
  2.721E+00  1.360E-02  1.389E-02  1.820E+00  1.046E-02
  2.749E+00  1.374E-02  1.411E-02  1.893E+00  1.087E-02
  2.777E+00  1.389E-02  1.434E-02  1.976E+00  1.135E-02
  2.806E+00  1.403E-02  1.454E-02  2.074E+00  1.191E-02
  2.836E+00  1.418E-02  1.477E-02  2.178E+00  1.251E-02
  2.865E+00  1.433E-02  1.505E-02  2.281E+00  1.310E-02
  2.896E+00  1.448E-02  1.530E-02  2.300E+00  1.321E-02
  2.927E+00  1.463E-02  1.472E-02  2.225E+00  1.278E-02
  2.955E+00  1.477E-02  1.326E-02  2.077E+00  1.193E-02
  2.980E+00  1.490E-02  1.377E-02  1.896E+00  1.089E-02
  3.010E+00  1.505E-02  1.570E-02  1.748E+00  1.078E-02
  3.042E+00  1.521E-02  1.648E-02  1.607E+00  9.906E-03
  3.076E+00  1.538E-02  1.676E-02  1.581E+00  9.746E-03
  3.109E+00  1.555E-02  1.703E-02  1.656E+00  1.021E-02
  3.144E+00  1.572E-02  1.730E-02  1.789E+00  1.103E-02
  3.179E+00  1.589E-02  1.761E-02  1.929E+00  1.108E-02
  3.214E+00  1.607E-02  1.792E-02  2.053E+00  1.179E-02
  3.250E+00  1.625E-02  1.823E-02  2.165E+00  1.244E-02
  3.287E+00  1.644E-02  1.855E-02  2.280E+00  1.310E-02
  3.325E+00  1.662E-02  1.886E-02  2.384E+00  1.370E-02
  3.363E+00  1.681E-02  1.920E-02  2.461E+00  1.414E-02
  3.401E+00  1.701E-02  1.954E-02  2.522E+00  1.449E-02
  3.441E+00  1.720E-02  1.988E-02  2.558E+00  1.469E-02
  3.481E+00  1.740E-02  2.023E-02  2.578E+00  1.481E-02
  3.522E+00  1.761E-02  2.061E-02  2.583E+00  1.484E-02
  3.563E+00  1.782E-02  2.100E-02  2.562E+00  1.472E-02
  3.606E+00  1.803E-02  2.135E-02  2.527E+00  1.452E-02
  3.649E+00  1.824E-02  2.174E-02  2.481E+00  1.425E-02
  3.693E+00  1.846E-02  2.213E-02  2.428E+00  1.395E-02
  3.737E+00  1.869E-02  2.254E-02  2.364E+00  1.358E-02
  3.783E+00  1.891E-02  2.300E-02  2.298E+00  1.320E-02
  3.829E+00  1.915E-02  2.340E-02  2.208E+00  1.268E-02
  3.876E+00  1.938E-02  2.385E-02  2.126E+00  1.221E-02
  3.925E+00  1.962E-02  2.431E-02  2.052E+00  1.179E-02
  3.974E+00  1.987E-02  2.474E-02  1.984E+00  1.140E-02
  4.024E+00  2.012E-02  2.525E-02  1.939E+00  1.114E-02
  4.075E+00  2.037E-02  2.574E-02  1.917E+00  1.101E-02
  4.127E+00  2.063E-02  2.623E-02  1.918E+00  1.182E-02
  4.180E+00  2.090E-02  2.674E-02  1.942E+00  1.197E-02
  4.234E+00  2.117E-02  2.727E-02  1.966E+00  1.212E-02
  4.289E+00  2.144E-02  2.781E-02  1.979E+00  1.220E-02
  4.345E+00  2.172E-02  2.837E-02  1.953E+00  1.220E-02
  4.402E+00  2.201E-02  3.302E-02  1.853E+00  1.243E-02
  4.477E+00  2.238E-02  3.613E-02  1.726E+00  1.220E-02
  4.547E+00  2.273E-02  3.327E-02  1.620E+00  1.146E-02
  4.610E+00  2.305E-02  3.151E-02  1.520E+00  1.075E-02
  4.673E+00  2.336E-02  3.170E-02  1.455E+00  1.118E-02
  4.737E+00  2.368E-02  3.235E-02  1.398E+00  1.074E-02
  4.802E+00  2.401E-02  3.301E-02  1.344E+00  1.032E-02
  4.869E+00  2.434E-02  3.372E-02  1.317E+00  1.012E-02
  4.937E+00  2.468E-02  3.445E-02  1.265E+00  1.028E-02
  5.007E+00  2.503E-02  3.517E-02  1.237E+00  1.085E-02
  5.078E+00  2.539E-02  3.593E-02  1.215E+00  1.066E-02
  5.150E+00  2.575E-02  3.671E-02  1.201E+00  1.054E-02
  5.224E+00  2.612E-02  3.752E-02  1.194E+00  1.055E-02
  5.300E+00  2.650E-02  3.836E-02  1.190E+00  1.051E-02
  5.378E+00  2.689E-02  3.920E-02  1.196E+00  1.056E-02
  5.457E+00  2.729E-02  4.007E-02  1.191E+00  1.052E-02
  5.538E+00  2.769E-02  4.101E-02  1.177E+00  1.039E-02
  5.621E+00  2.811E-02  4.193E-02  1.135E+00  1.002E-02
  5.706E+00  2.853E-02  4.287E-02  1.114E+00  9.839E-03
  5.793E+00  2.896E-02  4.388E-02  1.120E+00  9.892E-03
  5.881E+00  2.941E-02  4.490E-02  1.141E+00  1.008E-02
  5.972E+00  2.986E-02  4.594E-02  1.182E+00  1.044E-02
  6.065E+00  3.033E-02  4.703E-02  1.243E+00  1.098E-02
  6.160E+00  3.080E-02  4.815E-02  1.274E+00  1.125E-02
  6.258E+00  3.129E-02  4.931E-02  1.283E+00  1.081E-02
  6.358E+00  3.179E-02  5.051E-02  1.242E+00  1.097E-02
  6.460E+00  3.230E-02  5.175E-02  1.173E+00  1.119E-02
  6.565E+00  3.282E-02  5.302E-02  1.047E+00  9.988E-03
  6.672E+00  3.336E-02  5.432E-02  9.056E-01  9.837E-03
  6.782E+00  3.391E-02  5.568E-02  8.683E-01  1.009E-02
  6.895E+00  3.447E-02  5.710E-02  8.963E-01  9.736E-03
  7.010E+00  3.505E-02  5.854E-02  9.642E-01  1.034E-02
  7.129E+00  3.564E-02  6.004E-02  1.078E+00  1.028E-02
  7.250E+00  3.625E-02  6.160E-02  1.236E+00  1.092E-02
  7.375E+00  3.688E-02  6.320E-02  1.405E+00  1.184E-02
  7.503E+00  3.752E-02  6.411E-02  1.637E+00  1.268E-02
  7.632E+00  3.816E-02  6.355E-02  1.797E+00  1.392E-02
  7.757E+00  3.879E-02  5.284E-02  1.828E+00  1.485E-02
  7.843E+00  3.921E-02  3.796E-02  1.797E+00  1.460E-02
  7.909E+00  3.955E-02  5.217E-02  1.779E+00  1.319E-02
  8.052E+00  4.026E-02  7.216E-02  1.644E+00  1.385E-02
  8.198E+00  4.099E-02  7.412E-02  1.494E+00  1.259E-02
  8.348E+00  4.174E-02  7.619E-02  1.348E+00  1.235E-02
  8.503E+00  4.251E-02  7.833E-02  1.221E+00  1.165E-02
  8.661E+00  4.331E-02  8.054E-02  1.185E+00  1.220E-02
  8.825E+00  4.412E-02  8.283E-02  1.179E+00  1.214E-02
  8.993E+00  4.496E-02  8.522E-02  1.211E+00  1.247E-02
  9.166E+00  4.583E-02  8.770E-02  1.239E+00  1.276E-02
  9.344E+00  4.672E-02  1.184E-01  1.279E+00  1.317E-02
  9.639E+00  4.820E-02  1.353E-01  1.267E+00  1.202E-02
  9.885E+00  4.942E-02  1.112E-01  1.278E+00  1.316E-02
  1.008E+01  1.008E-01  1.012E-01  1.237E+00  1.274E-02
  1.029E+01  1.029E-01  1.044E-01  1.273E+00  1.311E-02
  1.050E+01  1.050E-01  1.077E-01  1.300E+00  1.293E-02
  1.072E+01  1.072E-01  8.195E-02  1.326E+00  1.319E-02
  1.083E+01  1.083E-01  5.992E-02  1.373E+00  1.595E-02
  1.096E+01  1.096E-01  9.090E-02  1.388E+00  1.272E-02
  1.119E+01  1.119E-01  1.184E-01  1.398E+00  1.281E-02
  1.143E+01  1.143E-01  1.223E-01  1.415E+00  1.192E-02
  1.168E+01  1.168E-01  1.263E-01  1.419E+00  1.196E-02
  1.194E+01  1.194E-01  1.480E-01  1.401E+00  1.181E-02
  1.227E+01  1.227E-01  1.651E-01  1.406E+00  1.080E-02
  1.260E+01  1.260E-01  1.556E-01  1.401E+00  1.076E-02
  1.290E+01  1.290E-01  1.487E-01  1.379E+00  1.059E-02
  1.319E+01  1.319E-01  1.515E-01  1.389E+00  1.067E-02
  1.350E+01  1.350E-01  1.569E-01  1.383E+00  9.779E-03
  1.382E+01  1.382E-01  1.625E-01  1.389E+00  9.822E-03
  1.415E+01  1.415E-01  1.693E-01  1.398E+00  9.885E-03
  1.450E+01  1.450E-01  2.124E-01  1.414E+00  9.998E-03
  1.500E+01  1.500E-01  2.527E-01  1.444E+00  9.469E-03
  1.551E+01  1.551E-01  2.377E-01  1.459E+00  9.567E-03
  1.595E+01  1.595E-01  2.133E-01  1.461E+00  9.580E-03
  1.636E+01  1.636E-01  2.091E-01  1.470E+00  9.639E-03
  1.679E+01  1.679E-01  2.172E-01  1.448E+00  9.495E-03
  1.723E+01  1.723E-01  2.259E-01  1.440E+00  9.443E-03
  1.769E+01  1.769E-01  2.350E-01  1.451E+00  1.026E-02
  1.817E+01  1.817E-01  2.445E-01  1.445E+00  1.022E-02
  1.867E+01  1.867E-01  3.506E-01  1.461E+00  1.033E-02
  1.957E+01  1.957E-01  6.010E-01  1.478E+00  1.135E-02
ENDDATA            169
ENDSUBENT          180
SUBENT        12853003     840106              20050926       0000
BIB                  5          6
REACTION   (21-SC-45(N,TOT),,SIG)
N-SOURCE   (D-LI7) WHITE NEUTRON SPECTRUM
METHOD     (TOF)  8.414 METER FLIGHT PATH
SAMPLE     NATURAL SCANDIUM WITH A THICKNESS 0.0804 ATOMS/BARN
DETECTOR   BLACK NEUTRON DETECTOR 7.62 CM RADIUS AND 17.78 CM HIGH
             WITH PULSE SHAPE DISCRIMINATION
ENDBIB               6
NOCOMMON             0          0
DATA                 5         67
EN         EN-ERR     EN-RSL-FW  DATA       ERR-T
MEV        MEV        MEV        B          B
  1.819E+00  9.095E-03  1.874E-02  3.361E+00  1.167E-01
  1.856E+00  9.282E-03  1.906E-02  3.478E+00  1.192E-01
  1.895E+00  9.476E-03  1.970E-02  3.404E+00  1.166E-01
  1.935E+00  9.676E-03  2.034E-02  3.368E+00  1.154E-01
  1.977E+00  9.883E-03  2.104E-02  3.264E+00  1.118E-01
  2.019E+00  1.010E-02  2.176E-02  3.393E+00  1.148E-01
  2.064E+00  1.032E-02  2.249E-02  3.397E+00  1.136E-01
  2.109E+00  1.055E-02  2.327E-02  3.400E+00  1.137E-01
  2.157E+00  1.078E-02  2.410E-02  3.383E+00  1.131E-01
  2.206E+00  1.103E-02  2.497E-02  3.456E+00  1.143E-01
  2.257E+00  1.128E-02  2.589E-02  3.534E+00  1.149E-01
  2.309E+00  1.155E-02  2.681E-02  3.570E+00  1.161E-01
  2.364E+00  1.182E-02  2.779E-02  3.457E+00  1.131E-01
  2.420E+00  1.210E-02  2.886E-02  3.559E+00  1.157E-01
  2.479E+00  1.240E-02  2.993E-02  3.507E+00  1.140E-01
  2.540E+00  1.270E-02  3.109E-02  3.549E+00  1.154E-01
  2.604E+00  1.302E-02  3.232E-02  3.607E+00  1.161E-01
  2.669E+00  1.335E-02  3.359E-02  3.500E+00  1.127E-01
  2.738E+00  1.369E-02  3.492E-02  3.554E+00  1.144E-01
  2.809E+00  1.405E-02  3.633E-02  3.551E+00  1.143E-01
  2.883E+00  1.442E-02  3.782E-02  3.614E+00  1.153E-01
  2.960E+00  1.480E-02  3.939E-02  3.611E+00  1.152E-01
  3.041E+00  1.520E-02  4.109E-02  3.611E+00  1.152E-01
  3.125E+00  1.562E-02  4.282E-02  3.620E+00  1.154E-01
  3.212E+00  1.606E-02  4.466E-02  3.598E+00  1.147E-01
  3.303E+00  1.652E-02  4.666E-02  3.658E+00  1.167E-01
  3.399E+00  1.699E-02  4.873E-02  3.666E+00  1.169E-01
  3.498E+00  1.749E-02  5.098E-02  3.604E+00  1.149E-01
  3.603E+00  1.801E-02  5.332E-02  3.627E+00  1.147E-01
  3.712E+00  1.856E-02  5.578E-02  3.605E+00  1.140E-01
  3.826E+00  1.913E-02  5.847E-02  3.603E+00  1.149E-01
  3.945E+00  1.973E-02  6.129E-02  3.535E+00  1.127E-01
  4.071E+00  2.035E-02  6.430E-02  3.558E+00  1.157E-01
  4.203E+00  2.101E-02  6.753E-02  3.449E+00  1.153E-01
  4.341E+00  2.171E-02  7.096E-02  3.555E+00  1.211E-01
  4.487E+00  2.243E-02  7.462E-02  3.383E+00  1.190E-01
  4.640E+00  2.320E-02  7.855E-02  3.426E+00  1.205E-01
  4.801E+00  2.400E-02  8.278E-02  3.568E+00  1.249E-01
  4.971E+00  2.485E-02  8.728E-02  3.434E+00  1.226E-01
  5.150E+00  2.575E-02  9.212E-02  3.494E+00  1.241E-01
  5.339E+00  2.670E-02  9.733E-02  3.536E+00  1.256E-01
  5.539E+00  2.770E-02  1.029E-01  3.401E+00  1.214E-01
  5.751E+00  2.875E-02  1.090E-01  3.269E+00  1.184E-01
  5.975E+00  2.988E-02  1.156E-01  3.148E+00  1.174E-01
  6.213E+00  3.107E-02  1.226E-01  3.324E+00  1.221E-01
  6.466E+00  3.233E-02  1.303E-01  3.079E+00  1.184E-01
  6.734E+00  3.367E-02  1.386E-01  3.170E+00  1.200E-01
  7.020E+00  3.510E-02  1.477E-01  3.186E+00  1.206E-01
  7.325E+00  3.663E-02  1.576E-01  3.106E+00  1.194E-01
  7.651E+00  3.825E-02  1.683E-01  2.998E+00  1.195E-01
  7.998E+00  3.999E-02  1.801E-01  2.895E+00  1.192E-01
  8.371E+00  4.185E-02  1.930E-01  2.856E+00  1.194E-01
  8.770E+00  4.385E-02  2.071E-01  2.834E+00  1.180E-01
  9.199E+00  4.600E-02  2.227E-01  2.815E+00  1.259E-01
  9.661E+00  4.831E-02  2.399E-01  2.718E+00  1.252E-01
  1.016E+01  1.016E-01  2.588E-01  2.559E+00  1.241E-01
  1.070E+01  1.070E-01  2.799E-01  2.525E+00  1.205E-01
  1.128E+01  1.128E-01  3.033E-01  2.408E+00  1.131E-01
  1.191E+01  1.191E-01  3.294E-01  2.356E+00  1.043E-01
  1.260E+01  1.260E-01  3.586E-01  2.302E+00  9.723E-02
  1.334E+01  1.334E-01  3.913E-01  2.292E+00  9.239E-02
  1.416E+01  1.416E-01  4.282E-01  2.161E+00  8.636E-02
  1.506E+01  1.506E-01  4.699E-01  2.123E+00  8.236E-02
  1.604E+01  1.604E-01  5.172E-01  2.106E+00  7.939E-02
  1.713E+01  1.713E-01  5.711E-01  2.093E+00  7.781E-02
  1.833E+01  1.833E-01  6.327E-01  2.086E+00  8.213E-02
  1.966E+01  1.966E-01  6.641E-01  2.123E+00  9.752E-02
ENDDATA             69
ENDSUBENT           80
SUBENT        12853004     840106              20050926       0000
BIB                  5          5
REACTION   (29-CU-0(N,TOT),,SIG)
N-SOURCE   (P-LI7) WHITE NEUTRON SPECTRUM
METHOD     (TOF)  3.32 METER FLIGHT PATH
SAMPLE     NATURAL COPPER
DETECTOR   BLACK NEUTRON DETECTOR 5 CM RADIUS AND 15 CM HIGH
ENDBIB               5
NOCOMMON             0          0
DATA                 5          6
EN         EN-ERR     EN-RSL-FW  DATA       ERR-T
MEV        MEV        MEV        B          B
  6.500E-02  2.000E-03  5.000E-03  6.700E+00  1.000E-01
  7.500E-02  2.000E-03  5.000E-03  8.100E+00  2.000E-01
  8.500E-02  2.000E-03  5.000E-03  7.300E+00  1.500E-01
  9.500E-02  2.000E-03  5.000E-03  6.200E+00  1.000E-01
  1.050E-01  2.000E-03  5.000E-03  6.600E+00  1.000E-01
  1.150E-01  2.000E-03  5.000E-03  6.100E+00  1.000E-01
ENDDATA              8
ENDSUBENT           18
SUBENT        12853005     840106              20050926       0000
BIB                  5          5
REACTION   (29-CU-0(N,TOT),,SIG)
N-SOURCE   (P-LI7) MONOENERGETIC NEUTRONS
METHOD     (TOF)  3.32 METER FLIGHT PATH
SAMPLE     NATURAL COPPER
DETECTOR   BLACK NEUTRON DETECTOR 5 CM RADIUS AND 15 CM HIGH
ENDBIB               5
NOCOMMON             0          0
DATA                 5          6
EN         EN-ERR     EN-RSL-FW  DATA       ERR-T
MEV        MEV        MEV        B          B
  1.360E-01  5.000E-03  6.000E-03  6.850E+00  1.500E-01
  1.570E-01  5.000E-03  1.500E-02  5.710E+00  1.500E-01
  1.810E-01  5.000E-03  1.000E-02  5.350E+00  1.500E-01
  2.600E-01  5.000E-03  3.100E-02  5.260E+00  1.000E-01
  3.120E-01  5.000E-03  3.100E-02  4.930E+00  5.000E-02
  3.650E-01  5.000E-03  3.000E-02  4.570E+00  7.000E-02
ENDDATA              8
ENDSUBENT           18
SUBENT        12853006     840106              20050926       0000
BIB                  5          6
REACTION   (29-CU-0(N,TOT),,SIG)
N-SOURCE   (P-LI7) MONOENERGETIC NEUTRONS
METHOD     (TOF)  7.909 METER FLIGHT PATH
SAMPLE     NATURAL COPPER
DETECTOR   (SCIN) NE213 DETECTOR 2 CM THICK AND 12.7 CM
            IN DIAMETER
ENDBIB               6
NOCOMMON             0          0
DATA                 5         17
EN         EN-ERR     EN-RSL-FW  DATA       ERR-T
MEV        MEV        MEV        B          B
  2.570E-01  5.000E-03  3.100E-02  5.260E+00  6.000E-02
  3.120E-01  5.000E-03  3.100E-02  4.980E+00  6.000E-02
  3.650E-01  5.000E-03  3.000E-02  4.500E+00  6.000E-02
  4.160E-01  5.000E-03  3.000E-02  4.380E+00  5.000E-02
  4.580E-01  5.000E-03  2.900E-02  4.370E+00  5.000E-02
  5.290E-01  5.000E-03  2.900E-02  4.310E+00  6.000E-02
  5.900E-01  5.000E-03  2.800E-02  4.130E+00  6.000E-02
  6.330E-01  5.000E-03  2.800E-02  4.060E+00  4.000E-02
  6.880E-01  5.000E-03  2.700E-02  3.740E+00  3.000E-02
  9.250E-01  5.000E-03  4.900E-02  3.480E+00  6.000E-02
  9.760E-01  5.000E-03  4.900E-02  3.460E+00  4.000E-02
  1.027E+00  5.000E-03  4.800E-02  3.360E+00  4.000E-02
  1.084E+00  5.000E-03  4.700E-02  3.420E+00  5.000E-02
  1.134E+00  5.000E-03  4.700E-02  3.170E+00  4.000E-02
  1.288E+00  5.000E-03  4.500E-02  3.210E+00  4.000E-02
  1.337E+00  5.000E-03  4.500E-02  3.140E+00  4.000E-02
  1.392E+00  5.000E-03  4.400E-02  3.200E+00  4.000E-02
ENDDATA             19
ENDSUBENT           30
SUBENT        12853007     840106              20050926       0000
BIB                  5          6
REACTION   (30-ZN-0(N,TOT),,SIG)
N-SOURCE   (D-LI7) WHITE NEUTRON SPECTRUM
METHOD     (TOF)  8.414 METER FLIGHT PATH
SAMPLE     NATURAL ZINC WITH THICKNESS OF 0.4901 ATOMS/BARN
DETECTOR   BLACK NEUTRON DETECTOR 7.62 CM RADIUS AND 17.78 CM HIGH
             WITH PULSE SHAPE DISCRIMINATION
ENDBIB               6
NOCOMMON             0          0
DATA                 5         68
EN         EN-ERR     EN-RSL-FW  DATA       ERR-T
MEV        MEV        MEV        B          B
  1.822E+00  9.112E-03  1.911E-02  3.294E+00  3.638E-02
  1.861E+00  9.303E-03  1.943E-02  3.250E+00  3.590E-02
  1.900E+00  9.501E-03  2.010E-02  3.185E+00  3.518E-02
  1.941E+00  9.705E-03  2.077E-02  3.142E+00  3.470E-02
  1.983E+00  9.916E-03  2.146E-02  3.172E+00  3.448E-02
  2.027E+00  1.013E-02  2.219E-02  3.179E+00  3.298E-02
  2.072E+00  1.036E-02  2.293E-02  3.241E+00  3.321E-02
  2.119E+00  1.059E-02  2.373E-02  3.217E+00  3.296E-02
  2.167E+00  1.083E-02  2.458E-02  3.210E+00  3.045E-02
  2.217E+00  1.108E-02  2.545E-02  3.201E+00  3.037E-02
  2.269E+00  1.134E-02  2.635E-02  3.215E+00  3.050E-02
  2.322E+00  1.161E-02  2.731E-02  3.225E+00  3.060E-02
  2.378E+00  1.189E-02  2.834E-02  3.209E+00  3.044E-02
  2.436E+00  1.218E-02  2.939E-02  3.253E+00  3.086E-02
  2.496E+00  1.248E-02  3.047E-02  3.265E+00  2.865E-02
  2.558E+00  1.279E-02  3.166E-02  3.228E+00  2.833E-02
  2.622E+00  1.311E-02  3.289E-02  3.292E+00  2.889E-02
  2.689E+00  1.345E-02  3.416E-02  3.285E+00  2.883E-02
  2.759E+00  1.379E-02  3.552E-02  3.279E+00  2.877E-02
  2.831E+00  1.416E-02  3.697E-02  3.292E+00  2.889E-02
  2.907E+00  1.453E-02  3.846E-02  3.304E+00  2.899E-02
  2.985E+00  1.493E-02  4.005E-02  3.330E+00  2.922E-02
  3.067E+00  1.533E-02  4.175E-02  3.341E+00  2.932E-02
  3.152E+00  1.576E-02  4.352E-02  3.360E+00  2.948E-02
  3.241E+00  1.620E-02  4.537E-02  3.398E+00  2.982E-02
  3.334E+00  1.667E-02  4.735E-02  3.442E+00  2.796E-02
  3.430E+00  1.715E-02  4.946E-02  3.434E+00  2.790E-02
  3.531E+00  1.766E-02  5.170E-02  3.506E+00  2.848E-02
  3.637E+00  1.819E-02  5.408E-02  3.530E+00  2.868E-02
  3.748E+00  1.874E-02  5.658E-02  3.574E+00  2.904E-02
  3.863E+00  1.932E-02  5.924E-02  3.585E+00  2.912E-02
  3.985E+00  1.992E-02  6.206E-02  3.624E+00  2.784E-02
  4.112E+00  2.056E-02  6.508E-02  3.655E+00  3.058E-02
  4.245E+00  2.123E-02  6.834E-02  3.696E+00  3.367E-02
  4.385E+00  2.193E-02  7.174E-02  3.764E+00  3.726E-02
  4.532E+00  2.266E-02  7.540E-02  3.756E+00  4.028E-02
  4.687E+00  2.343E-02  7.931E-02  3.804E+00  4.079E-02
  4.849E+00  2.425E-02  8.352E-02  3.766E+00  4.039E-02
  5.021E+00  2.510E-02  8.803E-02  3.848E+00  4.127E-02
  5.201E+00  2.601E-02  9.282E-02  3.795E+00  4.393E-02
  5.392E+00  2.696E-02  9.799E-02  3.862E+00  4.142E-02
  5.593E+00  2.797E-02  1.036E-01  3.868E+00  4.148E-02
  5.806E+00  2.903E-02  1.096E-01  3.846E+00  4.452E-02
  6.032E+00  3.016E-02  1.160E-01  3.900E+00  4.515E-02
  6.270E+00  3.135E-02  1.230E-01  3.910E+00  4.526E-02
  6.524E+00  3.262E-02  1.305E-01  3.887E+00  4.500E-02
  6.792E+00  3.396E-02  1.387E-01  3.790E+00  4.719E-02
  7.078E+00  3.539E-02  1.476E-01  3.904E+00  4.536E-02
  7.383E+00  3.691E-02  1.572E-01  3.777E+00  4.702E-02
  7.707E+00  3.854E-02  1.676E-01  3.778E+00  5.055E-02
  8.053E+00  4.027E-02  1.790E-01  3.775E+00  5.051E-02
  8.423E+00  4.212E-02  1.915E-01  3.727E+00  5.323E-02
  8.819E+00  4.410E-02  2.052E-01  3.760E+00  5.370E-02
  9.244E+00  4.622E-02  2.201E-01  3.656E+00  5.557E-02
  9.700E+00  4.850E-02  2.365E-01  3.575E+00  5.842E-02
  1.019E+01  1.019E-01  2.546E-01  3.439E+00  5.609E-02
  1.072E+01  1.072E-01  2.744E-01  3.434E+00  5.452E-02
  1.129E+01  1.129E-01  2.965E-01  3.415E+00  5.103E-02
  1.190E+01  1.190E-01  3.209E-01  3.268E+00  4.445E-02
  1.257E+01  1.257E-01  3.480E-01  3.163E+00  4.026E-02
  1.330E+01  1.330E-01  3.781E-01  3.070E+00  3.645E-02
  1.408E+01  1.408E-01  4.118E-01  3.004E+00  3.318E-02
  1.494E+01  1.494E-01  4.495E-01  2.889E+00  3.191E-02
  1.588E+01  1.588E-01  4.918E-01  2.874E+00  2.945E-02
  1.691E+01  1.691E-01  5.394E-01  2.737E+00  3.133E-02
  1.804E+01  1.804E-01  5.931E-01  2.707E+00  3.540E-02
  1.928E+01  1.928E-01  5.461E-01  2.622E+00  5.077E-02
  2.022E+01  2.022E-01  4.706E-01  2.572E+00  1.122E-01
ENDDATA             70
ENDSUBENT           81
SUBENT        12853008     840106              20050926       0000
BIB                  6          6
REACTION   (39-Y-89(N,TOT),,SIG)
N-SOURCE   (P-LI7) WHITE NEUTRON SPECTRUM
METHOD     (TOF)  3.32 METER FLIGHT PATH
SAMPLE     NATURAL YTTRIUM WITH A THICKNESS OF 0.0597 ATOMS/BARN
DETECTOR   BLACK NEUTRON DETECTOR 5 CM RADIUS AND 15 CM HIGH
ERR-ANALYS (ERR-S) STATISTICAL UNCERTAINTY
ENDBIB               6
NOCOMMON             0          0
DATA                 6          8
EN         EN-ERR     EN-RSL-FW  DATA       ERR-T      ERR-S
MEV        MEV        MEV        B          B          B
  4.700E-02  1.000E-03  4.000E-03  7.184E+00  6.757E-01  6.576E-01
  6.000E-02  1.000E-03  6.000E-03  9.272E+00  4.142E-01  3.697E-01
  7.800E-02  1.000E-03  9.000E-03  8.944E+00  3.730E-01  3.342E-01
  1.010E-01  1.000E-03  1.000E-02  7.872E+00  3.961E-01  3.735E-01
  1.240E-01  1.000E-03  1.000E-02  9.086E+00  3.466E-01  3.174E-01
  1.460E-01  1.000E-03  9.000E-03  7.863E+00  3.442E-01  3.256E-01
  1.680E-01  1.000E-03  9.000E-03  8.595E+00  3.241E-01  3.030E-01
  1.970E-01  1.000E-03  1.400E-02  7.535E+00  3.456E-01  3.323E-01
ENDDATA             10
ENDSUBENT           21
SUBENT        12853009     840106              20050926       0000
BIB                  6          6
REACTION   (39-Y-89(N,TOT),,SIG)
N-SOURCE   (P-LI7) MONOENERGETIC NEUTRONS
METHOD     (TOF)  3.32 METER FLIGHT PATH
SAMPLE     NATURAL YTTRIUM WITH A THICKNESS OF 0.0597 ATOMS/BARN
DETECTOR   BLACK NEUTRON DETECTOR 5 CM RADIUS AND 15 CM HIGH
ERR-ANALYS (ERR-S) STATISTICAL UNCERTAINTY
ENDBIB               6
NOCOMMON             0          0
DATA                 6         20
EN         EN-ERR     EN-RSL-FW  DATA       ERR-T      ERR-S
MEV        MEV        MEV        B          B          B
  2.150E-01  5.000E-03  2.400E-02  8.473E+00  2.500E-01  2.277E-01
  2.360E-01  5.000E-03  2.400E-02  8.545E+00  2.482E-01  2.269E-01
  2.600E-01  5.000E-03  2.400E-02  9.200E+00  2.868E-01  2.671E-01
  3.220E-01  5.000E-03  2.300E-02  8.264E+00  2.892E-01  2.753E-01
  3.650E-01  5.000E-03  2.300E-02  8.377E+00  3.177E-01  3.051E-01
  4.060E-01  5.000E-03  2.200E-02  9.255E+00  3.977E-01  3.857E-01
  4.500E-01  5.000E-03  2.200E-02  8.702E+00  4.251E-01  4.155E-01
  4.950E-01  5.000E-03  2.100E-02  9.003E+00  4.547E-01  4.452E-01
  5.500E-01  5.000E-03  4.500E-02  8.918E+00  3.848E-01  3.738E-01
  5.800E-01  5.000E-03  2.100E-02  6.982E+00  4.699E-01  4.644E-01
  6.000E-01  4.000E-03  4.400E-02  8.110E+00  3.922E-01  3.835E-01
  6.520E-01  4.000E-03  4.300E-02  8.365E+00  3.336E-01  3.226E-01
  7.000E-01  4.000E-03  4.200E-02  7.945E+00  3.420E-01  3.325E-01
  7.450E-01  4.000E-03  4.100E-02  7.336E+00  3.110E-01  3.021E-01
  7.860E-01  4.000E-03  4.000E-02  6.961E+00  3.790E-01  3.724E-01
  8.900E-01  4.000E-03  3.800E-02  6.845E+00  3.194E-01  3.118E-01
  9.500E-01  4.000E-03  3.700E-02  6.562E+00  3.483E-01  3.419E-01
  1.010E+00  4.000E-03  3.700E-02  6.135E+00  3.356E-01  3.300E-01
  1.320E+00  4.000E-03  3.500E-02  5.474E+00  3.049E-01  3.000E-01
  1.600E+00  3.000E-03  3.300E-02  4.874E+00  3.237E-01  3.200E-01
ENDDATA             22
ENDSUBENT           33
SUBENT        12853010     840106              20050926       0000
BIB                  5          6
REACTION   (39-Y-89(N,TOT),,SIG)
N-SOURCE   (D-LI7) WHITE NEUTRON SPECTRUM
METHOD     (TOF)  8.414 METER FLIGHT PATH
SAMPLE     NATURAL YTTRIUM WITH A THICKNESS OF 0.0617 ATOMS/BARN
DETECTOR   BLACK NEUTRON DETECTOR 7.62 CM RADIUS AND 17.78 CM HIGH
             WITH PULSE SHAPE DISCRIMINATION
ENDBIB               6
NOCOMMON             0          0
DATA                 5         67
EN         EN-ERR     EN-RSL-FW  DATA       ERR-T
MEV        MEV        MEV        B          B
  1.822E+00  9.108E-03  1.952E-02  4.631E+00  1.558E-01
  1.861E+00  9.303E-03  1.981E-02  4.537E+00  1.526E-01
  1.901E+00  9.504E-03  2.042E-02  4.609E+00  1.551E-01
  1.942E+00  9.711E-03  2.111E-02  4.640E+00  1.542E-01
  1.985E+00  9.926E-03  2.184E-02  4.544E+00  1.510E-01
  2.030E+00  1.015E-02  2.259E-02  4.440E+00  1.476E-01
  2.076E+00  1.038E-02  2.334E-02  4.541E+00  1.492E-01
  2.123E+00  1.061E-02  2.415E-02  4.397E+00  1.445E-01
  2.172E+00  1.086E-02  2.501E-02  4.285E+00  1.408E-01
  2.223E+00  1.112E-02  2.588E-02  4.258E+00  1.408E-01
  2.276E+00  1.138E-02  2.682E-02  4.233E+00  1.385E-01
  2.330E+00  1.165E-02  2.781E-02  4.367E+00  1.420E-01
  2.387E+00  1.193E-02  2.883E-02  4.276E+00  1.390E-01
  2.446E+00  1.223E-02  2.991E-02  4.362E+00  1.418E-01
  2.507E+00  1.253E-02  3.104E-02  4.294E+00  1.396E-01
  2.570E+00  1.285E-02  3.223E-02  4.273E+00  1.375E-01
  2.635E+00  1.318E-02  3.349E-02  4.176E+00  1.353E-01
  2.704E+00  1.352E-02  3.480E-02  4.109E+00  1.331E-01
  2.775E+00  1.387E-02  3.617E-02  4.107E+00  1.330E-01
  2.848E+00  1.424E-02  3.764E-02  4.139E+00  1.341E-01
  2.925E+00  1.463E-02  3.917E-02  4.050E+00  1.312E-01
  3.005E+00  1.503E-02  4.078E-02  4.040E+00  1.308E-01
  3.088E+00  1.544E-02  4.250E-02  4.087E+00  1.324E-01
  3.175E+00  1.588E-02  4.431E-02  4.030E+00  1.305E-01
  3.266E+00  1.633E-02  4.624E-02  3.978E+00  1.288E-01
  3.360E+00  1.680E-02  4.825E-02  3.942E+00  1.277E-01
  3.459E+00  1.729E-02  5.040E-02  4.018E+00  1.301E-01
  3.562E+00  1.781E-02  5.268E-02  3.897E+00  1.262E-01
  3.669E+00  1.835E-02  5.509E-02  3.862E+00  1.239E-01
  3.782E+00  1.891E-02  5.764E-02  3.850E+00  1.236E-01
  3.900E+00  1.950E-02  6.034E-02  3.807E+00  1.233E-01
  4.023E+00  2.012E-02  6.324E-02  3.798E+00  1.242E-01
  4.153E+00  2.076E-02  6.633E-02  3.821E+00  1.278E-01
  4.289E+00  2.144E-02  6.962E-02  3.820E+00  1.327E-01
  4.431E+00  2.216E-02  7.312E-02  3.752E+00  1.339E-01
  4.581E+00  2.291E-02  7.685E-02  3.758E+00  1.361E-01
  4.739E+00  2.369E-02  8.083E-02  3.686E+00  1.362E-01
  4.905E+00  2.452E-02  8.511E-02  3.754E+00  1.379E-01
  5.079E+00  2.540E-02  8.969E-02  3.823E+00  1.405E-01
  5.263E+00  2.632E-02  9.458E-02  3.840E+00  1.411E-01
  5.458E+00  2.729E-02  9.989E-02  3.915E+00  1.418E-01
  5.663E+00  2.831E-02  1.056E-01  4.007E+00  1.451E-01
  5.880E+00  2.940E-02  1.117E-01  3.843E+00  1.433E-01
  6.109E+00  3.055E-02  1.182E-01  4.013E+00  1.476E-01
  6.353E+00  3.176E-02  1.253E-01  4.116E+00  1.514E-01
  6.611E+00  3.305E-02  1.330E-01  4.118E+00  1.515E-01
  6.885E+00  3.442E-02  1.413E-01  4.174E+00  1.535E-01
  7.176E+00  3.588E-02  1.503E-01  4.149E+00  1.549E-01
  7.486E+00  3.743E-02  1.601E-01  4.353E+00  1.593E-01
  7.816E+00  3.908E-02  1.707E-01  4.438E+00  1.649E-01
  8.169E+00  4.084E-02  1.823E-01  4.281E+00  1.641E-01
  8.545E+00  4.273E-02  1.949E-01  4.535E+00  1.711E-01
  8.948E+00  4.474E-02  2.087E-01  4.427E+00  1.697E-01
  9.380E+00  4.690E-02  2.238E-01  4.465E+00  1.769E-01
  9.844E+00  4.922E-02  2.405E-01  4.209E+00  1.729E-01
  1.034E+01  1.034E-01  2.587E-01  4.429E+00  1.755E-01
  1.088E+01  1.088E-01  2.788E-01  4.269E+00  1.692E-01
  1.146E+01  1.146E-01  3.009E-01  4.188E+00  1.588E-01
  1.208E+01  1.208E-01  3.255E-01  4.252E+00  1.541E-01
  1.276E+01  1.276E-01  3.527E-01  4.043E+00  1.443E-01
  1.349E+01  1.349E-01  3.828E-01  3.719E+00  1.309E-01
  1.429E+01  1.429E-01  4.165E-01  3.823E+00  1.310E-01
  1.516E+01  1.516E-01  4.539E-01  3.738E+00  1.265E-01
  1.611E+01  1.611E-01  4.958E-01  3.565E+00  1.215E-01
  1.714E+01  1.714E-01  5.427E-01  3.497E+00  1.206E-01
  1.828E+01  1.828E-01  5.954E-01  3.296E+00  1.237E-01
  1.952E+01  1.952E-01  5.470E-01  3.242E+00  1.584E-01
ENDDATA             69
ENDSUBENT           80
SUBENT        12853011     840106              20050926       0000
BIB                  6          7
REACTION   (39-Y-89(N,TOT),,SIG)
N-SOURCE   (P-LI7) MONOENERGETIC NEUTRONS
METHOD     (TOF)  7.909 METER FLIGHT PATH
SAMPLE     NATURAL YTTRIUM WITH A THICKNESS OF 0.0597 ATOMS/BARN
DETECTOR   (SCIN) NE213 DETECTOR 2 CM THICK AND 12.7 CM
            IN DIAMETER
ERR-ANALYS (ERR-S) STATISTICAL UNCERTAINTY
ENDBIB               7
NOCOMMON             0          0
DATA                 6         24
EN         EN-ERR     EN-RSL-FW  DATA       ERR-T      ERR-S
MEV        MEV        MEV        B          B          B
  9.850E-01  7.000E-03  7.400E-02  6.537E+00  1.039E-01  8.046E-02
  1.032E+00  7.000E-03  7.200E-02  6.315E+00  1.019E-01  8.000E-02
  1.127E+00  7.000E-03  7.100E-02  6.130E+00  9.301E-02  7.000E-02
  1.222E+00  7.000E-03  6.800E-02  5.780E+00  9.075E-02  7.000E-02
  1.317E+00  7.000E-03  6.700E-02  5.820E+00  9.890E-02  8.000E-02
  1.411E+00  7.000E-03  6.600E-02  5.309E+00  9.599E-02  8.000E-02
  1.506E+00  6.000E-03  6.400E-02  5.194E+00  9.536E-02  8.000E-02
  1.600E+00  6.000E-03  6.200E-02  4.882E+00  1.113E-01  1.000E-01
  1.695E+00  6.000E-03  6.000E-02  4.764E+00  8.465E-02  7.000E-02
  1.790E+00  6.000E-03  5.800E-02  4.789E+00  8.479E-02  7.000E-02
  1.887E+00  6.000E-03  5.700E-02  4.489E+00  8.314E-02  7.000E-02
  1.984E+00  6.000E-03  5.600E-02  4.569E+00  8.357E-02  7.000E-02
  2.180E+00  5.000E-03  5.400E-02  4.313E+00  9.087E-02  8.000E-02
  2.377E+00  5.000E-03  5.200E-02  4.248E+00  9.056E-02  8.000E-02
  2.578E+00  5.000E-03  5.000E-02  4.088E+00  8.105E-02  7.000E-02
  2.783E+00  5.000E-03  4.900E-02  4.043E+00  8.082E-02  7.000E-02
  2.985E+00  5.000E-03  4.700E-02  4.008E+00  8.065E-02  7.000E-02
  3.188E+00  5.000E-03  4.500E-02  3.913E+00  8.018E-02  7.000E-02
  3.390E+00  4.000E-03  4.400E-02  3.878E+00  8.001E-02  7.000E-02
  3.587E+00  4.000E-03  4.200E-02  3.868E+00  7.996E-02  7.000E-02
  3.788E+00  4.000E-03  4.100E-02  3.775E+00  7.952E-02  7.000E-02
  3.990E+00  4.000E-03  3.900E-02  3.968E+00  8.045E-02  7.000E-02
  4.195E+00  4.000E-03  3.800E-02  3.735E+00  8.828E-02  8.000E-02
  4.400E+00  4.000E-03  3.700E-02  3.700E+00  9.730E-02  9.000E-02
ENDDATA             26
ENDSUBENT           38
SUBENT        12853012     840106              20050926       0000
BIB                  6          6
REACTION   (40-ZR-0(N,TOT),,SIG)
N-SOURCE   (P-LI7) WHITE NEUTRON SPECTRUM
METHOD     (TOF)  3.32 METER FLIGHT PATH
SAMPLE     NATURAL ZIRCONIUM WITH A THICKNESS OF 0.046 ATOMS/BARN
DETECTOR   BLACK NEUTRON DETECTOR 5 CM RADIUS AND 15 CM HIGH
ERR-ANALYS (ERR-S) STATISTICAL UNCERTAINTY
ENDBIB               6
NOCOMMON             0          0
DATA                 6          8
EN         EN-ERR     EN-RSL-FW  DATA       ERR-T      ERR-S
MEV        MEV        MEV        B          B          B
  4.700E-02  1.000E-03  4.000E-03  1.029E+01  6.372E-01  6.099E-01
  6.000E-02  1.000E-03  6.000E-03  9.150E+00  3.752E-01  3.454E-01
  7.800E-02  1.000E-03  9.000E-03  9.719E+00  3.478E-01  3.206E-01
  1.010E-01  1.000E-03  1.000E-02  9.458E+00  3.648E-01  3.485E-01
  1.240E-01  1.000E-03  1.000E-02  8.891E+00  3.344E-01  3.240E-01
  1.460E-01  1.000E-03  9.000E-03  9.888E+00  3.194E-01  3.108E-01
  1.680E-01  1.000E-03  9.000E-03  8.985E+00  2.944E-01  2.886E-01
  1.970E-01  1.000E-03  1.400E-02  8.798E+00  3.116E-01  3.078E-01
ENDDATA             10
ENDSUBENT           21
SUBENT        12853013     840106              20050926       0000
BIB                  6          6
REACTION   (40-ZR-0(N,TOT),,SIG)
N-SOURCE   (P-LI7) MONOENERGETIC NEUTRONS
METHOD     (TOF)  3.32 METER FLIGHT PATH
SAMPLE     NATURAL ZIRCONIUM WITH A THICKNESS OF 0.0646 ATOMS/BARN
DETECTOR   BLACK NEUTRON DETECTOR 5 CM RADIUS AND 15 CM HIGH
ERR-ANALYS (ERR-S) STATISTICAL UNCERTAINTY
ENDBIB               6
NOCOMMON             0          0
DATA                 6         20
EN         EN-ERR     EN-RSL-FW  DATA       ERR-T      ERR-S
MEV        MEV        MEV        B          B          B
  2.150E-01  5.000E-03  2.400E-02  9.429E+00  2.101E-01  2.046E-01
  2.360E-01  5.000E-03  2.400E-02  8.343E+00  2.076E-01  2.041E-01
  2.600E-01  5.000E-03  2.400E-02  9.000E+00  2.469E-01  2.442E-01
  3.220E-01  5.000E-03  2.300E-02  9.752E+00  2.548E-01  2.530E-01
  3.650E-01  5.000E-03  2.300E-02  9.443E+00  3.145E-01  3.132E-01
  4.060E-01  5.000E-03  2.200E-02  9.331E+00  3.542E-01  3.533E-01
  4.500E-01  5.000E-03  2.200E-02  8.941E+00  3.940E-01  3.933E-01
  4.950E-01  5.000E-03  2.100E-02  8.714E+00  4.038E-01  4.031E-01
  5.500E-01  5.000E-03  4.500E-02  8.763E+00  3.428E-01  3.422E-01
  5.800E-01  5.000E-03  2.100E-02  8.053E+00  4.229E-01  4.225E-01
  6.000E-01  4.000E-03  4.400E-02  8.282E+00  3.525E-01  3.519E-01
  6.520E-01  4.000E-03  4.300E-02  8.225E+00  3.019E-01  3.014E-01
  7.000E-01  4.000E-03  4.200E-02  8.351E+00  3.019E-01  3.013E-01
  7.450E-01  4.000E-03  4.100E-02  7.997E+00  2.716E-01  2.710E-01
  7.860E-01  4.000E-03  4.000E-02  6.992E+00  3.416E-01  3.412E-01
  8.900E-01  4.000E-03  3.800E-02  7.001E+00  2.913E-01  2.910E-01
  9.500E-01  4.000E-03  3.700E-02  6.911E+00  3.114E-01  3.111E-01
  1.010E+00  4.000E-03  3.700E-02  6.387E+00  3.003E-01  3.000E-01
  1.320E+00  4.000E-03  3.500E-02  5.957E+00  2.803E-01  2.800E-01
  1.600E+00  3.000E-03  3.300E-02  5.177E+00  3.002E-01  3.000E-01
ENDDATA             22
ENDSUBENT           33
SUBENT        12853014     840106              20050926       0000
BIB                  5          6
REACTION   (40-ZR-0(N,TOT),,SIG)
N-SOURCE   (D-LI7) WHITE NEUTRON SPECTRUM
METHOD     (TOF)  8.414 METER FLIGHT PATH
SAMPLE     NATURAL ZIRCONIUM WITH A THICKNESS OF 0.1649 ATOMS/BARN
DETECTOR   BLACK NEUTRON DETECTOR 7.62 CM RADIUS AND 17.78 CM HIGH
             WITH PULSE SHAPE DISCRIMINATION
ENDBIB               6
NOCOMMON             0          0
DATA                 5         68
EN         EN-ERR     EN-RSL-FW  DATA       ERR-T
MEV        MEV        MEV        B          B
  1.822E+00  9.112E-03  1.911E-02  4.987E+00  4.021E-02
  1.861E+00  9.303E-03  1.943E-02  4.954E+00  3.640E-02
  1.900E+00  9.501E-03  2.010E-02  4.832E+00  3.551E-02
  1.941E+00  9.705E-03  2.077E-02  4.782E+00  3.514E-02
  1.983E+00  9.916E-03  2.146E-02  4.746E+00  3.488E-02
  2.027E+00  1.013E-02  2.219E-02  4.705E+00  3.457E-02
  2.072E+00  1.036E-02  2.293E-02  4.686E+00  3.443E-02
  2.119E+00  1.059E-02  2.373E-02  4.606E+00  3.385E-02
  2.167E+00  1.083E-02  2.458E-02  4.546E+00  3.341E-02
  2.217E+00  1.108E-02  2.545E-02  4.518E+00  3.031E-02
  2.269E+00  1.134E-02  2.635E-02  4.501E+00  3.019E-02
  2.322E+00  1.161E-02  2.731E-02  4.450E+00  2.985E-02
  2.378E+00  1.189E-02  2.834E-02  4.438E+00  2.977E-02
  2.436E+00  1.218E-02  2.939E-02  4.419E+00  2.964E-02
  2.496E+00  1.248E-02  3.047E-02  4.332E+00  2.906E-02
  2.558E+00  1.279E-02  3.166E-02  4.299E+00  2.884E-02
  2.622E+00  1.311E-02  3.289E-02  4.261E+00  2.858E-02
  2.689E+00  1.345E-02  3.416E-02  4.189E+00  2.810E-02
  2.759E+00  1.379E-02  3.552E-02  4.142E+00  2.779E-02
  2.831E+00  1.416E-02  3.697E-02  4.103E+00  2.752E-02
  2.907E+00  1.453E-02  3.846E-02  4.117E+00  2.762E-02
  2.985E+00  1.493E-02  4.005E-02  4.068E+00  2.729E-02
  3.067E+00  1.533E-02  4.175E-02  4.034E+00  2.852E-02
  3.152E+00  1.576E-02  4.352E-02  4.019E+00  2.842E-02
  3.241E+00  1.620E-02  4.537E-02  4.013E+00  2.838E-02
  3.334E+00  1.667E-02  4.735E-02  3.982E+00  2.816E-02
  3.430E+00  1.715E-02  4.946E-02  3.920E+00  2.772E-02
  3.531E+00  1.766E-02  5.170E-02  3.886E+00  2.748E-02
  3.637E+00  1.819E-02  5.408E-02  3.836E+00  2.712E-02
  3.748E+00  1.874E-02  5.658E-02  3.824E+00  2.704E-02
  3.863E+00  1.932E-02  5.924E-02  3.806E+00  2.691E-02
  3.985E+00  1.992E-02  6.206E-02  3.788E+00  2.679E-02
  4.112E+00  2.056E-02  6.508E-02  3.744E+00  2.876E-02
  4.245E+00  2.123E-02  6.834E-02  3.757E+00  3.143E-02
  4.385E+00  2.193E-02  7.174E-02  3.754E+00  3.420E-02
  4.532E+00  2.266E-02  7.540E-02  3.751E+00  3.417E-02
  4.687E+00  2.343E-02  7.931E-02  3.747E+00  3.709E-02
  4.849E+00  2.425E-02  8.352E-02  3.723E+00  3.686E-02
  5.021E+00  2.510E-02  8.803E-02  3.807E+00  3.769E-02
  5.201E+00  2.601E-02  9.282E-02  3.819E+00  3.781E-02
  5.392E+00  2.696E-02  9.799E-02  3.869E+00  3.830E-02
  5.593E+00  2.797E-02  1.036E-01  3.955E+00  3.915E-02
  5.806E+00  2.903E-02  1.096E-01  3.919E+00  3.880E-02
  6.032E+00  3.016E-02  1.160E-01  4.051E+00  3.907E-02
  6.270E+00  3.135E-02  1.230E-01  4.036E+00  3.995E-02
  6.524E+00  3.262E-02  1.305E-01  4.138E+00  3.991E-02
  6.792E+00  3.396E-02  1.387E-01  4.170E+00  4.021E-02
  7.078E+00  3.539E-02  1.476E-01  4.242E+00  4.091E-02
  7.383E+00  3.691E-02  1.572E-01  4.202E+00  4.052E-02
  7.707E+00  3.854E-02  1.676E-01  4.288E+00  4.497E-02
  8.053E+00  4.027E-02  1.790E-01  4.340E+00  4.552E-02
  8.423E+00  4.212E-02  1.915E-01  4.328E+00  4.539E-02
  8.819E+00  4.410E-02  2.052E-01  4.319E+00  4.905E-02
  9.244E+00  4.622E-02  2.201E-01  4.385E+00  4.980E-02
  9.700E+00  4.850E-02  2.365E-01  4.325E+00  5.297E-02
  1.019E+01  1.019E-01  2.546E-01  4.349E+00  5.326E-02
  1.072E+01  1.072E-01  2.744E-01  4.247E+00  4.824E-02
  1.129E+01  1.129E-01  2.965E-01  4.236E+00  4.443E-02
  1.190E+01  1.190E-01  3.209E-01  4.176E+00  4.027E-02
  1.257E+01  1.257E-01  3.480E-01  4.091E+00  3.613E-02
  1.330E+01  1.330E-01  3.781E-01  3.968E+00  3.615E-02
  1.408E+01  1.408E-01  4.118E-01  3.918E+00  3.278E-02
  1.494E+01  1.494E-01  4.495E-01  3.793E+00  3.173E-02
  1.588E+01  1.588E-01  4.918E-01  3.693E+00  2.837E-02
  1.691E+01  1.691E-01  5.394E-01  3.576E+00  2.992E-02
  1.804E+01  1.804E-01  5.931E-01  3.469E+00  3.160E-02
  1.928E+01  1.928E-01  5.461E-01  3.424E+00  4.581E-02
  2.022E+01  2.022E-01  4.706E-01  3.365E+00  9.677E-02
ENDDATA             70
ENDSUBENT           81
SUBENT        12853015     840106              20050926       0000
BIB                  6          7
REACTION   (40-ZR-0(N,TOT),,SIG)
N-SOURCE   (P-LI7) MONOENERGETIC NEUTRONS
METHOD     (TOF)  7.909 METER FLIGHT PATH
SAMPLE     NATURAL ZIRCONIUM WITH A THICKNESS OF 0.0646 ATOMS/BARN
DETECTOR   (SCIN) NE213 DETECTOR 2 CM THICK AND 12.7 CM
            IN DIAMETER
ERR-ANALYS (ERR-S) STATISTICAL UNCERTAINTY
ENDBIB               7
NOCOMMON             0          0
DATA                 6         24
EN         EN-ERR     EN-RSL-FW  DATA       ERR-T      ERR-S
MEV        MEV        MEV        B          B          B
  9.850E-01  7.000E-03  7.400E-02  6.650E+00  7.165E-02  7.025E-02
  1.032E+00  7.000E-03  7.200E-02  6.337E+00  7.114E-02  7.000E-02
  1.127E+00  7.000E-03  7.100E-02  6.322E+00  7.113E-02  7.000E-02
  1.222E+00  7.000E-03  6.800E-02  6.142E+00  7.107E-02  7.000E-02
  1.317E+00  7.000E-03  6.700E-02  5.987E+00  8.089E-02  8.000E-02
  1.411E+00  7.000E-03  6.600E-02  5.787E+00  7.095E-02  7.000E-02
  1.506E+00  6.000E-03  6.400E-02  5.267E+00  7.079E-02  7.000E-02
  1.600E+00  6.000E-03  6.200E-02  5.365E+00  9.064E-02  9.000E-02
  1.695E+00  6.000E-03  6.000E-02  5.252E+00  7.078E-02  7.000E-02
  1.790E+00  6.000E-03  5.800E-02  5.032E+00  7.072E-02  7.000E-02
  1.887E+00  6.000E-03  5.700E-02  4.708E+00  7.063E-02  7.000E-02
  1.984E+00  6.000E-03  5.600E-02  4.818E+00  7.066E-02  7.000E-02
  2.180E+00  5.000E-03  5.400E-02  4.583E+00  7.060E-02  7.000E-02
  2.377E+00  5.000E-03  5.200E-02  4.558E+00  7.059E-02  7.000E-02
  2.578E+00  5.000E-03  5.000E-02  4.258E+00  7.052E-02  7.000E-02
  2.783E+00  5.000E-03  4.900E-02  4.273E+00  7.052E-02  7.000E-02
  2.985E+00  5.000E-03  4.700E-02  4.038E+00  6.054E-02  6.000E-02
  3.188E+00  5.000E-03  4.500E-02  4.033E+00  6.054E-02  6.000E-02
  3.390E+00  4.000E-03  4.400E-02  3.898E+00  6.050E-02  6.000E-02
  3.587E+00  4.000E-03  4.200E-02  3.943E+00  6.052E-02  6.000E-02
  3.788E+00  4.000E-03  4.100E-02  3.843E+00  7.042E-02  7.000E-02
  3.990E+00  4.000E-03  3.900E-02  3.803E+00  7.026E-02  7.000E-02
  4.195E+00  4.000E-03  3.800E-02  3.807E+00  7.041E-02  7.000E-02
  4.400E+00  4.000E-03  3.700E-02  3.659E+00  9.030E-02  9.000E-02
ENDDATA             26
ENDSUBENT           38
SUBENT        12853016     840106              20050926       0000
BIB                  5          6
REACTION   (40-ZR-0(N,TOT),,SIG)
N-SOURCE   (P-LI7) MONOENERGETIC NEUTRONS
METHOD     (TOF)  3.74 METER FLIGHT PATH
SAMPLE     NATURAL ZIRCONIUM WITH THICKNESSES OF 0.0646 AND
             0.1649 ATOMS/BARN
DETECTOR   BLACK NEUTRON DETECTOR 5 CM RADIUS AND 15 CM HIGH
ENDBIB               6
NOCOMMON             0          0
DATA                 5         15
EN         EN-ERR     EN-RSL-FW  DATA       ERR-T
MEV        MEV        MEV        B          B
  3.650E-01  5.000E-03  3.000E-02  9.340E+00  1.000E-01
  4.160E-01  5.000E-03  3.000E-02  9.480E+00  1.100E-01
  4.580E-01  5.000E-03  2.900E-02  8.590E+00  1.500E-01
  5.290E-01  5.000E-03  2.900E-02  8.620E+00  6.000E-02
  5.900E-01  5.000E-03  2.800E-02  8.560E+00  6.000E-02
  6.330E-01  5.000E-03  2.800E-02  8.460E+00  6.000E-02
  6.880E-01  5.000E-03  2.700E-02  8.360E+00  8.000E-02
  9.250E-01  5.000E-03  4.900E-02  7.100E+00  1.500E-01
  9.760E-01  5.000E-03  4.900E-02  6.710E+00  8.000E-02
  1.027E+00  5.000E-03  4.800E-02  6.400E+00  5.000E-02
  1.084E+00  5.000E-03  4.700E-02  6.560E+00  1.000E-01
  1.134E+00  5.000E-03  4.700E-02  6.290E+00  6.000E-02
  1.288E+00  5.000E-03  4.500E-02  6.080E+00  1.000E-01
  1.337E+00  5.000E-03  4.500E-02  5.790E+00  1.000E-01
  1.392E+00  5.000E-03  4.400E-02  5.500E+00  1.000E-01
ENDDATA             17
ENDSUBENT           28
SUBENT        12853017     840106              20050926       0000
BIB                  6          6
REACTION   (41-NB-93(N,TOT),,SIG)
N-SOURCE   (P-LI7) WHITE NEUTRON SPECTRUM
METHOD     (TOF)  3.32 METER FLIGHT PATH
SAMPLE     NATURAL NIOBIUM WITH A THICKNESS OF 0.0960 ATOMS/BARN
DETECTOR   BLACK NEUTRON DETECTOR 5 CM RADIUS AND 15 CM HIGH
ERR-ANALYS (ERR-S) STATISTICAL UNCERTAINTY
ENDBIB               6
NOCOMMON             0          0
DATA                 6          9
EN         EN-ERR     EN-RSL-FW  DATA       ERR-T      ERR-S
MEV        MEV        MEV        B          B          B
  4.700E-02  1.000E-03  4.000E-03  9.059E+00  6.738E-01  6.243E-01
  6.000E-02  1.000E-03  6.000E-03  9.449E+00  4.289E-01  3.525E-01
  7.800E-02  1.000E-03  9.000E-03  9.535E+00  3.869E-01  3.151E-01
  1.010E-01  1.000E-03  1.000E-02  9.571E+00  3.542E-01  2.892E-01
  1.240E-01  1.000E-03  1.000E-02  9.664E+00  3.345E-01  2.750E-01
  1.460E-01  1.000E-03  9.000E-03  9.717E+00  3.087E-01  2.511E-01
  1.680E-01  1.000E-03  9.000E-03  9.862E+00  2.884E-01  2.287E-01
  1.970E-01  1.000E-03  1.400E-02  9.578E+00  2.645E-01  2.065E-01
  2.280E-01  2.000E-03  1.600E-02  9.486E+00  3.019E-01  2.565E-01
ENDDATA             11
ENDSUBENT           22
SUBENT        12853018     840106              20050926       0000
BIB                  6          6
REACTION   (41-NB-93(N,TOT),,SIG)
N-SOURCE   (P-LI7) MONOENERGETIC NEUTRONS
METHOD     (TOF)  3.32 METER FLIGHT PATH
SAMPLE     NATURAL NIOBIUM WITH A THICKNESS OF 0.0960 ATOMS/BARN
DETECTOR   BLACK NEUTRON DETECTOR 5 CM RADIUS AND 15 CM HIGH
ERR-ANALYS (ERR-S) STATISTICAL UNCERTAINTY
ENDBIB               6
NOCOMMON             0          0
DATA                 6         21
EN         EN-ERR     EN-RSL-FW  DATA       ERR-T      ERR-S
MEV        MEV        MEV        B          B          B
  2.150E-01  5.000E-03  2.400E-02  9.357E+00  2.439E-01  1.851E-01
  2.360E-01  5.000E-03  2.400E-02  9.564E+00  2.217E-01  1.537E-01
  2.600E-01  5.000E-03  2.400E-02  9.738E+00  2.217E-01  1.530E-01
  3.220E-01  5.000E-03  2.300E-02  9.206E+00  2.352E-01  1.821E-01
  3.650E-01  5.000E-03  2.300E-02  9.106E+00  2.496E-01  2.020E-01
  4.060E-01  5.000E-03  2.200E-02  9.012E+00  2.483E-01  2.017E-01
  4.500E-01  5.000E-03  2.200E-02  8.619E+00  2.962E-01  2.619E-01
  4.950E-01  5.000E-03  2.100E-02  8.431E+00  2.946E-01  2.617E-01
  5.500E-01  5.000E-03  4.500E-02  8.168E+00  2.833E-01  2.513E-01
  5.800E-01  5.000E-03  2.100E-02  7.953E+00  2.727E-01  2.411E-01
  6.000E-01  4.000E-03  4.400E-02  8.011E+00  2.819E-01  2.511E-01
  6.520E-01  4.000E-03  4.300E-02  7.866E+00  2.543E-01  2.209E-01
  7.000E-01  4.000E-03  4.200E-02  7.754E+00  2.621E-01  2.308E-01
  7.450E-01  4.000E-03  4.100E-02  7.522E+00  2.007E-01  1.606E-01
  7.860E-01  4.000E-03  4.000E-02  7.242E+00  1.745E-01  1.305E-01
  8.380E-01  4.000E-03  3.900E-02  7.173E+00  1.738E-01  1.305E-01
  8.900E-01  4.000E-03  3.800E-02  7.015E+00  1.647E-01  1.205E-01
  9.500E-01  4.000E-03  3.700E-02  6.857E+00  1.631E-01  1.206E-01
  1.010E+00  4.000E-03  3.700E-02  6.655E+00  1.680E-01  1.300E-01
  1.320E+00  4.000E-03  3.500E-02  5.925E+00  1.529E-01  1.200E-01
  1.600E+00  3.000E-03  3.300E-02  5.364E+00  1.557E-01  1.300E-01
ENDDATA             23
ENDSUBENT           34
SUBENT        12853019     840106              20050926       0000
BIB                  5          6
REACTION   (41-NB-93(N,TOT),,SIG)
N-SOURCE   (D-LI7) WHITE NEUTRON SPECTRUM
METHOD     (TOF)  8.414 METER FLIGHT PATH
SAMPLE     NATURAL NIOBIUM WITH A THICKNESS OF 0.1414 ATOMS/BARN
DETECTOR   BLACK NEUTRON DETECTOR 7.62 CM RADIUS AND 17.78 CM HIGH
             WITH PULSE SHAPE DISCRIMINATION
ENDBIB               6
NOCOMMON             0          0
DATA                 5         68
EN         EN-ERR     EN-RSL-FW  DATA       ERR-T
MEV        MEV        MEV        B          B
  1.822E+00  9.112E-03  1.911E-02  5.060E+00  4.080E-02
  1.861E+00  9.303E-03  1.943E-02  5.041E+00  4.064E-02
  1.900E+00  9.501E-03  2.010E-02  4.982E+00  4.017E-02
  1.941E+00  9.705E-03  2.077E-02  4.948E+00  3.989E-02
  1.983E+00  9.916E-03  2.146E-02  4.880E+00  3.934E-02
  2.027E+00  1.013E-02  2.219E-02  4.866E+00  3.576E-02
  2.072E+00  1.036E-02  2.293E-02  4.830E+00  3.549E-02
  2.119E+00  1.059E-02  2.373E-02  4.754E+00  3.493E-02
  2.167E+00  1.083E-02  2.458E-02  4.741E+00  3.484E-02
  2.217E+00  1.108E-02  2.545E-02  4.654E+00  3.575E-02
  2.269E+00  1.134E-02  2.635E-02  4.631E+00  3.557E-02
  2.322E+00  1.161E-02  2.731E-02  4.554E+00  3.498E-02
  2.378E+00  1.189E-02  2.834E-02  4.496E+00  3.453E-02
  2.436E+00  1.218E-02  2.939E-02  4.483E+00  3.443E-02
  2.496E+00  1.248E-02  3.047E-02  4.431E+00  3.404E-02
  2.558E+00  1.279E-02  3.166E-02  4.393E+00  3.374E-02
  2.622E+00  1.311E-02  3.289E-02  4.366E+00  3.354E-02
  2.689E+00  1.345E-02  3.416E-02  4.286E+00  3.292E-02
  2.759E+00  1.379E-02  3.552E-02  4.245E+00  3.002E-02
  2.831E+00  1.416E-02  3.697E-02  4.153E+00  2.937E-02
  2.907E+00  1.453E-02  3.846E-02  4.168E+00  2.947E-02
  2.985E+00  1.493E-02  4.005E-02  4.104E+00  3.152E-02
  3.067E+00  1.533E-02  4.175E-02  4.081E+00  2.886E-02
  3.152E+00  1.576E-02  4.352E-02  3.990E+00  3.065E-02
  3.241E+00  1.620E-02  4.537E-02  3.947E+00  3.032E-02
  3.334E+00  1.667E-02  4.735E-02  3.931E+00  3.019E-02
  3.430E+00  1.715E-02  4.946E-02  3.867E+00  2.970E-02
  3.531E+00  1.766E-02  5.170E-02  3.859E+00  2.729E-02
  3.637E+00  1.819E-02  5.408E-02  3.859E+00  2.729E-02
  3.748E+00  1.874E-02  5.658E-02  3.772E+00  2.667E-02
  3.863E+00  1.932E-02  5.924E-02  3.780E+00  2.673E-02
  3.985E+00  1.992E-02  6.206E-02  3.779E+00  2.903E-02
  4.112E+00  2.056E-02  6.508E-02  3.757E+00  3.143E-02
  4.245E+00  2.123E-02  6.834E-02  3.755E+00  3.421E-02
  4.385E+00  2.193E-02  7.174E-02  3.777E+00  3.739E-02
  4.532E+00  2.266E-02  7.540E-02  3.694E+00  3.961E-02
  4.687E+00  2.343E-02  7.931E-02  3.761E+00  4.033E-02
  4.849E+00  2.425E-02  8.352E-02  3.717E+00  3.986E-02
  5.021E+00  2.510E-02  8.803E-02  3.840E+00  4.118E-02
  5.201E+00  2.601E-02  9.282E-02  3.812E+00  4.088E-02
  5.392E+00  2.696E-02  9.799E-02  3.899E+00  4.181E-02
  5.593E+00  2.797E-02  1.036E-01  3.965E+00  4.252E-02
  5.806E+00  2.903E-02  1.096E-01  3.959E+00  4.246E-02
  6.032E+00  3.016E-02  1.160E-01  4.076E+00  4.371E-02
  6.270E+00  3.135E-02  1.230E-01  4.080E+00  4.375E-02
  6.524E+00  3.262E-02  1.305E-01  4.105E+00  4.402E-02
  6.792E+00  3.396E-02  1.387E-01  4.154E+00  4.455E-02
  7.078E+00  3.539E-02  1.476E-01  4.209E+00  4.514E-02
  7.383E+00  3.691E-02  1.572E-01  4.203E+00  4.865E-02
  7.707E+00  3.854E-02  1.676E-01  4.282E+00  4.957E-02
  8.053E+00  4.027E-02  1.790E-01  4.242E+00  4.910E-02
  8.423E+00  4.212E-02  1.915E-01  4.324E+00  5.005E-02
  8.819E+00  4.410E-02  2.052E-01  4.379E+00  5.452E-02
  9.244E+00  4.622E-02  2.201E-01  4.355E+00  5.422E-02
  9.700E+00  4.850E-02  2.365E-01  4.355E+00  5.810E-02
  1.019E+01  1.019E-01  2.546E-01  4.287E+00  5.720E-02
  1.072E+01  1.072E-01  2.744E-01  4.200E+00  5.603E-02
  1.129E+01  1.129E-01  2.965E-01  4.259E+00  5.302E-02
  1.190E+01  1.190E-01  3.209E-01  4.262E+00  4.570E-02
  1.257E+01  1.257E-01  3.480E-01  4.226E+00  4.184E-02
  1.330E+01  1.330E-01  3.781E-01  4.040E+00  3.999E-02
  1.408E+01  1.408E-01  4.118E-01  3.929E+00  3.579E-02
  1.494E+01  1.494E-01  4.495E-01  3.859E+00  3.229E-02
  1.588E+01  1.588E-01  4.918E-01  3.759E+00  3.145E-02
  1.691E+01  1.691E-01  5.394E-01  3.654E+00  3.057E-02
  1.804E+01  1.804E-01  5.931E-01  3.561E+00  3.525E-02
  1.928E+01  1.928E-01  5.461E-01  3.540E+00  5.056E-02
  2.022E+01  2.022E-01  4.706E-01  3.350E+00  1.098E-01
ENDDATA             70
ENDSUBENT           81
SUBENT        12853020     840106              20050926       0000
BIB                  6          6
REACTION   (42-MO-0(N,TOT),,SIG)
N-SOURCE   (P-LI7) WHITE NEUTRON SPECTRUM
METHOD     (TOF)  3.32 METER FLIGHT PATH
SAMPLE     NATURAL MOLYBDENUM WITH A THICKNESS OF 0.1595 ATOMS/BAR
DETECTOR   BLACK NEUTRON DETECTOR 5 CM RADIUS AND 15 CM HIGH
ERR-ANALYS (ERR-S) STATISTICAL UNCERTAINTY
ENDBIB               6
NOCOMMON             0          0
DATA                 6          8
EN         EN-ERR     EN-RSL-FW  DATA       ERR-T      ERR-S
MEV        MEV        MEV        B          B          B
  4.700E-02  1.000E-03  4.000E-03  8.866E+00  3.218E-01  2.450E-01
  6.000E-02  1.000E-03  6.000E-03  9.230E+00  2.522E-01  1.648E-01
  7.800E-02  1.000E-03  9.000E-03  9.017E+00  2.176E-01  1.514E-01
  1.010E-01  1.000E-03  1.000E-02  9.553E+00  1.907E-01  1.281E-01
  1.240E-01  1.000E-03  1.000E-02  9.602E+00  1.843E-01  1.373E-01
  1.460E-01  1.000E-03  9.000E-03  9.329E+00  1.716E-01  1.361E-01
  1.680E-01  1.000E-03  9.000E-03  9.097E+00  1.472E-01  1.145E-01
  1.970E-01  1.000E-03  1.400E-02  9.412E+00  1.511E-01  1.241E-01
ENDDATA             10
ENDSUBENT           21
SUBENT        12853021     840106              20050926       0000
BIB                  6          6
REACTION   (42-MO-0(N,TOT),,SIG)
N-SOURCE   (P-LI7) MONOENERGETIC NEUTRONS
METHOD     (TOF)  3.32 METER FLIGHT PATH
SAMPLE     NATURAL MOLYBDENUM WITH A THICKNESS OF 0.1595 ATOMS/BAR
DETECTOR   BLACK NEUTRON DETECTOR 5 CM RADIUS AND 15 CM HIGH
ERR-ANALYS (ERR-S) STATISTICAL UNCERTAINTY
ENDBIB               6
NOCOMMON             0          0
DATA                 6         20
EN         EN-ERR     EN-RSL-FW  DATA       ERR-T      ERR-S
MEV        MEV        MEV        B          B          B
  2.150E-01  5.000E-03  2.400E-02  9.452E+00  1.315E-01  1.031E-01
  2.360E-01  5.000E-03  2.400E-02  9.160E+00  1.266E-01  1.027E-01
  2.600E-01  5.000E-03  2.400E-02  9.013E+00  1.317E-01  1.125E-01
  3.220E-01  5.000E-03  2.300E-02  8.815E+00  1.267E-01  1.117E-01
  3.650E-01  5.000E-03  2.300E-02  8.744E+00  1.531E-01  1.419E-01
  4.060E-01  5.000E-03  2.200E-02  8.385E+00  1.611E-01  1.517E-01
  4.500E-01  5.000E-03  2.200E-02  8.363E+00  1.701E-01  1.616E-01
  4.950E-01  5.000E-03  2.100E-02  8.445E+00  1.699E-01  1.614E-01
  5.500E-01  5.000E-03  4.500E-02  8.108E+00  1.496E-01  1.410E-01
  5.800E-01  5.000E-03  2.100E-02  8.030E+00  1.780E-01  1.711E-01
  6.000E-01  4.000E-03  4.400E-02  7.895E+00  1.488E-01  1.408E-01
  6.520E-01  4.000E-03  4.300E-02  7.745E+00  1.294E-01  1.205E-01
  7.000E-01  4.000E-03  4.200E-02  7.537E+00  1.288E-01  1.204E-01
  7.450E-01  4.000E-03  4.100E-02  7.313E+00  1.188E-01  1.103E-01
  7.860E-01  4.000E-03  4.000E-02  7.259E+00  1.470E-01  1.403E-01
  8.900E-01  4.000E-03  3.800E-02  6.963E+00  1.273E-01  1.202E-01
  9.500E-01  4.000E-03  3.700E-02  6.751E+00  1.364E-01  1.302E-01
  1.010E+00  4.000E-03  3.700E-02  6.482E+00  1.262E-01  1.200E-01
  1.320E+00  4.000E-03  3.500E-02  5.852E+00  1.155E-01  1.100E-01
  1.600E+00  3.000E-03  3.300E-02  5.463E+00  1.244E-01  1.200E-01
ENDDATA             22
ENDSUBENT           33
SUBENT        12853022     840106              20050926       0000
BIB                  5          6
REACTION   (42-MO-0(N,TOT),,SIG)
N-SOURCE   (D-LI7) WHITE NEUTRON SPECTRUM
METHOD     (TOF)  8.414 METER FLIGHT PATH
SAMPLE     NATURAL MOLYBDENUM WITH A THICKNESS OF 0.2552 ATOMS/BAR
DETECTOR   BLACK NEUTRON DETECTOR 7.62 CM RADIUS AND 17.78 CM HIGH
             WITH PULSE SHAPE DISCRIMINATION
ENDBIB               6
NOCOMMON             0          0
DATA                 5         68
EN         EN-ERR     EN-RSL-FW  DATA       ERR-T
MEV        MEV        MEV        B          B
  1.822E+00  9.112E-03  1.911E-02  5.236E+00  3.393E-02
  1.861E+00  9.303E-03  1.943E-02  5.192E+00  3.365E-02
  1.900E+00  9.501E-03  2.010E-02  5.136E+00  3.329E-02
  1.941E+00  9.705E-03  2.077E-02  5.120E+00  3.318E-02
  1.983E+00  9.916E-03  2.146E-02  5.019E+00  3.253E-02
  2.027E+00  1.013E-02  2.219E-02  5.009E+00  2.963E-02
  2.072E+00  1.036E-02  2.293E-02  4.948E+00  2.927E-02
  2.119E+00  1.059E-02  2.373E-02  4.894E+00  2.895E-02
  2.167E+00  1.083E-02  2.458E-02  4.827E+00  2.856E-02
  2.217E+00  1.108E-02  2.545E-02  4.774E+00  2.824E-02
  2.269E+00  1.134E-02  2.635E-02  4.729E+00  2.798E-02
  2.322E+00  1.161E-02  2.731E-02  4.673E+00  2.765E-02
  2.378E+00  1.189E-02  2.834E-02  4.644E+00  2.747E-02
  2.436E+00  1.218E-02  2.939E-02  4.596E+00  2.719E-02
  2.496E+00  1.248E-02  3.047E-02  4.540E+00  2.686E-02
  2.558E+00  1.279E-02  3.166E-02  4.487E+00  2.655E-02
  2.622E+00  1.311E-02  3.289E-02  4.445E+00  2.630E-02
  2.689E+00  1.345E-02  3.416E-02  4.372E+00  2.587E-02
  2.759E+00  1.379E-02  3.552E-02  4.326E+00  2.559E-02
  2.831E+00  1.416E-02  3.697E-02  4.266E+00  2.630E-02
  2.907E+00  1.453E-02  3.846E-02  4.217E+00  2.600E-02
  2.985E+00  1.493E-02  4.005E-02  4.187E+00  2.581E-02
  3.067E+00  1.533E-02  4.175E-02  4.150E+00  2.558E-02
  3.152E+00  1.576E-02  4.352E-02  4.103E+00  2.529E-02
  3.241E+00  1.620E-02  4.537E-02  4.066E+00  2.506E-02
  3.334E+00  1.667E-02  4.735E-02  4.017E+00  2.476E-02
  3.430E+00  1.715E-02  4.946E-02  3.966E+00  2.445E-02
  3.531E+00  1.766E-02  5.170E-02  3.949E+00  2.434E-02
  3.637E+00  1.819E-02  5.408E-02  3.929E+00  2.422E-02
  3.748E+00  1.874E-02  5.658E-02  3.886E+00  2.395E-02
  3.863E+00  1.932E-02  5.924E-02  3.892E+00  2.399E-02
  3.985E+00  1.992E-02  6.206E-02  3.856E+00  2.377E-02
  4.112E+00  2.056E-02  6.508E-02  3.836E+00  2.365E-02
  4.245E+00  2.123E-02  6.834E-02  3.841E+00  2.577E-02
  4.385E+00  2.193E-02  7.174E-02  3.839E+00  2.821E-02
  4.532E+00  2.266E-02  7.540E-02  3.811E+00  2.801E-02
  4.687E+00  2.343E-02  7.931E-02  3.813E+00  2.802E-02
  4.849E+00  2.425E-02  8.352E-02  3.823E+00  2.809E-02
  5.021E+00  2.510E-02  8.803E-02  3.862E+00  2.838E-02
  5.201E+00  2.601E-02  9.282E-02  3.845E+00  2.825E-02
  5.392E+00  2.696E-02  9.799E-02  3.942E+00  2.897E-02
  5.593E+00  2.797E-02  1.036E-01  3.980E+00  2.925E-02
  5.806E+00  2.903E-02  1.096E-01  4.004E+00  3.228E-02
  6.032E+00  3.016E-02  1.160E-01  4.061E+00  3.274E-02
  6.270E+00  3.135E-02  1.230E-01  4.097E+00  3.303E-02
  6.524E+00  3.262E-02  1.305E-01  4.122E+00  3.323E-02
  6.792E+00  3.396E-02  1.387E-01  4.143E+00  3.340E-02
  7.078E+00  3.539E-02  1.476E-01  4.208E+00  3.393E-02
  7.383E+00  3.691E-02  1.572E-01  4.257E+00  3.432E-02
  7.707E+00  3.854E-02  1.676E-01  4.305E+00  3.390E-02
  8.053E+00  4.027E-02  1.790E-01  4.305E+00  3.390E-02
  8.423E+00  4.212E-02  1.915E-01  4.356E+00  3.772E-02
  8.819E+00  4.410E-02  2.052E-01  4.384E+00  3.797E-02
  9.244E+00  4.622E-02  2.201E-01  4.355E+00  3.772E-02
  9.700E+00  4.850E-02  2.365E-01  4.357E+00  4.133E-02
  1.019E+01  1.019E-01  2.546E-01  4.335E+00  4.113E-02
  1.072E+01  1.072E-01  2.744E-01  4.339E+00  3.758E-02
  1.129E+01  1.129E-01  2.965E-01  4.308E+00  3.731E-02
  1.190E+01  1.190E-01  3.209E-01  4.256E+00  3.431E-02
  1.257E+01  1.257E-01  3.480E-01  4.237E+00  3.114E-02
  1.330E+01  1.330E-01  3.781E-01  4.128E+00  3.033E-02
  1.408E+01  1.408E-01  4.118E-01  4.045E+00  2.713E-02
  1.494E+01  1.494E-01  4.495E-01  3.955E+00  2.653E-02
  1.588E+01  1.588E-01  4.918E-01  3.850E+00  2.583E-02
  1.691E+01  1.691E-01  5.394E-01  3.705E+00  2.485E-02
  1.804E+01  1.804E-01  5.931E-01  3.653E+00  2.684E-02
  1.928E+01  1.928E-01  5.461E-01  3.565E+00  3.456E-02
  2.022E+01  2.022E-01  4.706E-01  3.389E+00  6.770E-02
ENDDATA             70
ENDSUBENT           81
SUBENT        12853023     840106              20050926       0000
BIB                  6          7
REACTION   (42-MO-0(N,TOT),,SIG)
N-SOURCE   (P-LI7) MONOENERGETIC NEUTRONS
METHOD     (TOF)  7.909 METER FLIGHT PATH
SAMPLE     NATURAL MOLYBDENUM WITH A THICKNESS OF 0.1595 ATOMS/BAR
DETECTOR   (SCIN) NE213 DETECTOR 2 CM THICK AND 12.7 CM
            IN DIAMETER
ERR-ANALYS (ERR-S) STATISTICAL UNCERTAINTY
ENDBIB               7
NOCOMMON             0          0
DATA                 6         24
EN         EN-ERR     EN-RSL-FW  DATA       ERR-T      ERR-S
MEV        MEV        MEV        B          B          B
  9.850E-01  7.000E-03  7.400E-02  6.696E+00  5.026E-02  3.004E-02
  1.032E+00  7.000E-03  7.200E-02  6.571E+00  5.620E-02  4.000E-02
  1.127E+00  7.000E-03  7.100E-02  6.402E+00  4.878E-02  3.000E-02
  1.222E+00  7.000E-03  6.800E-02  6.177E+00  4.772E-02  3.000E-02
  1.317E+00  7.000E-03  6.700E-02  6.012E+00  5.389E-02  4.000E-02
  1.411E+00  7.000E-03  6.600E-02  5.733E+00  4.567E-02  3.000E-02
  1.506E+00  6.000E-03  6.400E-02  5.658E+00  4.534E-02  3.000E-02
  1.600E+00  6.000E-03  6.200E-02  5.460E+00  5.173E-02  4.000E-02
  1.695E+00  6.000E-03  6.000E-02  5.378E+00  4.409E-02  3.000E-02
  1.790E+00  6.000E-03  5.800E-02  5.238E+00  4.348E-02  3.000E-02
  1.887E+00  6.000E-03  5.700E-02  5.093E+00  4.285E-02  3.000E-02
  1.984E+00  6.000E-03  5.600E-02  5.083E+00  4.281E-02  3.000E-02
  2.180E+00  5.000E-03  5.400E-02  4.764E+00  4.146E-02  3.000E-02
  2.377E+00  5.000E-03  5.200E-02  4.654E+00  4.101E-02  3.000E-02
  2.578E+00  5.000E-03  5.000E-02  4.414E+00  4.004E-02  3.000E-02
  2.783E+00  5.000E-03  4.900E-02  4.294E+00  3.957E-02  3.000E-02
  2.985E+00  5.000E-03  4.700E-02  4.200E+00  3.920E-02  3.000E-02
  3.188E+00  5.000E-03  4.500E-02  4.105E+00  3.883E-02  3.000E-02
  3.390E+00  4.000E-03  4.400E-02  3.975E+00  3.834E-02  3.000E-02
  3.587E+00  4.000E-03  4.200E-02  3.920E+00  3.814E-02  3.000E-02
  3.788E+00  4.000E-03  4.100E-02  3.837E+00  3.783E-02  3.000E-02
  3.990E+00  4.000E-03  3.900E-02  3.898E+00  3.806E-02  3.000E-02
  4.195E+00  4.000E-03  3.800E-02  3.825E+00  3.779E-02  3.000E-02
  4.400E+00  4.000E-03  3.700E-02  3.790E+00  4.603E-02  4.000E-02
ENDDATA             26
ENDSUBENT           38
SUBENT        12853024     840106              20050926       0000
BIB                  6          6
REACTION   (45-RH-103(N,TOT),,SIG)
N-SOURCE   (P-LI7) WHITE NEUTRON SPECTRUM
METHOD     (TOF)  3.32 METER FLIGHT PATH
SAMPLE     NATURAL RHODIUM WITH A THICKNESS OF 0.1479 ATOMS/BARN
DETECTOR   BLACK NEUTRON DETECTOR 5 CM RADIUS AND 15 CM HIGH
ERR-ANALYS (ERR-S) STATISTICAL UNCERTAINTY
ENDBIB               6
NOCOMMON             0          0
DATA                 6          9
EN         EN-ERR     EN-RSL-FW  DATA       ERR-T      ERR-S
MEV        MEV        MEV        B          B          B
  4.700E-02  1.000E-03  4.000E-03  7.768E+00  3.825E-01  3.757E-01
  6.000E-02  1.000E-03  6.000E-03  8.048E+00  2.106E-01  1.980E-01
  7.800E-02  1.000E-03  9.000E-03  8.112E+00  1.906E-01  1.770E-01
  1.010E-01  1.000E-03  1.000E-02  8.224E+00  1.977E-01  1.866E-01
  1.240E-01  1.000E-03  1.000E-02  8.318E+00  1.856E-01  1.756E-01
  1.460E-01  1.000E-03  9.000E-03  8.221E+00  1.737E-01  1.648E-01
  1.680E-01  1.000E-03  9.000E-03  8.288E+00  1.620E-01  1.540E-01
  1.970E-01  1.000E-03  1.400E-02  8.307E+00  1.599E-01  1.534E-01
  2.280E-01  2.000E-03  1.600E-02  8.245E+00  1.876E-01  1.834E-01
ENDDATA             11
ENDSUBENT           22
SUBENT        12853025     840106              20050926       0000
BIB                  6          6
REACTION   (45-RH-103(N,TOT),,SIG)
N-SOURCE   (P-LI7) MONOENERGETIC NEUTRONS
METHOD     (TOF)  3.32 METER FLIGHT PATH
SAMPLE     NATURAL RHODIUM WITH A THICKNESS OF 0.1479 ATOMS/BARN
DETECTOR   BLACK NEUTRON DETECTOR 5 CM RADIUS AND 15 CM HIGH
ERR-ANALYS (ERR-S) STATISTICAL UNCERTAINTY
ENDBIB               6
NOCOMMON             0          0
DATA                 6         21
EN         EN-ERR     EN-RSL-FW  DATA       ERR-T      ERR-S
MEV        MEV        MEV        B          B          B
  2.150E-01  5.000E-03  2.400E-02  8.298E+00  1.377E-01  1.326E-01
  2.360E-01  5.000E-03  2.400E-02  8.217E+00  1.183E-01  1.120E-01
  2.600E-01  5.000E-03  2.400E-02  8.133E+00  1.072E-01  1.015E-01
  3.220E-01  5.000E-03  2.300E-02  8.101E+00  1.246E-01  1.212E-01
  3.650E-01  5.000E-03  2.300E-02  7.886E+00  1.437E-01  1.411E-01
  4.060E-01  5.000E-03  2.200E-02  7.875E+00  1.334E-01  1.309E-01
  4.500E-01  5.000E-03  2.200E-02  7.513E+00  1.726E-01  1.709E-01
  4.950E-01  5.000E-03  2.100E-02  7.594E+00  1.624E-01  1.607E-01
  5.500E-01  5.000E-03  4.500E-02  7.478E+00  1.622E-01  1.605E-01
  5.800E-01  5.000E-03  2.100E-02  7.335E+00  1.620E-01  1.605E-01
  6.000E-01  4.000E-03  4.400E-02  7.484E+00  1.621E-01  1.604E-01
  6.520E-01  4.000E-03  4.300E-02  7.310E+00  1.421E-01  1.403E-01
  7.000E-01  4.000E-03  4.200E-02  7.198E+00  1.518E-01  1.503E-01
  7.450E-01  4.000E-03  4.100E-02  7.136E+00  1.025E-01  1.002E-01
  7.860E-01  4.000E-03  4.000E-02  6.894E+00  8.279E-02  8.013E-02
  8.380E-01  4.000E-03  3.900E-02  6.823E+00  8.272E-02  8.012E-02
  8.900E-01  4.000E-03  3.800E-02  6.763E+00  8.266E-02  8.011E-02
  9.500E-01  4.000E-03  3.700E-02  6.632E+00  8.256E-02  8.011E-02
  1.010E+00  4.000E-03  3.700E-02  6.483E+00  8.233E-02  8.000E-02
  1.320E+00  4.000E-03  3.500E-02  6.042E+00  8.203E-02  8.000E-02
  1.600E+00  3.000E-03  3.300E-02  5.542E+00  8.171E-02  8.000E-02
ENDDATA             23
ENDSUBENT           34
SUBENT        12853026     840106              20050926       0000
BIB                  5          6
REACTION   (45-RH-103(N,TOT),,SIG)
N-SOURCE   (D-LI7) WHITE NEUTRON SPECTRUM
METHOD     (TOF)  8.414 METER FLIGHT PATH
SAMPLE     NATURAL RHODIUM WITH A THICKNESS OF 0.1479 ATOMS/BARN
DETECTOR   BLACK NEUTRON DETECTOR 7.62 CM RADIUS AND 17.78 CM HIGH
             WITH PULSE SHAPE DISCRIMINATION
ENDBIB               6
NOCOMMON             0          0
DATA                 5         66
EN         EN-ERR     EN-RSL-FW  DATA       ERR-T
MEV        MEV        MEV        B          B
  1.820E+00  9.100E-03  1.868E-02  5.378E+00  4.336E-02
  1.857E+00  9.287E-03  1.896E-02  5.307E+00  4.279E-02
  1.896E+00  9.479E-03  1.957E-02  5.285E+00  4.261E-02
  1.936E+00  9.678E-03  2.021E-02  5.243E+00  4.227E-02
  1.977E+00  9.883E-03  2.087E-02  5.173E+00  4.171E-02
  2.019E+00  1.010E-02  2.160E-02  5.122E+00  4.129E-02
  2.063E+00  1.032E-02  2.236E-02  5.109E+00  3.754E-02
  2.109E+00  1.054E-02  2.312E-02  5.125E+00  3.766E-02
  2.156E+00  1.078E-02  2.393E-02  4.961E+00  3.646E-02
  2.204E+00  1.102E-02  2.481E-02  4.922E+00  3.617E-02
  2.255E+00  1.127E-02  2.571E-02  4.887E+00  3.591E-02
  2.307E+00  1.154E-02  2.663E-02  4.882E+00  3.588E-02
  2.361E+00  1.181E-02  2.762E-02  4.816E+00  3.539E-02
  2.418E+00  1.209E-02  2.867E-02  4.776E+00  3.510E-02
  2.476E+00  1.238E-02  2.973E-02  4.752E+00  3.492E-02
  2.536E+00  1.268E-02  3.086E-02  4.701E+00  3.455E-02
  2.599E+00  1.300E-02  3.209E-02  4.687E+00  3.444E-02
  2.665E+00  1.332E-02  3.338E-02  4.622E+00  3.268E-02
  2.733E+00  1.366E-02  3.469E-02  4.512E+00  3.190E-02
  2.804E+00  1.402E-02  3.609E-02  4.513E+00  3.191E-02
  2.877E+00  1.439E-02  3.758E-02  4.468E+00  3.159E-02
  2.954E+00  1.477E-02  3.916E-02  4.390E+00  3.104E-02
  3.034E+00  1.517E-02  4.078E-02  4.357E+00  3.081E-02
  3.117E+00  1.559E-02  4.253E-02  4.285E+00  3.030E-02
  3.204E+00  1.602E-02  4.440E-02  4.255E+00  3.009E-02
  3.295E+00  1.647E-02  4.635E-02  4.213E+00  2.979E-02
  3.389E+00  1.695E-02  4.843E-02  4.183E+00  2.958E-02
  3.488E+00  1.744E-02  5.063E-02  4.144E+00  2.930E-02
  3.592E+00  1.796E-02  5.298E-02  4.108E+00  2.905E-02
  3.700E+00  1.850E-02  5.546E-02  4.108E+00  2.905E-02
  3.814E+00  1.907E-02  5.809E-02  4.070E+00  2.878E-02
  3.933E+00  1.966E-02  6.095E-02  4.052E+00  3.112E-02
  4.058E+00  2.029E-02  6.392E-02  4.061E+00  3.119E-02
  4.188E+00  2.094E-02  6.710E-02  4.104E+00  3.434E-02
  4.326E+00  2.163E-02  7.053E-02  4.086E+00  3.723E-02
  4.470E+00  2.235E-02  7.417E-02  4.069E+00  4.028E-02
  4.623E+00  2.311E-02  7.811E-02  4.061E+00  4.020E-02
  4.783E+00  2.391E-02  8.231E-02  4.050E+00  4.009E-02
  4.952E+00  2.476E-02  8.680E-02  4.061E+00  4.020E-02
  5.130E+00  2.565E-02  9.163E-02  4.173E+00  4.131E-02
  5.318E+00  2.659E-02  9.685E-02  4.060E+00  4.354E-02
  5.518E+00  2.759E-02  1.025E-01  4.116E+00  4.414E-02
  5.728E+00  2.864E-02  1.085E-01  4.125E+00  4.424E-02
  5.951E+00  2.976E-02  1.150E-01  4.202E+00  4.506E-02
  6.188E+00  3.094E-02  1.221E-01  4.206E+00  4.510E-02
  6.440E+00  3.220E-02  1.298E-01  4.222E+00  4.528E-02
  6.707E+00  3.354E-02  1.381E-01  4.327E+00  4.640E-02
  6.992E+00  3.496E-02  1.472E-01  4.239E+00  4.546E-02
  7.296E+00  3.648E-02  1.570E-01  4.338E+00  4.652E-02
  7.620E+00  3.810E-02  1.678E-01  4.340E+00  5.024E-02
  7.967E+00  3.984E-02  1.796E-01  4.375E+00  5.064E-02
  8.339E+00  4.170E-02  1.926E-01  4.456E+00  5.158E-02
  8.738E+00  4.369E-02  2.067E-01  4.454E+00  5.545E-02
  9.166E+00  4.583E-02  2.224E-01  4.583E+00  5.706E-02
  9.627E+00  4.814E-02  2.397E-01  4.457E+00  5.946E-02
  1.012E+01  1.012E-01  2.588E-01  4.522E+00  6.033E-02
  1.066E+01  1.066E-01  2.800E-01  4.503E+00  6.008E-02
  1.125E+01  1.125E-01  3.037E-01  4.373E+00  5.444E-02
  1.188E+01  1.188E-01  3.301E-01  4.470E+00  5.174E-02
  1.257E+01  1.257E-01  3.597E-01  4.397E+00  4.353E-02
  1.332E+01  1.332E-01  3.930E-01  4.297E+00  4.254E-02
  1.414E+01  1.414E-01  4.305E-01  4.223E+00  3.847E-02
  1.504E+01  1.504E-01  4.729E-01  4.197E+00  3.511E-02
  1.603E+01  1.603E-01  5.213E-01  4.076E+00  3.410E-02
  1.712E+01  1.712E-01  5.765E-01  3.996E+00  3.343E-02
  1.834E+01  1.834E-01  6.399E-01  3.896E+00  3.549E-02
ENDDATA             68
ENDSUBENT           79
SUBENT        12853027     840106              20050926       0000
BIB                  6          6
REACTION   (46-PD-0(N,TOT),,SIG)
N-SOURCE   (P-LI7) WHITE NEUTRON SPECTRUM
METHOD     (TOF)  3.32 METER FLIGHT PATH
SAMPLE     NATURAL PALLADIUM WITH A THICKNESS OF 0.1376 ATOMS/BARN
DETECTOR   BLACK NEUTRON DETECTOR 5 CM RADIUS AND 15 CM HIGH
ERR-ANALYS (ERR-S) STATISTICAL UNCERTAINTY
ENDBIB               6
NOCOMMON             0          0
DATA                 6          9
EN         EN-ERR     EN-RSL-FW  DATA       ERR-T      ERR-S
MEV        MEV        MEV        B          B          B
  4.700E-02  1.000E-03  4.000E-03  8.200E+00  4.241E-01  4.126E-01
  6.000E-02  1.000E-03  6.000E-03  8.292E+00  2.385E-01  2.209E-01
  7.800E-02  1.000E-03  9.000E-03  8.188E+00  2.233E-01  2.091E-01
  1.010E-01  1.000E-03  1.000E-02  8.166E+00  2.096E-01  1.976E-01
  1.240E-01  1.000E-03  1.000E-02  8.318E+00  2.070E-01  1.968E-01
  1.460E-01  1.000E-03  9.000E-03  8.063E+00  1.944E-01  1.858E-01
  1.680E-01  1.000E-03  9.000E-03  8.122E+00  1.927E-01  1.852E-01
  1.970E-01  1.000E-03  1.400E-02  8.227E+00  1.811E-01  1.744E-01
  2.280E-01  2.000E-03  1.600E-02  8.201E+00  2.091E-01  2.045E-01
ENDDATA             11
ENDSUBENT           22
SUBENT        12853028     840106              20050926       0000
BIB                  6          6
REACTION   (46-PD-0(N,TOT),,SIG)
N-SOURCE   (P-LI7) MONOENERGETIC NEUTRONS
METHOD     (TOF)  3.32 METER FLIGHT PATH
SAMPLE     NATURAL PALLADIUM WITH A THICKNESS OF 0.1376 ATOMS/BARN
DETECTOR   BLACK NEUTRON DETECTOR 5 CM RADIUS AND 15 CM HIGH
ERR-ANALYS (ERR-S) STATISTICAL UNCERTAINTY
ENDBIB               6
NOCOMMON             0          0
DATA                 6         21
EN         EN-ERR     EN-RSL-FW  DATA       ERR-T      ERR-S
MEV        MEV        MEV        B          B          B
  2.150E-01  5.000E-03  2.400E-02  8.048E+00  1.405E-01  1.331E-01
  2.360E-01  5.000E-03  2.400E-02  8.062E+00  1.201E-01  1.124E-01
  2.600E-01  5.000E-03  2.400E-02  8.412E+00  1.194E-01  1.121E-01
  3.220E-01  5.000E-03  2.300E-02  8.069E+00  1.362E-01  1.319E-01
  3.650E-01  5.000E-03  2.300E-02  7.839E+00  1.450E-01  1.418E-01
  4.060E-01  5.000E-03  2.200E-02  7.804E+00  1.444E-01  1.415E-01
  4.500E-01  5.000E-03  2.200E-02  7.810E+00  1.836E-01  1.816E-01
  4.950E-01  5.000E-03  2.100E-02  7.566E+00  1.830E-01  1.813E-01
  5.500E-01  5.000E-03  4.500E-02  7.496E+00  1.728E-01  1.710E-01
  5.800E-01  5.000E-03  2.100E-02  7.220E+00  1.725E-01  1.709E-01
  6.000E-01  4.000E-03  4.400E-02  7.348E+00  1.724E-01  1.709E-01
  6.520E-01  4.000E-03  4.300E-02  7.302E+00  1.524E-01  1.506E-01
  7.000E-01  4.000E-03  4.200E-02  7.237E+00  1.522E-01  1.505E-01
  7.450E-01  4.000E-03  4.100E-02  7.124E+00  1.124E-01  1.103E-01
  7.860E-01  4.000E-03  4.000E-02  7.000E+00  9.274E-02  9.025E-02
  8.380E-01  4.000E-03  3.900E-02  6.807E+00  9.255E-02  9.021E-02
  8.900E-01  4.000E-03  3.800E-02  6.795E+00  9.250E-02  9.018E-02
  9.500E-01  4.000E-03  3.700E-02  6.752E+00  8.269E-02  8.014E-02
  1.010E+00  4.000E-03  3.700E-02  6.641E+00  9.218E-02  9.000E-02
  1.320E+00  4.000E-03  3.500E-02  6.191E+00  8.213E-02  8.000E-02
  1.600E+00  3.000E-03  3.300E-02  5.681E+00  9.160E-02  9.000E-02
ENDDATA             23
ENDSUBENT           34
SUBENT        12853029     840106              20050926       0000
BIB                  5          6
REACTION   (46-PD-0(N,TOT),,SIG)
N-SOURCE   (D-LI7) WHITE NEUTRON SPECTRUM
METHOD     (TOF)  8.414 METER FLIGHT PATH
SAMPLE     NATURAL PALLADIUM WITH A THICKNESS OF 0.1376 ATOMS/BARN
DETECTOR   BLACK NEUTRON DETECTOR 7.62 CM RADIUS AND 17.78 CM HIGH
             WITH PULSE SHAPE DISCRIMINATION
ENDBIB               6
NOCOMMON             0          0
DATA                 5         67
EN         EN-ERR     EN-RSL-FW  DATA       ERR-T
MEV        MEV        MEV        B          B
  1.820E+00  9.100E-03  1.868E-02  5.466E+00  4.827E-02
  1.857E+00  9.287E-03  1.896E-02  5.429E+00  4.377E-02
  1.896E+00  9.479E-03  1.957E-02  5.435E+00  4.382E-02
  1.936E+00  9.678E-03  2.021E-02  5.395E+00  4.350E-02
  1.977E+00  9.883E-03  2.087E-02  5.353E+00  4.316E-02
  2.019E+00  1.010E-02  2.160E-02  5.264E+00  4.244E-02
  2.063E+00  1.032E-02  2.236E-02  5.272E+00  4.250E-02
  2.109E+00  1.054E-02  2.312E-02  5.157E+00  3.790E-02
  2.156E+00  1.078E-02  2.393E-02  5.102E+00  3.749E-02
  2.204E+00  1.102E-02  2.481E-02  5.063E+00  3.721E-02
  2.255E+00  1.127E-02  2.571E-02  5.021E+00  3.690E-02
  2.307E+00  1.154E-02  2.663E-02  4.994E+00  3.836E-02
  2.361E+00  1.181E-02  2.762E-02  4.885E+00  3.752E-02
  2.418E+00  1.209E-02  2.867E-02  4.916E+00  3.776E-02
  2.476E+00  1.238E-02  2.973E-02  4.857E+00  3.731E-02
  2.536E+00  1.268E-02  3.086E-02  4.809E+00  3.694E-02
  2.599E+00  1.300E-02  3.209E-02  4.727E+00  3.631E-02
  2.665E+00  1.332E-02  3.338E-02  4.721E+00  3.626E-02
  2.733E+00  1.366E-02  3.469E-02  4.632E+00  3.558E-02
  2.804E+00  1.402E-02  3.609E-02  4.595E+00  3.529E-02
  2.877E+00  1.439E-02  3.758E-02  4.512E+00  3.466E-02
  2.954E+00  1.477E-02  3.916E-02  4.479E+00  3.440E-02
  3.034E+00  1.517E-02  4.078E-02  4.400E+00  3.380E-02
  3.117E+00  1.559E-02  4.253E-02  4.340E+00  3.334E-02
  3.204E+00  1.602E-02  4.440E-02  4.317E+00  3.316E-02
  3.295E+00  1.647E-02  4.635E-02  4.275E+00  3.284E-02
  3.389E+00  1.695E-02  4.843E-02  4.255E+00  3.268E-02
  3.488E+00  1.744E-02  5.063E-02  4.200E+00  3.226E-02
  3.592E+00  1.796E-02  5.298E-02  4.149E+00  2.934E-02
  3.700E+00  1.850E-02  5.546E-02  4.130E+00  2.920E-02
  3.814E+00  1.907E-02  5.809E-02  4.122E+00  2.915E-02
  3.933E+00  1.966E-02  6.095E-02  4.094E+00  3.145E-02
  4.058E+00  2.029E-02  6.392E-02  4.126E+00  3.169E-02
  4.188E+00  2.094E-02  6.710E-02  4.133E+00  3.483E-02
  4.326E+00  2.163E-02  7.053E-02  4.081E+00  4.061E-02
  4.470E+00  2.235E-02  7.417E-02  4.083E+00  4.063E-02
  4.623E+00  2.311E-02  7.811E-02  4.110E+00  4.089E-02
  4.783E+00  2.391E-02  8.231E-02  4.148E+00  4.127E-02
  4.952E+00  2.476E-02  8.680E-02  4.106E+00  4.422E-02
  5.130E+00  2.565E-02  9.163E-02  4.096E+00  4.412E-02
  5.318E+00  2.659E-02  9.685E-02  4.086E+00  4.401E-02
  5.518E+00  2.759E-02  1.025E-01  4.088E+00  4.403E-02
  5.728E+00  2.864E-02  1.085E-01  4.108E+00  4.424E-02
  5.951E+00  2.976E-02  1.150E-01  4.213E+00  4.538E-02
  6.188E+00  3.094E-02  1.221E-01  4.177E+00  4.853E-02
  6.440E+00  3.220E-02  1.298E-01  4.320E+00  5.019E-02
  6.707E+00  3.354E-02  1.381E-01  4.332E+00  5.033E-02
  6.992E+00  3.496E-02  1.472E-01  4.238E+00  4.979E-02
  7.296E+00  3.648E-02  1.570E-01  4.360E+00  5.122E-02
  7.620E+00  3.810E-02  1.678E-01  4.384E+00  5.150E-02
  7.967E+00  3.984E-02  1.796E-01  4.368E+00  5.508E-02
  8.339E+00  4.170E-02  1.926E-01  4.393E+00  5.539E-02
  8.738E+00  4.369E-02  2.067E-01  4.412E+00  5.563E-02
  9.166E+00  4.583E-02  2.224E-01  4.502E+00  6.074E-02
  9.627E+00  4.814E-02  2.397E-01  4.378E+00  6.374E-02
  1.012E+01  1.012E-01  2.588E-01  4.490E+00  6.538E-02
  1.066E+01  1.066E-01  2.800E-01  4.520E+00  6.181E-02
  1.125E+01  1.125E-01  3.037E-01  4.442E+00  5.993E-02
  1.188E+01  1.188E-01  3.301E-01  4.475E+00  5.257E-02
  1.257E+01  1.257E-01  3.597E-01  4.442E+00  4.784E-02
  1.332E+01  1.332E-01  3.930E-01  4.383E+00  4.361E-02
  1.414E+01  1.414E-01  4.305E-01  4.337E+00  3.975E-02
  1.504E+01  1.504E-01  4.729E-01  4.270E+00  3.914E-02
  1.603E+01  1.603E-01  5.213E-01  4.149E+00  3.496E-02
  1.712E+01  1.712E-01  5.765E-01  4.039E+00  3.403E-02
  1.834E+01  1.834E-01  6.399E-01  3.988E+00  3.655E-02
  1.968E+01  1.968E-01  7.132E-01  3.893E+00  4.909E-02
ENDDATA             69
ENDSUBENT           80
SUBENT        12853030     840106              20050926       0000
BIB                  6          6
REACTION   (47-AG-0(N,TOT),,SIG)
N-SOURCE   (P-LI7) WHITE NEUTRON SPECTRUM
METHOD     (TOF)  3.32 METER FLIGHT PATH
SAMPLE     NATURAL SILVER WITH A THICKNESS OF 0.1092 ATOMS/BARN
DETECTOR   BLACK NEUTRON DETECTOR 5 CM RADIUS AND 15 CM HIGH
ERR-ANALYS (ERR-S) STATISTICAL UNCERTAINTY
ENDBIB               6
NOCOMMON             0          0
DATA                 6          9
EN         EN-ERR     EN-RSL-FW  DATA       ERR-T      ERR-S
MEV        MEV        MEV        B          B          B
  4.700E-02  1.000E-03  4.000E-03  7.727E+00  5.002E-01  4.992E-01
  6.000E-02  1.000E-03  6.000E-03  7.844E+00  2.863E-01  2.847E-01
  7.800E-02  1.000E-03  9.000E-03  7.766E+00  2.248E-01  2.232E-01
  1.010E-01  1.000E-03  1.000E-02  7.923E+00  2.041E-01  2.025E-01
  1.240E-01  1.000E-03  1.000E-02  7.962E+00  2.137E-01  2.123E-01
  1.460E-01  1.000E-03  9.000E-03  7.933E+00  2.032E-01  2.020E-01
  1.680E-01  1.000E-03  9.000E-03  8.014E+00  1.929E-01  1.917E-01
  1.970E-01  1.000E-03  1.400E-02  7.953E+00  1.724E-01  1.713E-01
  2.280E-01  2.000E-03  1.600E-02  7.963E+00  2.222E-01  2.213E-01
ENDDATA             11
ENDSUBENT           22
SUBENT        12853031     840106              20050926       0000
BIB                  6          6
REACTION   (47-AG-0(N,TOT),,SIG)
N-SOURCE   (P-LI7) MONOENERGETIC NEUTRONS
METHOD     (TOF)  3.32 METER FLIGHT PATH
SAMPLE     NATURAL SILVER WITH A THICKNESS OF 0.1092 ATOMS/BARN
DETECTOR   BLACK NEUTRON DETECTOR 5 CM RADIUS AND 15 CM HIGH
ERR-ANALYS (ERR-S) STATISTICAL UNCERTAINTY
ENDBIB               6
NOCOMMON             0          0
DATA                 6         21
EN         EN-ERR     EN-RSL-FW  DATA       ERR-T      ERR-S
MEV        MEV        MEV        B          B          B
  2.150E-01  5.000E-03  2.400E-02  7.766E+00  1.522E-01  1.510E-01
  2.360E-01  5.000E-03  2.400E-02  7.881E+00  1.320E-01  1.308E-01
  2.600E-01  5.000E-03  2.400E-02  8.075E+00  1.319E-01  1.306E-01
  3.220E-01  5.000E-03  2.300E-02  8.042E+00  1.515E-01  1.505E-01
  3.650E-01  5.000E-03  2.300E-02  7.497E+00  1.812E-01  1.805E-01
  4.060E-01  5.000E-03  2.200E-02  7.684E+00  1.812E-01  1.805E-01
  4.500E-01  5.000E-03  2.200E-02  7.482E+00  2.210E-01  2.205E-01
  4.950E-01  5.000E-03  2.100E-02  7.421E+00  2.210E-01  2.204E-01
  5.500E-01  5.000E-03  4.500E-02  7.346E+00  2.205E-01  2.200E-01
  5.800E-01  5.000E-03  2.100E-02  7.216E+00  2.105E-01  2.100E-01
  6.000E-01  4.000E-03  4.400E-02  7.196E+00  2.205E-01  2.200E-01
  6.520E-01  4.000E-03  4.300E-02  7.176E+00  1.905E-01  1.900E-01
  7.000E-01  4.000E-03  4.200E-02  6.956E+00  2.005E-01  2.000E-01
  7.450E-01  4.000E-03  4.100E-02  6.856E+00  1.407E-01  1.400E-01
  7.860E-01  4.000E-03  4.000E-02  6.836E+00  1.108E-01  1.100E-01
  8.380E-01  4.000E-03  3.900E-02  6.706E+00  1.108E-01  1.100E-01
  8.900E-01  4.000E-03  3.800E-02  6.686E+00  1.108E-01  1.100E-01
  9.500E-01  4.000E-03  3.700E-02  6.526E+00  1.108E-01  1.100E-01
  1.010E+00  4.000E-03  3.700E-02  6.506E+00  1.108E-01  1.100E-01
  1.320E+00  4.000E-03  3.500E-02  6.076E+00  1.107E-01  1.100E-01
  1.600E+00  3.000E-03  3.300E-02  5.617E+00  1.106E-01  1.100E-01
ENDDATA             23
ENDSUBENT           34
SUBENT        12853032     840106              20050926       0000
BIB                  5          6
REACTION   (47-AG-0(N,TOT),,SIG)
N-SOURCE   (D-LI7) WHITE NEUTRON SPECTRUM
METHOD     (TOF)  8.414 METER FLIGHT PATH
SAMPLE     NATURAL SILVER WITH A THICKNESS OF 0.1092 ATOMS/BARN
DETECTOR   BLACK NEUTRON DETECTOR 7.62 CM RADIUS AND 17.78 CM HIGH
             WITH PULSE SHAPE DISCRIMINATION
ENDBIB               6
NOCOMMON             0          0
DATA                 5         66
EN         EN-ERR     EN-RSL-FW  DATA       ERR-T
MEV        MEV        MEV        B          B
  1.820E+00  9.100E-03  1.868E-02  5.483E+00  8.993E-02
  1.857E+00  9.287E-03  1.896E-02  5.431E+00  8.518E-02
  1.896E+00  9.479E-03  1.957E-02  5.459E+00  8.562E-02
  1.936E+00  9.678E-03  2.021E-02  5.373E+00  8.427E-02
  1.977E+00  9.883E-03  2.087E-02  5.235E+00  8.211E-02
  2.019E+00  1.010E-02  2.160E-02  5.146E+00  7.719E-02
  2.063E+00  1.032E-02  2.236E-02  5.232E+00  7.848E-02
  2.109E+00  1.054E-02  2.312E-02  5.147E+00  7.721E-02
  2.156E+00  1.078E-02  2.393E-02  5.024E+00  7.536E-02
  2.204E+00  1.102E-02  2.481E-02  5.029E+00  7.218E-02
  2.255E+00  1.127E-02  2.571E-02  4.956E+00  7.113E-02
  2.307E+00  1.154E-02  2.663E-02  4.995E+00  7.169E-02
  2.361E+00  1.181E-02  2.762E-02  4.886E+00  7.013E-02
  2.418E+00  1.209E-02  2.867E-02  4.859E+00  6.974E-02
  2.476E+00  1.238E-02  2.973E-02  4.794E+00  6.881E-02
  2.536E+00  1.268E-02  3.086E-02  4.746E+00  6.812E-02
  2.599E+00  1.300E-02  3.209E-02  4.792E+00  6.878E-02
  2.665E+00  1.332E-02  3.338E-02  4.682E+00  6.437E-02
  2.733E+00  1.366E-02  3.469E-02  4.564E+00  6.274E-02
  2.804E+00  1.402E-02  3.609E-02  4.575E+00  6.290E-02
  2.877E+00  1.439E-02  3.758E-02  4.557E+00  6.265E-02
  2.954E+00  1.477E-02  3.916E-02  4.449E+00  6.554E-02
  3.034E+00  1.517E-02  4.078E-02  4.375E+00  6.445E-02
  3.117E+00  1.559E-02  4.253E-02  4.347E+00  6.404E-02
  3.204E+00  1.602E-02  4.440E-02  4.280E+00  6.305E-02
  3.295E+00  1.647E-02  4.635E-02  4.273E+00  6.295E-02
  3.389E+00  1.695E-02  4.843E-02  4.184E+00  6.163E-02
  3.488E+00  1.744E-02  5.063E-02  4.197E+00  5.935E-02
  3.592E+00  1.796E-02  5.298E-02  4.111E+00  5.814E-02
  3.700E+00  1.850E-02  5.546E-02  4.198E+00  5.937E-02
  3.814E+00  1.907E-02  5.809E-02  4.116E+00  5.821E-02
  3.933E+00  1.966E-02  6.095E-02  4.110E+00  6.054E-02
  4.058E+00  2.029E-02  6.392E-02  4.170E+00  6.406E-02
  4.188E+00  2.094E-02  6.710E-02  4.246E+00  6.820E-02
  4.326E+00  2.163E-02  7.053E-02  4.130E+00  7.537E-02
  4.470E+00  2.235E-02  7.417E-02  4.209E+00  8.008E-02
  4.623E+00  2.311E-02  7.811E-02  4.180E+00  7.953E-02
  4.783E+00  2.391E-02  8.231E-02  4.108E+00  8.144E-02
  4.952E+00  2.476E-02  8.680E-02  4.078E+00  8.084E-02
  5.130E+00  2.565E-02  9.163E-02  4.107E+00  8.419E-02
  5.318E+00  2.659E-02  9.685E-02  4.153E+00  8.233E-02
  5.518E+00  2.759E-02  1.025E-01  4.119E+00  8.502E-02
  5.728E+00  2.864E-02  1.085E-01  4.143E+00  8.551E-02
  5.951E+00  2.976E-02  1.150E-01  4.264E+00  8.801E-02
  6.188E+00  3.094E-02  1.221E-01  4.211E+00  9.041E-02
  6.440E+00  3.220E-02  1.298E-01  4.299E+00  9.230E-02
  6.707E+00  3.354E-02  1.381E-01  4.231E+00  9.145E-02
  6.992E+00  3.496E-02  1.472E-01  4.398E+00  9.443E-02
  7.296E+00  3.648E-02  1.570E-01  4.373E+00  9.564E-02
  7.620E+00  3.810E-02  1.678E-01  4.395E+00  9.683E-02
  7.967E+00  3.984E-02  1.796E-01  4.409E+00  1.025E-01
  8.339E+00  4.170E-02  1.926E-01  4.383E+00  1.019E-01
  8.738E+00  4.369E-02  2.067E-01  4.475E+00  1.079E-01
  9.166E+00  4.583E-02  2.224E-01  4.608E+00  1.119E-01
  9.627E+00  4.814E-02  2.397E-01  4.597E+00  1.173E-01
  1.012E+01  1.012E-01  2.588E-01  4.596E+00  1.183E-01
  1.066E+01  1.066E-01  2.800E-01  4.584E+00  1.140E-01
  1.125E+01  1.125E-01  3.037E-01  4.481E+00  1.080E-01
  1.188E+01  1.188E-01  3.301E-01  4.492E+00  9.774E-02
  1.257E+01  1.257E-01  3.597E-01  4.454E+00  8.987E-02
  1.332E+01  1.332E-01  3.930E-01  4.422E+00  8.413E-02
  1.414E+01  1.414E-01  4.305E-01  4.423E+00  7.737E-02
  1.504E+01  1.504E-01  4.729E-01  4.272E+00  7.161E-02
  1.603E+01  1.603E-01  5.213E-01  4.188E+00  6.727E-02
  1.712E+01  1.712E-01  5.765E-01  4.084E+00  6.846E-02
  1.834E+01  1.834E-01  6.399E-01  4.006E+00  7.310E-02
ENDDATA             68
ENDSUBENT           79
SUBENT        12853033     840106              20050926       0000
BIB                  6          8
REACTION   (47-AG-0(N,TOT),,SIG)
N-SOURCE   (P-LI7) MONOENERGETIC NEUTRONS
METHOD     (TOF)  7.909 METER FLIGHT PATH
SAMPLE     NATURAL SILVER WITH A THICKNESS OF 0.0702 AND
            0.1092 ATOMS/BARN
DETECTOR   (SCIN) NE213 DETECTOR 2 CM THICK AND 12.7 CM
            IN DIAMETER
ERR-ANALYS (ERR-S) STATISTICAL UNCERTAINTY
ENDBIB               8
NOCOMMON             0          0
DATA                 6         24
EN         EN-ERR     EN-RSL-FW  DATA       ERR-T      ERR-S
MEV        MEV        MEV        B          B          B
  9.850E-01  7.000E-03  7.400E-02  6.411E+00  5.162E-02  5.000E-02
  1.032E+00  7.000E-03  7.200E-02  6.381E+00  5.160E-02  5.000E-02
  1.127E+00  7.000E-03  7.100E-02  6.331E+00  4.196E-02  4.000E-02
  1.222E+00  7.000E-03  6.800E-02  6.066E+00  4.180E-02  4.000E-02
  1.317E+00  7.000E-03  6.700E-02  5.986E+00  5.142E-02  5.000E-02
  1.411E+00  7.000E-03  6.600E-02  5.911E+00  5.138E-02  5.000E-02
  1.506E+00  6.000E-03  6.400E-02  5.851E+00  5.135E-02  5.000E-02
  1.600E+00  6.000E-03  6.200E-02  5.697E+00  6.107E-02  6.000E-02
  1.695E+00  6.000E-03  6.000E-02  5.567E+00  4.152E-02  4.000E-02
  1.790E+00  6.000E-03  5.800E-02  5.437E+00  4.145E-02  4.000E-02
  1.887E+00  6.000E-03  5.700E-02  5.327E+00  4.140E-02  4.000E-02
  1.984E+00  6.000E-03  5.600E-02  5.272E+00  4.137E-02  4.000E-02
  2.180E+00  5.000E-03  5.400E-02  4.987E+00  4.123E-02  4.000E-02
  2.377E+00  5.000E-03  5.200E-02  4.862E+00  4.117E-02  4.000E-02
  2.578E+00  5.000E-03  5.000E-02  4.587E+00  4.104E-02  4.000E-02
  2.783E+00  5.000E-03  4.900E-02  4.622E+00  4.106E-02  4.000E-02
  2.985E+00  5.000E-03  4.700E-02  4.497E+00  4.100E-02  4.000E-02
  3.188E+00  5.000E-03  4.500E-02  4.317E+00  4.092E-02  4.000E-02
  3.390E+00  4.000E-03  4.400E-02  4.182E+00  4.087E-02  4.000E-02
  3.587E+00  4.000E-03  4.200E-02  4.128E+00  4.084E-02  4.000E-02
  3.788E+00  4.000E-03  4.100E-02  4.142E+00  4.085E-02  4.000E-02
  3.990E+00  4.000E-03  3.900E-02  4.131E+00  4.085E-02  4.000E-02
  4.195E+00  4.000E-03  3.800E-02  4.086E+00  4.083E-02  4.000E-02
  4.400E+00  4.000E-03  3.700E-02  4.023E+00  5.064E-02  5.000E-02
ENDDATA             26
ENDSUBENT           39
SUBENT        12853034     840106              20050926       0000
BIB                  6          6
REACTION   (48-CD-0(N,TOT),,SIG)
N-SOURCE   (P-LI7) WHITE NEUTRON SPECTRUM
METHOD     (TOF)  3.32 METER FLIGHT PATH
SAMPLE     NATURAL CADMIUM WITH A THICKNESS OF 0.0730 ATOMS/BARN
DETECTOR   BLACK NEUTRON DETECTOR 5 CM RADIUS AND 15 CM HIGH
ERR-ANALYS (ERR-S) STATISTICAL UNCERTAINTY
ENDBIB               6
NOCOMMON             0          0
DATA                 6          8
EN         EN-ERR     EN-RSL-FW  DATA       ERR-T      ERR-S
MEV        MEV        MEV        B          B          B
  4.700E-02  1.000E-03  4.000E-03  7.229E+00  5.073E-01  5.049E-01
  6.000E-02  1.000E-03  6.000E-03  7.473E+00  2.914E-01  2.876E-01
  7.800E-02  1.000E-03  9.000E-03  7.448E+00  2.796E-01  2.764E-01
  1.010E-01  1.000E-03  1.000E-02  7.665E+00  2.983E-01  2.958E-01
  1.240E-01  1.000E-03  1.000E-02  7.682E+00  2.566E-01  2.542E-01
  1.460E-01  1.000E-03  9.000E-03  7.805E+00  2.657E-01  2.638E-01
  1.680E-01  1.000E-03  9.000E-03  7.814E+00  2.450E-01  2.431E-01
  1.970E-01  1.000E-03  1.400E-02  7.843E+00  2.747E-01  2.731E-01
ENDDATA             10
ENDSUBENT           21
SUBENT        12853035     840106              20050926       0000
BIB                  6          6
REACTION   (48-CD-0(N,TOT),,SIG)
N-SOURCE   (P-LI7) MONOENERGETIC NEUTRONS
METHOD     (TOF)  3.32 METER FLIGHT PATH
SAMPLE     NATURAL CADMIUM WITH A THICKNESS OF 0.0730 ATOMS/BARN
DETECTOR   BLACK NEUTRON DETECTOR 5 CM RADIUS AND 15 CM HIGH
ERR-ANALYS (ERR-S) STATISTICAL UNCERTAINTY
ENDBIB               6
NOCOMMON             0          0
DATA                 6         20
EN         EN-ERR     EN-RSL-FW  DATA       ERR-T      ERR-S
MEV        MEV        MEV        B          B          B
  2.150E-01  5.000E-03  2.400E-02  7.776E+00  1.842E-01  1.819E-01
  2.360E-01  5.000E-03  2.400E-02  7.790E+00  1.839E-01  1.818E-01
  2.600E-01  5.000E-03  2.400E-02  7.994E+00  2.238E-01  2.220E-01
  3.220E-01  5.000E-03  2.300E-02  7.819E+00  2.231E-01  2.216E-01
  3.650E-01  5.000E-03  2.300E-02  7.247E+00  3.027E-01  3.018E-01
  4.060E-01  5.000E-03  2.200E-02  7.340E+00  3.124E-01  3.115E-01
  4.500E-01  5.000E-03  2.200E-02  7.513E+00  3.421E-01  3.413E-01
  4.950E-01  5.000E-03  2.100E-02  7.626E+00  3.618E-01  3.611E-01
  5.500E-01  5.000E-03  4.500E-02  7.484E+00  3.008E-01  3.000E-01
  5.800E-01  5.000E-03  2.100E-02  7.285E+00  3.706E-01  3.700E-01
  6.000E-01  4.000E-03  4.400E-02  7.235E+00  3.108E-01  3.100E-01
  6.520E-01  4.000E-03  4.300E-02  7.455E+00  2.610E-01  2.600E-01
  7.000E-01  4.000E-03  4.200E-02  7.156E+00  2.709E-01  2.700E-01
  7.450E-01  4.000E-03  4.100E-02  7.305E+00  2.410E-01  2.400E-01
  7.860E-01  4.000E-03  4.000E-02  7.166E+00  3.008E-01  3.000E-01
  8.900E-01  4.000E-03  3.800E-02  7.006E+00  2.509E-01  2.500E-01
  9.500E-01  4.000E-03  3.700E-02  6.966E+00  2.908E-01  2.900E-01
  1.010E+00  4.000E-03  3.700E-02  6.697E+00  2.708E-01  2.700E-01
  1.320E+00  4.000E-03  3.500E-02  6.398E+00  2.507E-01  2.500E-01
  1.600E+00  3.000E-03  3.300E-02  6.019E+00  2.706E-01  2.700E-01
ENDDATA             22
ENDSUBENT           33
SUBENT        12853036     840106              20050926       0000
BIB                  5          6
REACTION   (48-CD-0(N,TOT),,SIG)
N-SOURCE   (D-LI7) WHITE NEUTRON SPECTRUM
METHOD     (TOF)  8.414 METER FLIGHT PATH
SAMPLE     NATURAL CADMIUM WITH A THICKNESS OF 0.0730 ATOMS/BARN
DETECTOR   BLACK NEUTRON DETECTOR 7.62 CM RADIUS AND 17.78 CM HIGH
             WITH PULSE SHAPE DISCRIMINATION
ENDBIB               6
NOCOMMON             0          0
DATA                 5         67
EN         EN-ERR     EN-RSL-FW  DATA       ERR-T
MEV        MEV        MEV        B          B
  1.817E+00  9.087E-03  1.944E-02  5.694E+00  7.745E-02
  1.856E+00  9.281E-03  1.974E-02  5.676E+00  7.224E-02
  1.896E+00  9.482E-03  2.039E-02  5.678E+00  7.227E-02
  1.938E+00  9.689E-03  2.110E-02  5.588E+00  7.112E-02
  1.981E+00  9.903E-03  2.179E-02  5.577E+00  6.622E-02
  2.025E+00  1.012E-02  2.253E-02  5.495E+00  6.525E-02
  2.071E+00  1.035E-02  2.332E-02  5.426E+00  6.443E-02
  2.118E+00  1.059E-02  2.415E-02  5.394E+00  6.405E-02
  2.167E+00  1.084E-02  2.501E-02  5.228E+00  6.403E-02
  2.218E+00  1.109E-02  2.588E-02  5.203E+00  5.955E-02
  2.271E+00  1.135E-02  2.680E-02  5.286E+00  6.050E-02
  2.325E+00  1.163E-02  2.779E-02  5.163E+00  5.909E-02
  2.382E+00  1.191E-02  2.883E-02  5.116E+00  5.856E-02
  2.441E+00  1.220E-02  2.992E-02  5.054E+00  5.785E-02
  2.502E+00  1.251E-02  3.105E-02  5.012E+00  5.736E-02
  2.565E+00  1.283E-02  3.225E-02  5.007E+00  5.731E-02
  2.631E+00  1.315E-02  3.350E-02  4.850E+00  5.551E-02
  2.699E+00  1.350E-02  3.483E-02  4.772E+00  5.462E-02
  2.770E+00  1.385E-02  3.623E-02  4.774E+00  5.097E-02
  2.844E+00  1.422E-02  3.769E-02  4.657E+00  5.330E-02
  2.921E+00  1.460E-02  3.925E-02  4.626E+00  5.295E-02
  3.001E+00  1.500E-02  4.089E-02  4.493E+00  5.142E-02
  3.084E+00  1.542E-02  4.262E-02  4.507E+00  5.158E-02
  3.171E+00  1.586E-02  4.443E-02  4.543E+00  5.200E-02
  3.262E+00  1.631E-02  4.636E-02  4.473E+00  5.120E-02
  3.357E+00  1.678E-02  4.841E-02  4.378E+00  5.217E-02
  3.456E+00  1.728E-02  5.060E-02  4.197E+00  5.001E-02
  3.559E+00  1.780E-02  5.289E-02  4.298E+00  4.805E-02
  3.667E+00  1.834E-02  5.531E-02  4.227E+00  4.726E-02
  3.780E+00  1.890E-02  5.794E-02  4.244E+00  4.745E-02
  3.899E+00  1.950E-02  6.072E-02  4.177E+00  4.977E-02
  4.023E+00  2.012E-02  6.362E-02  4.232E+00  5.370E-02
  4.154E+00  2.077E-02  6.674E-02  4.216E+00  6.036E-02
  4.290E+00  2.145E-02  7.010E-02  4.099E+00  6.944E-02
  4.434E+00  2.217E-02  7.364E-02  4.152E+00  7.404E-02
  4.585E+00  2.292E-02  7.747E-02  4.214E+00  7.895E-02
  4.744E+00  2.372E-02  8.157E-02  4.119E+00  7.717E-02
  4.911E+00  2.456E-02  8.588E-02  4.192E+00  7.854E-02
  5.087E+00  2.544E-02  9.058E-02  4.236E+00  7.936E-02
  5.273E+00  2.637E-02  9.564E-02  4.069E+00  7.994E-02
  5.470E+00  2.735E-02  1.010E-01  4.197E+00  7.990E-02
  5.678E+00  2.839E-02  1.068E-01  4.205E+00  8.122E-02
  5.897E+00  2.949E-02  1.131E-01  4.249E+00  8.348E-02
  6.130E+00  3.065E-02  1.199E-01  4.170E+00  8.576E-02
  6.377E+00  3.188E-02  1.272E-01  4.237E+00  8.714E-02
  6.639E+00  3.320E-02  1.352E-01  4.374E+00  8.996E-02
  6.918E+00  3.459E-02  1.438E-01  4.341E+00  8.928E-02
  7.214E+00  3.607E-02  1.531E-01  4.306E+00  8.856E-02
  7.530E+00  3.765E-02  1.633E-01  4.356E+00  9.411E-02
  7.867E+00  3.934E-02  1.744E-01  4.355E+00  9.567E-02
  8.228E+00  4.114E-02  1.865E-01  4.316E+00  1.011E-01
  8.613E+00  4.307E-02  1.997E-01  4.591E+00  1.018E-01
  9.027E+00  4.513E-02  2.143E-01  4.341E+00  1.058E-01
  9.470E+00  4.735E-02  2.303E-01  4.575E+00  1.105E-01
  9.948E+00  4.974E-02  2.478E-01  4.507E+00  1.161E-01
  1.046E+01  1.046E-01  2.673E-01  4.586E+00  1.151E-01
  1.102E+01  1.102E-01  2.888E-01  4.614E+00  1.070E-01
  1.162E+01  1.162E-01  3.126E-01  4.559E+00  9.682E-02
  1.227E+01  1.227E-01  3.391E-01  4.434E+00  8.586E-02
  1.297E+01  1.297E-01  3.687E-01  4.465E+00  7.823E-02
  1.374E+01  1.374E-01  4.018E-01  4.557E+00  7.162E-02
  1.458E+01  1.458E-01  4.389E-01  4.445E+00  6.593E-02
  1.550E+01  1.550E-01  4.807E-01  4.281E+00  6.144E-02
  1.650E+01  1.650E-01  5.279E-01  4.255E+00  6.092E-02
  1.761E+01  1.761E-01  5.813E-01  4.213E+00  6.403E-02
  1.883E+01  1.883E-01  6.421E-01  4.145E+00  7.766E-02
  2.018E+01  2.018E-01  5.554E-01  3.917E+00  1.262E-01
ENDDATA             69
ENDSUBENT           80
SUBENT        12853037     840106              20050926       0000
BIB                  6          7
REACTION   (48-CD-0(N,TOT),,SIG)
N-SOURCE   (P-LI7) MONOENERGETIC NEUTRONS
METHOD     (TOF)  7.909 METER FLIGHT PATH
SAMPLE     NATURAL CADMIUM WITH A THICKNESS OF 0.0730 ATOMS/BARN
DETECTOR   (SCIN) NE213 DETECTOR 2 CM THICK AND 12.7 CM
            IN DIAMETER
ERR-ANALYS (ERR-S) STATISTICAL UNCERTAINTY
ENDBIB               7
NOCOMMON             0          0
DATA                 6         24
EN         EN-ERR     EN-RSL-FW  DATA       ERR-T      ERR-S
MEV        MEV        MEV        B          B          B
  9.850E-01  7.000E-03  7.400E-02  6.727E+00  6.333E-02  6.000E-02
  1.032E+00  7.000E-03  7.200E-02  6.742E+00  7.288E-02  7.000E-02
  1.127E+00  7.000E-03  7.100E-02  6.727E+00  6.333E-02  6.000E-02
  1.222E+00  7.000E-03  6.800E-02  6.583E+00  6.319E-02  6.000E-02
  1.317E+00  7.000E-03  6.700E-02  6.323E+00  7.254E-02  7.000E-02
  1.411E+00  7.000E-03  6.600E-02  6.274E+00  7.250E-02  7.000E-02
  1.506E+00  6.000E-03  6.400E-02  6.224E+00  7.246E-02  7.000E-02
  1.600E+00  6.000E-03  6.200E-02  6.085E+00  8.207E-02  8.000E-02
  1.695E+00  6.000E-03  6.000E-02  5.890E+00  6.256E-02  6.000E-02
  1.790E+00  6.000E-03  5.800E-02  5.810E+00  6.250E-02  6.000E-02
  1.887E+00  6.000E-03  5.700E-02  5.551E+00  6.228E-02  6.000E-02
  1.984E+00  6.000E-03  5.600E-02  5.601E+00  6.232E-02  6.000E-02
  2.180E+00  5.000E-03  5.400E-02  5.247E+00  6.204E-02  6.000E-02
  2.377E+00  5.000E-03  5.200E-02  5.157E+00  6.198E-02  6.000E-02
  2.578E+00  5.000E-03  5.000E-02  4.734E+00  6.167E-02  6.000E-02
  2.783E+00  5.000E-03  4.900E-02  4.734E+00  6.167E-02  6.000E-02
  2.985E+00  5.000E-03  4.700E-02  4.549E+00  6.154E-02  6.000E-02
  3.188E+00  5.000E-03  4.500E-02  4.405E+00  5.173E-02  5.000E-02
  3.390E+00  4.000E-03  4.400E-02  4.116E+00  6.127E-02  6.000E-02
  3.587E+00  4.000E-03  4.200E-02  4.221E+00  6.133E-02  6.000E-02
  3.788E+00  4.000E-03  4.100E-02  4.150E+00  6.129E-02  6.000E-02
  3.990E+00  4.000E-03  3.900E-02  4.182E+00  7.112E-02  7.000E-02
  4.195E+00  4.000E-03  3.800E-02  4.150E+00  7.111E-02  7.000E-02
  4.400E+00  4.000E-03  3.700E-02  4.049E+00  8.092E-02  8.000E-02
ENDDATA             26
ENDSUBENT           38
SUBENT        12853038     840106              20050926       0000
BIB                  6          6
REACTION   (49-IN-0(N,TOT),,SIG)
N-SOURCE   (P-LI7) WHITE NEUTRON SPECTRUM
METHOD     (TOF)  3.32 METER FLIGHT PATH
SAMPLE     NATURAL INDIUM WITH A THICKNESS OF 0.0768 ATOMS/BARN
DETECTOR   BLACK NEUTRON DETECTOR 5 CM RADIUS AND 15 CM HIGH
ERR-ANALYS (ERR-S) STATISTICAL UNCERTAINTY
ENDBIB               6
NOCOMMON             0          0
DATA                 6          9
EN         EN-ERR     EN-RSL-FW  DATA       ERR-T      ERR-S
MEV        MEV        MEV        B          B          B
  4.700E-02  1.000E-03  4.000E-03  6.774E+00  7.777E-01  7.733E-01
  6.000E-02  1.000E-03  6.000E-03  7.011E+00  4.049E-01  3.959E-01
  7.800E-02  1.000E-03  9.000E-03  7.072E+00  4.037E-01  3.949E-01
  1.010E-01  1.000E-03  1.000E-02  7.077E+00  3.831E-01  3.739E-01
  1.240E-01  1.000E-03  1.000E-02  7.177E+00  3.728E-01  3.632E-01
  1.460E-01  1.000E-03  9.000E-03  7.117E+00  3.721E-01  3.628E-01
  1.680E-01  1.000E-03  9.000E-03  7.211E+00  3.622E-01  3.524E-01
  1.970E-01  1.000E-03  1.400E-02  7.284E+00  3.522E-01  3.420E-01
  2.280E-01  2.000E-03  1.600E-02  7.260E+00  3.814E-01  3.718E-01
ENDDATA             11
ENDSUBENT           22
SUBENT        12853039     840106              20050926       0000
BIB                  6          6
REACTION   (49-IN-0(N,TOT),,SIG)
N-SOURCE   (P-LI7) MONOENERGETIC NEUTRONS
METHOD     (TOF)  3.32 METER FLIGHT PATH
SAMPLE     NATURAL INDIUM WITH A THICKNESS OF 0.0768 ATOMS/BARN
DETECTOR   BLACK NEUTRON DETECTOR 5 CM RADIUS AND 15 CM HIGH
ERR-ANALYS (ERR-S) STATISTICAL UNCERTAINTY
ENDBIB               6
NOCOMMON             0          0
DATA                 6         21
EN         EN-ERR     EN-RSL-FW  DATA       ERR-T      ERR-S
MEV        MEV        MEV        B          B          B
  2.150E-01  5.000E-03  2.400E-02  6.977E+00  2.153E-01  2.010E-01
  2.360E-01  5.000E-03  2.400E-02  7.174E+00  1.974E-01  1.808E-01
  2.600E-01  5.000E-03  2.400E-02  7.070E+00  1.878E-01  1.707E-01
  3.220E-01  5.000E-03  2.300E-02  7.332E+00  2.256E-01  2.106E-01
  3.650E-01  5.000E-03  2.300E-02  7.129E+00  2.627E-01  2.506E-01
  4.060E-01  5.000E-03  2.200E-02  7.156E+00  2.627E-01  2.505E-01
  4.500E-01  5.000E-03  2.200E-02  7.094E+00  3.300E-01  3.206E-01
  4.950E-01  5.000E-03  2.100E-02  6.982E+00  3.296E-01  3.205E-01
  5.500E-01  5.000E-03  4.500E-02  7.061E+00  3.196E-01  3.100E-01
  5.800E-01  5.000E-03  2.100E-02  7.091E+00  3.100E-01  3.000E-01
  6.000E-01  4.000E-03  4.400E-02  6.951E+00  3.193E-01  3.100E-01
  6.520E-01  4.000E-03  4.300E-02  7.151E+00  2.813E-01  2.700E-01
  7.000E-01  4.000E-03  4.200E-02  7.141E+00  3.005E-01  2.900E-01
  7.450E-01  4.000E-03  4.100E-02  6.941E+00  2.141E-01  2.000E-01
  7.860E-01  4.000E-03  4.000E-02  6.941E+00  1.773E-01  1.600E-01
  8.380E-01  4.000E-03  3.900E-02  6.741E+00  1.764E-01  1.600E-01
  8.900E-01  4.000E-03  3.800E-02  6.871E+00  1.680E-01  1.500E-01
  9.500E-01  4.000E-03  3.700E-02  6.781E+00  1.676E-01  1.500E-01
  1.010E+00  4.000E-03  3.700E-02  6.731E+00  1.763E-01  1.600E-01
  1.320E+00  4.000E-03  3.500E-02  6.482E+00  1.661E-01  1.500E-01
  1.600E+00  3.000E-03  3.300E-02  5.942E+00  1.280E-01  1.100E-01
ENDDATA             23
ENDSUBENT           34
SUBENT        12853040     840106              20050926       0000
BIB                  5          6
REACTION   (49-IN-0(N,TOT),,SIG)
N-SOURCE   (D-LI7) WHITE NEUTRON SPECTRUM
METHOD     (TOF)  8.414 METER FLIGHT PATH
SAMPLE     NATURAL INDIUM WITH A THICKNESS OF 0.0768 ATOMS/BARN
DETECTOR   BLACK NEUTRON DETECTOR 7.62 CM RADIUS AND 17.78 CM HIGH
             WITH PULSE SHAPE DISCRIMINATION
ENDBIB               6
NOCOMMON             0          0
DATA                 5         65
EN         EN-ERR     EN-RSL-FW  DATA       ERR-T
MEV        MEV        MEV        B          B
  1.817E+00  9.087E-03  1.944E-02  5.684E+00  8.750E-02
  1.856E+00  9.281E-03  1.974E-02  5.693E+00  8.764E-02
  1.896E+00  9.482E-03  2.039E-02  5.586E+00  8.600E-02
  1.938E+00  9.689E-03  2.110E-02  5.527E+00  8.123E-02
  1.981E+00  9.903E-03  2.179E-02  5.480E+00  8.054E-02
  2.025E+00  1.012E-02  2.253E-02  5.428E+00  7.977E-02
  2.071E+00  1.035E-02  2.332E-02  5.486E+00  8.063E-02
  2.118E+00  1.059E-02  2.415E-02  5.319E+00  7.466E-02
  2.167E+00  1.084E-02  2.501E-02  5.319E+00  7.466E-02
  2.218E+00  1.109E-02  2.588E-02  5.241E+00  7.356E-02
  2.271E+00  1.135E-02  2.680E-02  5.196E+00  7.293E-02
  2.325E+00  1.163E-02  2.779E-02  5.203E+00  7.303E-02
  2.382E+00  1.191E-02  2.883E-02  5.104E+00  7.164E-02
  2.441E+00  1.220E-02  2.992E-02  5.043E+00  7.238E-02
  2.502E+00  1.251E-02  3.105E-02  4.969E+00  7.132E-02
  2.565E+00  1.283E-02  3.225E-02  4.906E+00  6.745E-02
  2.631E+00  1.315E-02  3.350E-02  4.892E+00  6.725E-02
  2.699E+00  1.350E-02  3.483E-02  4.823E+00  6.631E-02
  2.770E+00  1.385E-02  3.623E-02  4.696E+00  6.456E-02
  2.844E+00  1.422E-02  3.769E-02  4.718E+00  6.486E-02
  2.921E+00  1.460E-02  3.925E-02  4.639E+00  6.378E-02
  3.001E+00  1.500E-02  4.089E-02  4.583E+00  6.301E-02
  3.084E+00  1.542E-02  4.262E-02  4.528E+00  6.225E-02
  3.171E+00  1.586E-02  4.443E-02  4.497E+00  6.182E-02
  3.262E+00  1.631E-02  4.636E-02  4.403E+00  6.319E-02
  3.357E+00  1.678E-02  4.841E-02  4.436E+00  6.098E-02
  3.456E+00  1.728E-02  5.060E-02  4.229E+00  6.070E-02
  3.559E+00  1.780E-02  5.289E-02  4.260E+00  5.857E-02
  3.667E+00  1.834E-02  5.531E-02  4.274E+00  5.876E-02
  3.780E+00  1.890E-02  5.794E-02  4.267E+00  5.866E-02
  3.899E+00  1.950E-02  6.072E-02  4.228E+00  5.813E-02
  4.023E+00  2.012E-02  6.362E-02  4.229E+00  6.070E-02
  4.154E+00  2.077E-02  6.674E-02  4.220E+00  6.632E-02
  4.290E+00  2.145E-02  7.010E-02  4.211E+00  7.556E-02
  4.434E+00  2.217E-02  7.364E-02  4.126E+00  8.179E-02
  4.585E+00  2.292E-02  7.747E-02  4.151E+00  8.229E-02
  4.744E+00  2.372E-02  8.157E-02  4.136E+00  8.268E-02
  4.911E+00  2.456E-02  8.588E-02  4.145E+00  8.355E-02
  5.087E+00  2.544E-02  9.058E-02  4.284E+00  8.373E-02
  5.273E+00  2.637E-02  9.564E-02  4.190E+00  8.536E-02
  5.470E+00  2.735E-02  1.010E-01  4.105E+00  8.473E-02
  5.678E+00  2.839E-02  1.068E-01  4.239E+00  8.636E-02
  5.897E+00  2.949E-02  1.131E-01  4.299E+00  8.758E-02
  6.130E+00  3.065E-02  1.199E-01  4.269E+00  9.086E-02
  6.377E+00  3.188E-02  1.272E-01  4.310E+00  9.173E-02
  6.639E+00  3.320E-02  1.352E-01  4.268E+00  9.084E-02
  6.918E+00  3.459E-02  1.438E-01  4.392E+00  9.348E-02
  7.214E+00  3.607E-02  1.531E-01  4.307E+00  9.593E-02
  7.530E+00  3.765E-02  1.633E-01  4.385E+00  9.626E-02
  7.867E+00  3.934E-02  1.744E-01  4.468E+00  9.890E-02
  8.228E+00  4.114E-02  1.865E-01  4.437E+00  1.021E-01
  8.613E+00  4.307E-02  1.997E-01  4.493E+00  1.073E-01
  9.027E+00  4.513E-02  2.143E-01  4.507E+00  1.120E-01
  9.470E+00  4.735E-02  2.303E-01  4.681E+00  1.164E-01
  9.948E+00  4.974E-02  2.478E-01  4.526E+00  1.200E-01
  1.046E+01  1.046E-01  2.673E-01  4.672E+00  1.161E-01
  1.102E+01  1.102E-01  2.888E-01  4.512E+00  1.122E-01
  1.162E+01  1.162E-01  3.126E-01  4.636E+00  1.026E-01
  1.227E+01  1.227E-01  3.391E-01  4.542E+00  9.286E-02
  1.297E+01  1.297E-01  3.687E-01  4.473E+00  8.380E-02
  1.374E+01  1.374E-01  4.018E-01  4.496E+00  7.722E-02
  1.458E+01  1.458E-01  4.389E-01  4.431E+00  7.281E-02
  1.550E+01  1.550E-01  4.807E-01  4.356E+00  6.846E-02
  1.650E+01  1.650E-01  5.279E-01  4.365E+00  6.860E-02
  1.761E+01  1.761E-01  5.813E-01  4.260E+00  7.000E-02
ENDDATA             67
ENDSUBENT           78
SUBENT        12853041     840106              20050926       0000
BIB                  6          6
REACTION   (50-SN-0(N,TOT),,SIG)
N-SOURCE   (P-LI7) WHITE NEUTRON SPECTRUM
METHOD     (TOF)  3.32 METER FLIGHT PATH
SAMPLE     NATURAL TIN WITH A THICKNESS OF 0.0718 ATOMS/BARN
DETECTOR   BLACK NEUTRON DETECTOR 5 CM RADIUS AND 15 CM HIGH
ERR-ANALYS (ERR-S) STATISTICAL UNCERTAINTY
ENDBIB               6
NOCOMMON             0          0
DATA                 6          8
EN         EN-ERR     EN-RSL-FW  DATA       ERR-T      ERR-S
MEV        MEV        MEV        B          B          B
  4.700E-02  1.000E-03  4.000E-03  5.891E+00  5.143E-01  5.129E-01
  6.000E-02  1.000E-03  6.000E-03  6.146E+00  2.886E-01  2.863E-01
  7.800E-02  1.000E-03  9.000E-03  6.102E+00  2.668E-01  2.648E-01
  1.010E-01  1.000E-03  1.000E-02  6.306E+00  2.860E-01  2.842E-01
  1.240E-01  1.000E-03  1.000E-02  6.370E+00  2.649E-01  2.632E-01
  1.460E-01  1.000E-03  9.000E-03  6.547E+00  2.542E-01  2.525E-01
  1.680E-01  1.000E-03  9.000E-03  6.901E+00  2.340E-01  2.320E-01
  1.970E-01  1.000E-03  1.400E-02  6.752E+00  2.736E-01  2.721E-01
ENDDATA             10
ENDSUBENT           21
SUBENT        12853042     840106              20050926       0000
BIB                  6          6
REACTION   (50-SN-0(N,TOT),,SIG)
N-SOURCE   (P-LI7) MONOENERGETIC NEUTRONS
METHOD     (TOF)  3.32 METER FLIGHT PATH
SAMPLE     NATURAL TIN WITH A THICKNESS OF 0.0718 ATOMS/BARN
DETECTOR   BLACK NEUTRON DETECTOR 5 CM RADIUS AND 15 CM HIGH
ERR-ANALYS (ERR-S) STATISTICAL UNCERTAINTY
ENDBIB               6
NOCOMMON             0          0
DATA                 6         20
EN         EN-ERR     EN-RSL-FW  DATA       ERR-T      ERR-S
MEV        MEV        MEV        B          B          B
  2.150E-01  5.000E-03  2.400E-02  6.688E+00  1.835E-01  1.813E-01
  2.360E-01  5.000E-03  2.400E-02  6.593E+00  1.833E-01  1.812E-01
  2.600E-01  5.000E-03  2.400E-02  7.011E+00  2.232E-01  2.213E-01
  3.220E-01  5.000E-03  2.300E-02  7.032E+00  2.229E-01  2.210E-01
  3.650E-01  5.000E-03  2.300E-02  6.507E+00  3.023E-01  3.011E-01
  4.060E-01  5.000E-03  2.200E-02  6.544E+00  3.222E-01  3.211E-01
  4.500E-01  5.000E-03  2.200E-02  7.052E+00  3.521E-01  3.510E-01
  4.950E-01  5.000E-03  2.100E-02  6.768E+00  3.619E-01  3.609E-01
  5.500E-01  5.000E-03  4.500E-02  6.846E+00  3.119E-01  3.107E-01
  5.800E-01  5.000E-03  2.100E-02  6.905E+00  3.718E-01  3.708E-01
  6.000E-01  4.000E-03  4.400E-02  6.815E+00  3.219E-01  3.206E-01
  6.520E-01  4.000E-03  4.300E-02  6.934E+00  2.719E-01  2.705E-01
  7.000E-01  4.000E-03  4.200E-02  6.943E+00  2.719E-01  2.705E-01
  7.450E-01  4.000E-03  4.100E-02  6.972E+00  2.420E-01  2.404E-01
  7.860E-01  4.000E-03  4.000E-02  6.942E+00  3.117E-01  3.105E-01
  8.900E-01  4.000E-03  3.800E-02  6.672E+00  2.618E-01  2.604E-01
  9.500E-01  4.000E-03  3.700E-02  6.712E+00  2.818E-01  2.805E-01
  1.010E+00  4.000E-03  3.700E-02  6.641E+00  2.713E-01  2.700E-01
  1.320E+00  4.000E-03  3.500E-02  6.232E+00  2.512E-01  2.500E-01
  1.600E+00  3.000E-03  3.300E-02  6.022E+00  2.711E-01  2.700E-01
ENDDATA             22
ENDSUBENT           33
SUBENT        12853043     840106              20050926       0000
BIB                  5          6
REACTION   (50-SN-0(N,TOT),,SIG)
N-SOURCE   (D-LI7) WHITE NEUTRON SPECTRUM
METHOD     (TOF)  8.414 METER FLIGHT PATH
SAMPLE     NATURAL TIN WITH A THICKNESS OF 0.0940 ATOMS/BARN
DETECTOR   BLACK NEUTRON DETECTOR 7.62 CM RADIUS AND 17.78 CM HIGH
             WITH PULSE SHAPE DISCRIMINATION
ENDBIB               6
NOCOMMON             0          0
DATA                 5         66
EN         EN-ERR     EN-RSL-FW  DATA       ERR-T
MEV        MEV        MEV        B          B
  1.817E+00  9.087E-03  1.944E-02  5.672E+00  6.430E-02
  1.856E+00  9.281E-03  1.974E-02  5.625E+00  5.908E-02
  1.896E+00  9.482E-03  2.039E-02  5.607E+00  5.890E-02
  1.938E+00  9.689E-03  2.110E-02  5.548E+00  5.827E-02
  1.981E+00  9.903E-03  2.179E-02  5.457E+00  5.732E-02
  2.025E+00  1.012E-02  2.253E-02  5.426E+00  5.445E-02
  2.071E+00  1.035E-02  2.332E-02  5.464E+00  5.298E-02
  2.118E+00  1.059E-02  2.415E-02  5.331E+00  5.350E-02
  2.167E+00  1.084E-02  2.501E-02  5.342E+00  5.361E-02
  2.218E+00  1.109E-02  2.588E-02  5.282E+00  5.301E-02
  2.271E+00  1.135E-02  2.680E-02  5.197E+00  4.829E-02
  2.325E+00  1.163E-02  2.779E-02  5.127E+00  4.764E-02
  2.382E+00  1.191E-02  2.883E-02  5.092E+00  4.731E-02
  2.441E+00  1.220E-02  2.992E-02  4.985E+00  4.631E-02
  2.502E+00  1.251E-02  3.105E-02  4.999E+00  4.645E-02
  2.565E+00  1.283E-02  3.225E-02  4.969E+00  4.617E-02
  2.631E+00  1.315E-02  3.350E-02  4.899E+00  4.552E-02
  2.699E+00  1.350E-02  3.483E-02  4.788E+00  4.449E-02
  2.770E+00  1.385E-02  3.623E-02  4.743E+00  4.407E-02
  2.844E+00  1.422E-02  3.769E-02  4.726E+00  4.391E-02
  2.921E+00  1.460E-02  3.925E-02  4.678E+00  4.347E-02
  3.001E+00  1.500E-02  4.089E-02  4.572E+00  4.248E-02
  3.084E+00  1.542E-02  4.262E-02  4.521E+00  4.201E-02
  3.171E+00  1.586E-02  4.443E-02  4.505E+00  4.186E-02
  3.262E+00  1.631E-02  4.636E-02  4.459E+00  4.143E-02
  3.357E+00  1.678E-02  4.841E-02  4.419E+00  4.106E-02
  3.456E+00  1.728E-02  5.060E-02  4.316E+00  4.010E-02
  3.559E+00  1.780E-02  5.289E-02  4.293E+00  3.989E-02
  3.667E+00  1.834E-02  5.531E-02  4.305E+00  4.000E-02
  3.780E+00  1.890E-02  5.794E-02  4.316E+00  4.010E-02
  3.899E+00  1.950E-02  6.072E-02  4.269E+00  3.966E-02
  4.023E+00  2.012E-02  6.362E-02  4.302E+00  4.318E-02
  4.154E+00  2.077E-02  6.674E-02  4.317E+00  4.670E-02
  4.290E+00  2.145E-02  7.010E-02  4.287E+00  5.361E-02
  4.434E+00  2.217E-02  7.364E-02  4.279E+00  6.088E-02
  4.585E+00  2.292E-02  7.747E-02  4.190E+00  6.087E-02
  4.744E+00  2.372E-02  8.157E-02  4.224E+00  6.502E-02
  4.911E+00  2.456E-02  8.588E-02  4.278E+00  6.464E-02
  5.087E+00  2.544E-02  9.058E-02  4.324E+00  6.533E-02
  5.273E+00  2.637E-02  9.564E-02  4.164E+00  6.409E-02
  5.470E+00  2.735E-02  1.010E-01  4.192E+00  6.572E-02
  5.678E+00  2.839E-02  1.068E-01  4.197E+00  6.574E-02
  5.897E+00  2.949E-02  1.131E-01  4.296E+00  6.876E-02
  6.130E+00  3.065E-02  1.199E-01  4.217E+00  6.861E-02
  6.377E+00  3.188E-02  1.272E-01  4.194E+00  7.198E-02
  6.639E+00  3.320E-02  1.352E-01  4.325E+00  6.922E-02
  6.918E+00  3.459E-02  1.438E-01  4.281E+00  7.238E-02
  7.214E+00  3.607E-02  1.531E-01  4.399E+00  7.041E-02
  7.530E+00  3.765E-02  1.633E-01  4.230E+00  7.572E-02
  7.867E+00  3.934E-02  1.744E-01  4.435E+00  7.939E-02
  8.228E+00  4.114E-02  1.865E-01  4.476E+00  8.012E-02
  8.613E+00  4.307E-02  1.997E-01  4.601E+00  8.235E-02
  9.027E+00  4.513E-02  2.143E-01  4.612E+00  8.677E-02
  9.470E+00  4.735E-02  2.303E-01  4.661E+00  8.997E-02
  9.948E+00  4.974E-02  2.478E-01  4.663E+00  9.404E-02
  1.046E+01  1.046E-01  2.673E-01  4.743E+00  9.359E-02
  1.102E+01  1.102E-01  2.888E-01  4.645E+00  8.738E-02
  1.162E+01  1.162E-01  3.126E-01  4.735E+00  8.047E-02
  1.227E+01  1.227E-01  3.391E-01  4.684E+00  7.078E-02
  1.297E+01  1.297E-01  3.687E-01  4.585E+00  6.125E-02
  1.374E+01  1.374E-01  4.018E-01  4.597E+00  5.748E-02
  1.458E+01  1.458E-01  4.389E-01  4.558E+00  5.319E-02
  1.550E+01  1.550E-01  4.807E-01  4.455E+00  4.839E-02
  1.650E+01  1.650E-01  5.279E-01  4.401E+00  4.780E-02
  1.761E+01  1.761E-01  5.813E-01  4.353E+00  5.080E-02
  1.883E+01  1.883E-01  6.421E-01  4.227E+00  6.507E-02
ENDDATA             68
ENDSUBENT           79
SUBENT        12853044     840127              20050926       0000
BIB                  6          6
REACTION   (51-SB-0(N,TOT),,SIG)
INC-SOURCE (P-LI7) WHITE NEUTRON SPECTRUM
METHOD     (TOF)  3.32 METER FLIGHT PATH
SAMPLE     NATURAL ANTIMONY WITH A THICKNESS OF 0.0838 ATOMS/BARN
DETECTOR   BLACK NEUTRON DETECTOR 5 CM RADIUS AND 15 CM HIGH
ERR-ANALYS (ERR-S) STATISTICAL UNCERTAINTY
ENDBIB               6
NOCOMMON             0          0
DATA                 6          9
EN         EN-ERR     EN-RSL-FW  DATA       ERR-T      ERR-S
MEV        MEV        MEV        B          B          B
  4.700E-02  1.000E-03  4.000E-03  6.075E+00  6.619E-01  6.606E-01
  6.000E-02  1.000E-03  6.000E-03  6.050E+00  3.570E-01  3.548E-01
  7.800E-02  1.000E-03  9.000E-03  6.244E+00  3.459E-01  3.436E-01
  1.010E-01  1.000E-03  1.000E-02  6.240E+00  3.450E-01  3.428E-01
  1.240E-01  1.000E-03  1.000E-02  6.338E+00  3.344E-01  3.321E-01
  1.460E-01  1.000E-03  9.000E-03  6.248E+00  3.138E-01  3.115E-01
  1.680E-01  1.000E-03  9.000E-03  6.363E+00  2.937E-01  2.912E-01
  1.970E-01  1.000E-03  1.400E-02  6.450E+00  2.737E-01  2.710E-01
  2.280E-01  2.000E-03  1.600E-02  6.477E+00  3.233E-01  3.210E-01
ENDDATA             11
ENDSUBENT           22
SUBENT        12853045     840127              20050926       0000
BIB                  6          6
REACTION   (51-SB-0(N,TOT),,SIG)
INC-SOURCE (P-LI7) MONOENERGETIC NEUTRONS
METHOD     (TOF)  3.32 METER FLIGHT PATH
SAMPLE     NATURAL ANTIMONY WITH A THICKNESS OF 0.0838 ATOMS/BARN
DETECTOR   BLACK NEUTRON DETECTOR 5 CM RADIUS AND 15 CM HIGH
ERR-ANALYS (ERR-S) STATISTICAL UNCERTAINTY
ENDBIB               6
NOCOMMON             0          0
DATA                 6         21
EN         EN-ERR     EN-RSL-FW  DATA       ERR-T      ERR-S
MEV        MEV        MEV        B          B          B
  2.150E-01  5.000E-03  2.400E-02  6.458E+00  1.946E-01  1.906E-01
  2.360E-01  5.000E-03  2.400E-02  6.326E+00  1.649E-01  1.605E-01
  2.600E-01  5.000E-03  2.400E-02  6.775E+00  1.656E-01  1.604E-01
  3.220E-01  5.000E-03  2.300E-02  6.851E+00  2.047E-01  2.004E-01
  3.650E-01  5.000E-03  2.300E-02  6.469E+00  2.336E-01  2.304E-01
  4.060E-01  5.000E-03  2.200E-02  6.627E+00  2.338E-01  2.304E-01
  4.500E-01  5.000E-03  2.200E-02  7.017E+00  2.934E-01  2.904E-01
  4.950E-01  5.000E-03  2.100E-02  6.785E+00  2.932E-01  2.904E-01
  5.500E-01  5.000E-03  4.500E-02  6.587E+00  2.927E-01  2.900E-01
  5.800E-01  5.000E-03  2.100E-02  6.547E+00  2.827E-01  2.800E-01
  6.000E-01  4.000E-03  4.400E-02  6.787E+00  2.829E-01  2.800E-01
  6.520E-01  4.000E-03  4.300E-02  6.847E+00  2.435E-01  2.400E-01
  7.000E-01  4.000E-03  4.200E-02  6.617E+00  2.630E-01  2.600E-01
  7.450E-01  4.000E-03  4.100E-02  6.717E+00  1.845E-01  1.800E-01
  7.860E-01  4.000E-03  4.000E-02  6.717E+00  1.553E-01  1.500E-01
  8.380E-01  4.000E-03  3.900E-02  6.677E+00  1.553E-01  1.500E-01
  8.900E-01  4.000E-03  3.800E-02  6.767E+00  1.458E-01  1.400E-01
  9.500E-01  4.000E-03  3.700E-02  6.657E+00  1.456E-01  1.400E-01
  1.010E+00  4.000E-03  3.700E-02  6.697E+00  1.553E-01  1.500E-01
  1.320E+00  4.000E-03  3.500E-02  6.597E+00  1.455E-01  1.400E-01
  1.600E+00  3.000E-03  3.300E-02  6.188E+00  1.545E-01  1.500E-01
ENDDATA             23
ENDSUBENT           34
SUBENT        12853046     840127              20050926       0000
BIB                  5          6
REACTION   (51-SB-0(N,TOT),,SIG)
INC-SOURCE (D-LI) WHITE NEUTRON SPECTRUM
METHOD     (TOF)  8.414 METER FLIGHT PATH
SAMPLE     NATURAL ANTIMONY WITH A THICKNESS OF 0.0838 ATOMS/BARN
DETECTOR   BLACK NEUTRON DETECTOR 7.62 CM RADIUS AND 17.78 CM HIGH
             WITH PULSE SHAPE DISCRIMINATION
ENDBIB               6
NOCOMMON             0          0
DATA                 5         66
EN         EN-ERR     EN-RSL-FW  DATA       ERR-T
MEV        MEV        MEV        B          B
  1.817E+00  9.087E-03  1.944E-02  5.847E+00  6.943E-02
  1.856E+00  9.281E-03  1.974E-02  5.914E+00  7.022E-02
  1.896E+00  9.482E-03  2.039E-02  5.814E+00  6.904E-02
  1.938E+00  9.689E-03  2.110E-02  5.790E+00  6.395E-02
  1.981E+00  9.903E-03  2.179E-02  5.693E+00  6.288E-02
  2.025E+00  1.012E-02  2.253E-02  5.791E+00  6.396E-02
  2.071E+00  1.035E-02  2.332E-02  5.668E+00  6.261E-02
  2.118E+00  1.059E-02  2.415E-02  5.643E+00  5.782E-02
  2.167E+00  1.084E-02  2.501E-02  5.558E+00  5.695E-02
  2.218E+00  1.109E-02  2.588E-02  5.485E+00  5.620E-02
  2.271E+00  1.135E-02  2.680E-02  5.464E+00  5.599E-02
  2.325E+00  1.163E-02  2.779E-02  5.423E+00  5.557E-02
  2.382E+00  1.191E-02  2.883E-02  5.355E+00  5.487E-02
  2.441E+00  1.220E-02  2.992E-02  5.326E+00  5.458E-02
  2.502E+00  1.251E-02  3.105E-02  5.238E+00  5.367E-02
  2.565E+00  1.283E-02  3.225E-02  5.183E+00  4.917E-02
  2.631E+00  1.315E-02  3.350E-02  5.169E+00  4.904E-02
  2.699E+00  1.350E-02  3.483E-02  5.073E+00  4.813E-02
  2.770E+00  1.385E-02  3.623E-02  5.044E+00  4.785E-02
  2.844E+00  1.422E-02  3.769E-02  5.011E+00  4.754E-02
  2.921E+00  1.460E-02  3.925E-02  4.908E+00  4.656E-02
  3.001E+00  1.500E-02  4.089E-02  4.881E+00  4.631E-02
  3.084E+00  1.542E-02  4.262E-02  4.787E+00  4.541E-02
  3.171E+00  1.586E-02  4.443E-02  4.797E+00  4.551E-02
  3.262E+00  1.631E-02  4.636E-02  4.715E+00  4.473E-02
  3.357E+00  1.678E-02  4.841E-02  4.645E+00  4.407E-02
  3.456E+00  1.728E-02  5.060E-02  4.571E+00  4.548E-02
  3.559E+00  1.780E-02  5.289E-02  4.566E+00  4.543E-02
  3.667E+00  1.834E-02  5.531E-02  4.537E+00  4.514E-02
  3.780E+00  1.890E-02  5.794E-02  4.525E+00  4.502E-02
  3.899E+00  1.950E-02  6.072E-02  4.528E+00  4.505E-02
  4.023E+00  2.012E-02  6.362E-02  4.520E+00  4.826E-02
  4.154E+00  2.077E-02  6.674E-02  4.557E+00  5.216E-02
  4.290E+00  2.145E-02  7.010E-02  4.445E+00  6.191E-02
  4.434E+00  2.217E-02  7.364E-02  4.424E+00  6.547E-02
  4.585E+00  2.292E-02  7.747E-02  4.345E+00  6.815E-02
  4.744E+00  2.372E-02  8.157E-02  4.342E+00  6.810E-02
  4.911E+00  2.456E-02  8.588E-02  4.387E+00  6.881E-02
  5.087E+00  2.544E-02  9.058E-02  4.308E+00  7.144E-02
  5.273E+00  2.637E-02  9.564E-02  4.343E+00  7.202E-02
  5.470E+00  2.735E-02  1.010E-01  4.187E+00  7.324E-02
  5.678E+00  2.839E-02  1.068E-01  4.246E+00  7.041E-02
  5.897E+00  2.949E-02  1.131E-01  4.219E+00  7.380E-02
  6.130E+00  3.065E-02  1.199E-01  4.209E+00  7.765E-02
  6.377E+00  3.188E-02  1.272E-01  4.385E+00  7.671E-02
  6.639E+00  3.320E-02  1.352E-01  4.383E+00  7.667E-02
  6.918E+00  3.459E-02  1.438E-01  4.368E+00  8.042E-02
  7.214E+00  3.607E-02  1.531E-01  4.396E+00  8.094E-02
  7.530E+00  3.765E-02  1.633E-01  4.337E+00  8.387E-02
  7.867E+00  3.934E-02  1.744E-01  4.432E+00  8.571E-02
  8.228E+00  4.114E-02  1.865E-01  4.408E+00  8.936E-02
  8.613E+00  4.307E-02  1.997E-01  4.629E+00  8.952E-02
  9.027E+00  4.513E-02  2.143E-01  4.697E+00  9.646E-02
  9.470E+00  4.735E-02  2.303E-01  4.680E+00  1.014E-01
  9.948E+00  4.974E-02  2.478E-01  4.797E+00  1.007E-01
  1.046E+01  1.046E-01  2.673E-01  4.779E+00  1.004E-01
  1.102E+01  1.102E-01  2.888E-01  4.753E+00  9.807E-02
  1.162E+01  1.162E-01  3.126E-01  4.779E+00  8.918E-02
  1.227E+01  1.227E-01  3.391E-01  4.729E+00  7.713E-02
  1.297E+01  1.297E-01  3.687E-01  4.727E+00  6.850E-02
  1.374E+01  1.374E-01  4.018E-01  4.686E+00  6.374E-02
  1.458E+01  1.458E-01  4.389E-01  4.623E+00  6.045E-02
  1.550E+01  1.550E-01  4.807E-01  4.586E+00  5.617E-02
  1.650E+01  1.650E-01  5.279E-01  4.501E+00  5.513E-02
  1.761E+01  1.761E-01  5.813E-01  4.419E+00  5.779E-02
  1.883E+01  1.883E-01  6.421E-01  4.369E+00  6.853E-02
ENDDATA             68
ENDSUBENT           79
SUBENT        12853047     840127              20050926       0000
BIB                  5          7
REACTION   (60-ND-0(N,TOT),,SIG)
INC-SOURCE (D-LI) WHITE NEUTRON SPECTRUM
METHOD     (TOF)  8.414 METER FLIGHT PATH
SAMPLE     NATURAL NEODYMIUM WITH A THICKNESS OF .0519
             ATOMS/BARN CANNED IN STAINLESS STEEL
DETECTOR   BLACK NEUTRON DETECTOR 7.62 CM RADIUS AND 17.78 CM HIGH
             WITH PULSE SHAPE DISCRIMINATION
ENDBIB               7
NOCOMMON             0          0
DATA                 5         67
EN         EN-ERR     EN-RSL-FW  DATA       ERR-T
MEV        MEV        MEV        B          B
  1.822E+00  9.108E-03  1.952E-02  7.368E+00  2.373E-01
  1.861E+00  9.303E-03  1.981E-02  7.373E+00  2.374E-01
  1.901E+00  9.504E-03  2.042E-02  7.334E+00  2.338E-01
  1.942E+00  9.711E-03  2.111E-02  7.250E+00  2.321E-01
  1.985E+00  9.926E-03  2.184E-02  7.233E+00  2.316E-01
  2.030E+00  1.015E-02  2.259E-02  7.185E+00  2.300E-01
  2.076E+00  1.038E-02  2.334E-02  7.092E+00  2.249E-01
  2.123E+00  1.061E-02  2.415E-02  7.054E+00  2.237E-01
  2.172E+00  1.086E-02  2.501E-02  7.236E+00  2.295E-01
  2.223E+00  1.112E-02  2.588E-02  6.930E+00  2.198E-01
  2.276E+00  1.138E-02  2.682E-02  6.980E+00  2.195E-01
  2.330E+00  1.165E-02  2.781E-02  7.038E+00  2.213E-01
  2.387E+00  1.193E-02  2.883E-02  6.920E+00  2.176E-01
  2.446E+00  1.223E-02  2.991E-02  6.835E+00  2.149E-01
  2.507E+00  1.253E-02  3.104E-02  6.765E+00  2.127E-01
  2.570E+00  1.285E-02  3.223E-02  6.730E+00  2.116E-01
  2.635E+00  1.318E-02  3.349E-02  6.584E+00  2.071E-01
  2.704E+00  1.352E-02  3.480E-02  6.571E+00  2.066E-01
  2.775E+00  1.387E-02  3.617E-02  6.521E+00  2.051E-01
  2.848E+00  1.424E-02  3.764E-02  6.495E+00  2.043E-01
  2.925E+00  1.463E-02  3.917E-02  6.419E+00  2.019E-01
  3.005E+00  1.503E-02  4.078E-02  6.306E+00  1.983E-01
  3.088E+00  1.544E-02  4.250E-02  6.255E+00  1.967E-01
  3.175E+00  1.588E-02  4.431E-02  6.184E+00  1.945E-01
  3.266E+00  1.633E-02  4.624E-02  6.095E+00  1.917E-01
  3.360E+00  1.680E-02  4.825E-02  6.037E+00  1.899E-01
  3.459E+00  1.729E-02  5.040E-02  5.945E+00  1.880E-01
  3.562E+00  1.781E-02  5.268E-02  5.914E+00  1.870E-01
  3.669E+00  1.835E-02  5.509E-02  5.732E+00  1.813E-01
  3.782E+00  1.891E-02  5.764E-02  5.696E+00  1.801E-01
  3.900E+00  1.950E-02  6.034E-02  5.536E+00  1.751E-01
  4.023E+00  2.012E-02  6.324E-02  5.572E+00  1.777E-01
  4.153E+00  2.076E-02  6.633E-02  5.378E+00  1.748E-01
  4.289E+00  2.144E-02  6.962E-02  5.364E+00  1.805E-01
  4.431E+00  2.216E-02  7.312E-02  5.242E+00  1.810E-01
  4.581E+00  2.291E-02  7.685E-02  5.359E+00  1.850E-01
  4.739E+00  2.369E-02  8.083E-02  5.002E+00  1.760E-01
  4.905E+00  2.452E-02  8.511E-02  4.915E+00  1.754E-01
  5.079E+00  2.540E-02  8.969E-02  4.822E+00  1.745E-01
  5.263E+00  2.632E-02  9.458E-02  4.886E+00  1.768E-01
  5.458E+00  2.729E-02  9.989E-02  4.752E+00  1.720E-01
  5.663E+00  2.831E-02  1.056E-01  4.723E+00  1.709E-01
  5.880E+00  2.940E-02  1.117E-01  4.667E+00  1.715E-01
  6.109E+00  3.055E-02  1.182E-01  4.434E+00  1.679E-01
  6.353E+00  3.176E-02  1.253E-01  4.454E+00  1.687E-01
  6.611E+00  3.305E-02  1.330E-01  4.507E+00  1.804E-01
  6.885E+00  3.442E-02  1.413E-01  4.651E+00  1.761E-01
  7.176E+00  3.588E-02  1.503E-01  4.705E+00  1.742E-01
  7.486E+00  3.743E-02  1.601E-01  4.709E+00  1.851E-01
  7.816E+00  3.908E-02  1.707E-01  4.730E+00  1.858E-01
  8.169E+00  4.084E-02  1.823E-01  4.769E+00  1.853E-01
  8.545E+00  4.273E-02  1.949E-01  4.651E+00  1.846E-01
  8.948E+00  4.474E-02  2.087E-01  4.767E+00  1.922E-01
  9.380E+00  4.690E-02  2.238E-01  4.914E+00  2.014E-01
  9.844E+00  4.922E-02  2.405E-01  4.827E+00  2.010E-01
  1.034E+01  1.034E-01  2.587E-01  5.129E+00  2.060E-01
  1.088E+01  1.088E-01  2.788E-01  5.164E+00  1.990E-01
  1.146E+01  1.146E-01  3.009E-01  5.176E+00  1.977E-01
  1.208E+01  1.208E-01  3.255E-01  5.229E+00  1.884E-01
  1.276E+01  1.276E-01  3.527E-01  5.119E+00  1.792E-01
  1.349E+01  1.349E-01  3.828E-01  5.053E+00  1.722E-01
  1.429E+01  1.429E-01  4.165E-01  5.215E+00  1.734E-01
  1.516E+01  1.516E-01  4.539E-01  5.126E+00  1.685E-01
  1.611E+01  1.611E-01  4.958E-01  5.189E+00  1.705E-01
  1.714E+01  1.714E-01  5.427E-01  5.117E+00  1.701E-01
  1.828E+01  1.828E-01  5.954E-01  4.981E+00  1.753E-01
  1.952E+01  1.952E-01  5.470E-01  4.834E+00  2.081E-01
ENDDATA             69
ENDSUBENT           81
SUBENT        12853048     840127              20050926       0000
BIB                  5          6
REACTION   (72-HF-0(N,TOT),,SIG)
INC-SOURCE (D-LI) WHITE NEUTRON SPECTRUM
METHOD     (TOF)  8.414 METER FLIGHT PATH
SAMPLE     NATURAL HAFNIUM WITH A THICKNESS OF 0.0660 ATOMS/BARN
DETECTOR   BLACK NEUTRON DETECTOR 7.62 CM RADIUS AND 17.78 CM HIGH
             WITH PULSE SHAPE DISCRIMINATION
ENDBIB               6
NOCOMMON             0          0
DATA                 5         66
EN         EN-ERR     EN-RSL-FW  DATA       ERR-T
MEV        MEV        MEV        B          B
  1.817E+00  9.087E-03  1.944E-02  7.319E+00  1.663E-01
  1.856E+00  9.281E-03  1.974E-02  7.167E+00  1.628E-01
  1.896E+00  9.482E-03  2.039E-02  7.257E+00  1.648E-01
  1.938E+00  9.689E-03  2.110E-02  7.216E+00  1.609E-01
  1.981E+00  9.903E-03  2.179E-02  7.303E+00  1.628E-01
  2.025E+00  1.012E-02  2.253E-02  7.204E+00  1.606E-01
  2.071E+00  1.035E-02  2.332E-02  7.328E+00  1.605E-01
  2.118E+00  1.059E-02  2.415E-02  7.221E+00  1.582E-01
  2.167E+00  1.084E-02  2.501E-02  7.242E+00  1.587E-01
  2.218E+00  1.109E-02  2.588E-02  7.247E+00  1.588E-01
  2.271E+00  1.135E-02  2.680E-02  7.295E+00  1.573E-01
  2.325E+00  1.163E-02  2.779E-02  7.190E+00  1.550E-01
  2.382E+00  1.191E-02  2.883E-02  7.269E+00  1.567E-01
  2.441E+00  1.220E-02  2.992E-02  7.221E+00  1.557E-01
  2.502E+00  1.251E-02  3.105E-02  7.115E+00  1.534E-01
  2.565E+00  1.283E-02  3.225E-02  7.189E+00  1.550E-01
  2.631E+00  1.315E-02  3.350E-02  7.127E+00  1.537E-01
  2.699E+00  1.350E-02  3.483E-02  7.082E+00  1.527E-01
  2.770E+00  1.385E-02  3.623E-02  6.990E+00  1.507E-01
  2.844E+00  1.422E-02  3.769E-02  7.074E+00  1.504E-01
  2.921E+00  1.460E-02  3.925E-02  6.976E+00  1.504E-01
  3.001E+00  1.500E-02  4.089E-02  6.925E+00  1.493E-01
  3.084E+00  1.542E-02  4.262E-02  6.844E+00  1.476E-01
  3.171E+00  1.586E-02  4.443E-02  6.964E+00  1.481E-01
  3.262E+00  1.631E-02  4.636E-02  6.797E+00  1.466E-01
  3.357E+00  1.678E-02  4.841E-02  6.825E+00  1.451E-01
  3.456E+00  1.728E-02  5.060E-02  6.704E+00  1.425E-01
  3.559E+00  1.780E-02  5.289E-02  6.687E+00  1.422E-01
  3.667E+00  1.834E-02  5.531E-02  6.629E+00  1.409E-01
  3.780E+00  1.890E-02  5.794E-02  6.627E+00  1.409E-01
  3.899E+00  1.950E-02  6.072E-02  6.516E+00  1.405E-01
  4.023E+00  2.012E-02  6.362E-02  6.478E+00  1.397E-01
  4.154E+00  2.077E-02  6.674E-02  6.470E+00  1.442E-01
  4.290E+00  2.145E-02  7.010E-02  6.216E+00  1.442E-01
  4.434E+00  2.217E-02  7.364E-02  6.255E+00  1.482E-01
  4.585E+00  2.292E-02  7.747E-02  6.100E+00  1.477E-01
  4.744E+00  2.372E-02  8.157E-02  6.040E+00  1.462E-01
  4.911E+00  2.456E-02  8.588E-02  6.044E+00  1.463E-01
  5.087E+00  2.544E-02  9.058E-02  5.932E+00  1.469E-01
  5.273E+00  2.637E-02  9.564E-02  5.884E+00  1.467E-01
  5.470E+00  2.735E-02  1.010E-01  5.733E+00  1.463E-01
  5.678E+00  2.839E-02  1.068E-01  5.913E+00  1.464E-01
  5.897E+00  2.949E-02  1.131E-01  5.581E+00  1.424E-01
  6.130E+00  3.065E-02  1.199E-01  5.640E+00  1.473E-01
  6.377E+00  3.188E-02  1.272E-01  5.436E+00  1.457E-01
  6.639E+00  3.320E-02  1.352E-01  5.526E+00  1.446E-01
  6.918E+00  3.459E-02  1.438E-01  5.371E+00  1.439E-01
  7.214E+00  3.607E-02  1.531E-01  5.212E+00  1.430E-01
  7.530E+00  3.765E-02  1.633E-01  5.260E+00  1.443E-01
  7.867E+00  3.934E-02  1.744E-01  5.347E+00  1.503E-01
  8.228E+00  4.114E-02  1.865E-01  5.352E+00  1.541E-01
  8.613E+00  4.307E-02  1.997E-01  5.339E+00  1.566E-01
  9.027E+00  4.513E-02  2.143E-01  5.315E+00  1.580E-01
  9.470E+00  4.735E-02  2.303E-01  5.512E+00  1.609E-01
  9.948E+00  4.974E-02  2.478E-01  5.502E+00  1.728E-01
  1.046E+01  1.046E-01  2.673E-01  5.475E+00  1.659E-01
  1.102E+01  1.102E-01  2.888E-01  5.361E+00  1.586E-01
  1.162E+01  1.162E-01  3.126E-01  5.315E+00  1.494E-01
  1.227E+01  1.227E-01  3.391E-01  5.383E+00  1.409E-01
  1.297E+01  1.297E-01  3.687E-01  5.249E+00  1.339E-01
  1.374E+01  1.374E-01  4.018E-01  5.414E+00  1.321E-01
  1.458E+01  1.458E-01  4.389E-01  5.445E+00  1.300E-01
  1.550E+01  1.550E-01  4.807E-01  5.484E+00  1.258E-01
  1.650E+01  1.650E-01  5.279E-01  5.489E+00  1.259E-01
  1.761E+01  1.761E-01  5.813E-01  5.507E+00  1.288E-01
  1.883E+01  1.883E-01  6.421E-01  5.435E+00  1.390E-01
ENDDATA             68
ENDSUBENT           79
SUBENT        12853049     840127              20050926       0000
BIB                  5          6
REACTION   (73-TA-0(N,TOT),,SIG)
INC-SOURCE (D-LI) WHITE NEUTRON SPECTRUM
METHOD     (TOF)  8.414 METER FLIGHT PATH
SAMPLE     NATURAL TANTALUM WITH A THICKNESS OF 0.01046 ATOMS/BARN
DETECTOR   BLACK NEUTRON DETECTOR 7.62 CM RADIUS AND 17.78 CM HIGH
             WITH PULSE SHAPE DISCRIMINATION
ENDBIB               6
NOCOMMON             0          0
DATA                 5         66
EN         EN-ERR     EN-RSL-FW  DATA       ERR-T
MEV        MEV        MEV        B          B
  1.822E+00  9.112E-03  1.911E-02  7.116E+00  5.736E-02
  1.861E+00  9.303E-03  1.943E-02  7.196E+00  5.812E-02
  1.900E+00  9.501E-03  2.010E-02  7.180E+00  5.803E-02
  1.941E+00  9.705E-03  2.077E-02  7.172E+00  5.266E-02
  1.983E+00  9.916E-03  2.146E-02  7.180E+00  5.270E-02
  2.027E+00  1.013E-02  2.219E-02  7.209E+00  5.312E-02
  2.072E+00  1.036E-02  2.293E-02  7.215E+00  5.298E-02
  2.119E+00  1.059E-02  2.373E-02  7.227E+00  5.304E-02
  2.167E+00  1.083E-02  2.458E-02  7.188E+00  5.274E-02
  2.217E+00  1.108E-02  2.545E-02  7.151E+00  4.792E-02
  2.269E+00  1.134E-02  2.635E-02  7.229E+00  4.852E-02
  2.322E+00  1.161E-02  2.731E-02  7.195E+00  4.815E-02
  2.378E+00  1.189E-02  2.834E-02  7.155E+00  4.794E-02
  2.436E+00  1.218E-02  2.939E-02  7.209E+00  4.841E-02
  2.496E+00  1.248E-02  3.047E-02  7.133E+00  4.802E-02
  2.558E+00  1.279E-02  3.166E-02  7.095E+00  4.763E-02
  2.622E+00  1.311E-02  3.289E-02  7.108E+00  4.760E-02
  2.689E+00  1.345E-02  3.416E-02  7.068E+00  4.739E-02
  2.759E+00  1.379E-02  3.552E-02  7.028E+00  4.719E-02
  2.831E+00  1.416E-02  3.697E-02  6.997E+00  4.693E-02
  2.907E+00  1.453E-02  3.846E-02  6.982E+00  4.676E-02
  2.985E+00  1.493E-02  4.005E-02  6.970E+00  4.670E-02
  3.067E+00  1.533E-02  4.175E-02  6.918E+00  4.642E-02
  3.152E+00  1.576E-02  4.352E-02  6.887E+00  4.617E-02
  3.241E+00  1.620E-02  4.537E-02  6.819E+00  4.581E-02
  3.334E+00  1.667E-02  4.735E-02  6.812E+00  4.568E-02
  3.430E+00  1.715E-02  4.946E-02  6.690E+00  4.486E-02
  3.531E+00  1.766E-02  5.170E-02  6.669E+00  4.484E-02
  3.637E+00  1.819E-02  5.408E-02  6.611E+00  4.081E-02
  3.748E+00  1.874E-02  5.658E-02  6.563E+00  4.057E-02
  3.863E+00  1.932E-02  5.924E-02  6.506E+00  4.352E-02
  3.985E+00  1.992E-02  6.206E-02  6.450E+00  4.323E-02
  4.112E+00  2.056E-02  6.508E-02  6.379E+00  4.915E-02
  4.245E+00  2.123E-02  6.834E-02  6.296E+00  5.278E-02
  4.385E+00  2.193E-02  7.174E-02  6.210E+00  5.659E-02
  4.532E+00  2.266E-02  7.540E-02  6.193E+00  5.628E-02
  4.687E+00  2.343E-02  7.931E-02  6.023E+00  5.485E-02
  4.849E+00  2.425E-02  8.352E-02  6.034E+00  5.969E-02
  5.021E+00  2.510E-02  8.803E-02  5.870E+00  5.815E-02
  5.201E+00  2.601E-02  9.282E-02  5.817E+00  5.763E-02
  5.392E+00  2.696E-02  9.799E-02  5.764E+00  5.711E-02
  5.593E+00  2.797E-02  1.036E-01  5.764E+00  5.711E-02
  5.806E+00  2.903E-02  1.096E-01  5.618E+00  6.019E-02
  6.032E+00  3.016E-02  1.160E-01  5.638E+00  6.057E-02
  6.270E+00  3.135E-02  1.230E-01  5.518E+00  5.905E-02
  6.524E+00  3.262E-02  1.305E-01  5.443E+00  5.826E-02
  6.792E+00  3.396E-02  1.387E-01  5.374E+00  6.222E-02
  7.078E+00  3.539E-02  1.476E-01  5.293E+00  6.150E-02
  7.383E+00  3.691E-02  1.572E-01  5.134E+00  5.968E-02
  7.707E+00  3.854E-02  1.676E-01  5.302E+00  6.626E-02
  8.053E+00  4.027E-02  1.790E-01  5.122E+00  6.390E-02
  8.423E+00  4.212E-02  1.915E-01  5.123E+00  6.857E-02
  8.819E+00  4.410E-02  2.052E-01  5.190E+00  6.953E-02
  9.244E+00  4.622E-02  2.201E-01  5.125E+00  7.316E-02
  9.700E+00  4.850E-02  2.365E-01  5.227E+00  7.463E-02
  1.019E+01  1.019E-01  2.546E-01  5.218E+00  7.462E-02
  1.072E+01  1.072E-01  2.744E-01  5.270E+00  7.053E-02
  1.129E+01  1.129E-01  2.965E-01  5.332E+00  6.658E-02
  1.190E+01  1.190E-01  3.209E-01  5.405E+00  6.272E-02
  1.257E+01  1.257E-01  3.480E-01  5.374E+00  5.763E-02
  1.330E+01  1.330E-01  3.781E-01  5.345E+00  5.288E-02
  1.408E+01  1.408E-01  4.118E-01  5.407E+00  4.924E-02
  1.494E+01  1.494E-01  4.495E-01  5.466E+00  4.578E-02
  1.588E+01  1.588E-01  4.918E-01  5.482E+00  4.587E-02
  1.691E+01  1.691E-01  5.394E-01  5.454E+00  4.571E-02
  1.804E+01  1.804E-01  5.931E-01  5.424E+00  4.955E-02
ENDDATA             68
ENDSUBENT           79
SUBENT        12853050     840127              20050926       0000
BIB                  5          6
REACTION   (78-PT-0(N,TOT),,SIG)
INC-SOURCE (D-LI) WHITE NEUTRON SPECTRUM
METHOD     (TOF)  8.414 METER FLIGHT PATH
SAMPLE     NATURAL PLATINUM WITH A THICKNESS OF 0.0405 ATOMS/BARN
DETECTOR   BLACK NEUTRON DETECTOR 7.62 CM RADIUS AND 17.78 CM HIGH
             WITH PULSE SHAPE DISCRIMINATION
ENDBIB               6
NOCOMMON             0          0
DATA                 5         67
EN         EN-ERR     EN-RSL-FW  DATA       ERR-T
MEV        MEV        MEV        B          B
  1.820E+00  9.100E-03  1.868E-02  6.419E+00  1.762E-01
  1.857E+00  9.287E-03  1.896E-02  6.626E+00  1.762E-01
  1.896E+00  9.479E-03  1.957E-02  6.737E+00  1.749E-01
  1.936E+00  9.678E-03  2.021E-02  6.528E+00  1.712E-01
  1.977E+00  9.883E-03  2.087E-02  6.740E+00  1.711E-01
  2.019E+00  1.010E-02  2.160E-02  6.672E+00  1.694E-01
  2.063E+00  1.032E-02  2.236E-02  6.793E+00  1.688E-01
  2.109E+00  1.054E-02  2.312E-02  6.699E+00  1.664E-01
  2.156E+00  1.078E-02  2.393E-02  6.919E+00  1.683E-01
  2.204E+00  1.102E-02  2.481E-02  6.873E+00  1.672E-01
  2.255E+00  1.127E-02  2.571E-02  7.013E+00  1.672E-01
  2.307E+00  1.154E-02  2.663E-02  7.206E+00  1.718E-01
  2.361E+00  1.181E-02  2.762E-02  7.000E+00  1.669E-01
  2.418E+00  1.209E-02  2.867E-02  7.088E+00  1.657E-01
  2.476E+00  1.238E-02  2.973E-02  7.197E+00  1.683E-01
  2.536E+00  1.268E-02  3.086E-02  7.258E+00  1.697E-01
  2.599E+00  1.300E-02  3.209E-02  7.252E+00  1.696E-01
  2.665E+00  1.332E-02  3.338E-02  7.335E+00  1.684E-01
  2.733E+00  1.366E-02  3.469E-02  7.158E+00  1.644E-01
  2.804E+00  1.402E-02  3.609E-02  7.367E+00  1.692E-01
  2.877E+00  1.439E-02  3.758E-02  7.486E+00  1.719E-01
  2.954E+00  1.477E-02  3.916E-02  7.329E+00  1.683E-01
  3.034E+00  1.517E-02  4.078E-02  7.336E+00  1.685E-01
  3.117E+00  1.559E-02  4.253E-02  7.275E+00  1.671E-01
  3.204E+00  1.602E-02  4.440E-02  7.187E+00  1.651E-01
  3.295E+00  1.647E-02  4.635E-02  7.425E+00  1.705E-01
  3.389E+00  1.695E-02  4.843E-02  7.403E+00  1.672E-01
  3.488E+00  1.744E-02  5.063E-02  7.264E+00  1.641E-01
  3.592E+00  1.796E-02  5.298E-02  7.221E+00  1.631E-01
  3.700E+00  1.850E-02  5.546E-02  7.360E+00  1.662E-01
  3.814E+00  1.907E-02  5.809E-02  7.167E+00  1.619E-01
  3.933E+00  1.966E-02  6.095E-02  7.277E+00  1.671E-01
  4.058E+00  2.029E-02  6.392E-02  7.416E+00  1.703E-01
  4.188E+00  2.094E-02  6.710E-02  7.232E+00  1.761E-01
  4.326E+00  2.163E-02  7.053E-02  7.059E+00  1.794E-01
  4.470E+00  2.235E-02  7.417E-02  7.267E+00  1.889E-01
  4.623E+00  2.311E-02  7.811E-02  7.030E+00  1.869E-01
  4.783E+00  2.391E-02  8.231E-02  6.839E+00  1.818E-01
  4.952E+00  2.476E-02  8.680E-02  6.920E+00  1.840E-01
  5.130E+00  2.565E-02  9.163E-02  6.882E+00  1.873E-01
  5.318E+00  2.659E-02  9.685E-02  6.362E+00  1.788E-01
  5.518E+00  2.759E-02  1.025E-01  6.538E+00  1.837E-01
  5.728E+00  2.864E-02  1.085E-01  6.107E+00  1.801E-01
  5.951E+00  2.976E-02  1.150E-01  6.375E+00  1.837E-01
  6.188E+00  3.094E-02  1.221E-01  6.182E+00  1.867E-01
  6.440E+00  3.220E-02  1.298E-01  5.903E+00  1.825E-01
  6.707E+00  3.354E-02  1.381E-01  6.025E+00  1.863E-01
  6.992E+00  3.496E-02  1.472E-01  5.338E+00  1.786E-01
  7.296E+00  3.648E-02  1.570E-01  5.394E+00  1.805E-01
  7.620E+00  3.810E-02  1.678E-01  5.407E+00  1.851E-01
  7.967E+00  3.984E-02  1.796E-01  5.283E+00  1.892E-01
  8.339E+00  4.170E-02  1.926E-01  5.283E+00  1.897E-01
  8.738E+00  4.369E-02  2.067E-01  5.275E+00  1.936E-01
  9.166E+00  4.583E-02  2.224E-01  5.263E+00  2.024E-01
  9.627E+00  4.814E-02  2.397E-01  5.116E+00  2.096E-01
  1.012E+01  1.012E-01  2.588E-01  5.247E+00  2.105E-01
  1.066E+01  1.066E-01  2.800E-01  5.350E+00  2.102E-01
  1.125E+01  1.125E-01  3.037E-01  5.466E+00  2.007E-01
  1.188E+01  1.188E-01  3.301E-01  5.303E+00  1.816E-01
  1.257E+01  1.257E-01  3.597E-01  5.334E+00  1.679E-01
  1.332E+01  1.332E-01  3.930E-01  5.332E+00  1.646E-01
  1.414E+01  1.414E-01  4.305E-01  5.627E+00  1.599E-01
  1.504E+01  1.504E-01  4.729E-01  5.635E+00  1.528E-01
  1.603E+01  1.603E-01  5.213E-01  5.556E+00  1.474E-01
  1.712E+01  1.712E-01  5.765E-01  5.683E+00  1.476E-01
  1.834E+01  1.834E-01  6.399E-01  5.822E+00  1.562E-01
  1.968E+01  1.968E-01  7.132E-01  5.913E+00  1.833E-01
ENDDATA             69
ENDSUBENT           80
SUBENT        12853051     840127              20050926       0000
BIB                  5          6
REACTION   (79-AU-197(N,TOT),,SIG)
INC-SOURCE (D-LI) WHITE NEUTRON SPECTRUM
METHOD     (TOF)  8.414 METER FLIGHT PATH
SAMPLE     NATURAL GOLD WITH A THICKNESS OF 0.0846 ATOMS/BARN
DETECTOR   BLACK NEUTRON DETECTOR 7.62 CM RADIUS AND 17.78 CM HIGH
             WITH PULSE SHAPE DISCRIMINATION
ENDBIB               6
NOCOMMON             0          0
DATA                 5         67
EN         EN-ERR     EN-RSL-FW  DATA       ERR-T
MEV        MEV        MEV        B          B
  1.820E+00  9.100E-03  1.868E-02  6.482E+00  6.951E-02
  1.857E+00  9.287E-03  1.896E-02  6.491E+00  6.426E-02
  1.896E+00  9.479E-03  1.957E-02  6.625E+00  6.558E-02
  1.936E+00  9.678E-03  2.021E-02  6.685E+00  6.090E-02
  1.977E+00  9.883E-03  2.087E-02  6.649E+00  6.058E-02
  2.019E+00  1.010E-02  2.160E-02  6.701E+00  6.105E-02
  2.063E+00  1.032E-02  2.236E-02  6.779E+00  6.176E-02
  2.109E+00  1.054E-02  2.312E-02  6.788E+00  5.679E-02
  2.156E+00  1.078E-02  2.393E-02  6.836E+00  5.719E-02
  2.204E+00  1.102E-02  2.481E-02  6.989E+00  5.847E-02
  2.255E+00  1.127E-02  2.571E-02  6.959E+00  5.822E-02
  2.307E+00  1.154E-02  2.663E-02  7.024E+00  5.877E-02
  2.361E+00  1.181E-02  2.762E-02  7.023E+00  5.876E-02
  2.418E+00  1.209E-02  2.867E-02  7.207E+00  5.536E-02
  2.476E+00  1.238E-02  2.973E-02  7.217E+00  5.543E-02
  2.536E+00  1.268E-02  3.086E-02  7.220E+00  5.546E-02
  2.599E+00  1.300E-02  3.209E-02  7.255E+00  5.573E-02
  2.665E+00  1.332E-02  3.338E-02  7.352E+00  5.647E-02
  2.733E+00  1.366E-02  3.469E-02  7.206E+00  5.535E-02
  2.804E+00  1.402E-02  3.609E-02  7.372E+00  5.663E-02
  2.877E+00  1.439E-02  3.758E-02  7.409E+00  5.691E-02
  2.954E+00  1.477E-02  3.916E-02  7.440E+00  5.715E-02
  3.034E+00  1.517E-02  4.078E-02  7.389E+00  5.676E-02
  3.117E+00  1.559E-02  4.253E-02  7.391E+00  5.226E-02
  3.204E+00  1.602E-02  4.440E-02  7.386E+00  5.673E-02
  3.295E+00  1.647E-02  4.635E-02  7.363E+00  5.656E-02
  3.389E+00  1.695E-02  4.843E-02  7.438E+00  5.259E-02
  3.488E+00  1.744E-02  5.063E-02  7.385E+00  5.222E-02
  3.592E+00  1.796E-02  5.298E-02  7.337E+00  5.188E-02
  3.700E+00  1.850E-02  5.546E-02  7.368E+00  5.210E-02
  3.814E+00  1.907E-02  5.809E-02  7.348E+00  5.196E-02
  3.933E+00  1.966E-02  6.095E-02  7.337E+00  5.188E-02
  4.058E+00  2.029E-02  6.392E-02  7.385E+00  5.673E-02
  4.188E+00  2.094E-02  6.710E-02  7.330E+00  6.133E-02
  4.326E+00  2.163E-02  7.053E-02  7.243E+00  6.599E-02
  4.470E+00  2.235E-02  7.417E-02  7.133E+00  7.061E-02
  4.623E+00  2.311E-02  7.811E-02  7.040E+00  7.005E-02
  4.783E+00  2.391E-02  8.231E-02  6.957E+00  6.922E-02
  4.952E+00  2.476E-02  8.680E-02  7.005E+00  6.970E-02
  5.130E+00  2.565E-02  9.163E-02  6.907E+00  7.439E-02
  5.318E+00  2.659E-02  9.685E-02  6.593E+00  7.101E-02
  5.518E+00  2.759E-02  1.025E-01  6.656E+00  7.169E-02
  5.728E+00  2.864E-02  1.085E-01  6.348E+00  7.376E-02
  5.951E+00  2.976E-02  1.150E-01  6.289E+00  7.307E-02
  6.188E+00  3.094E-02  1.221E-01  6.105E+00  7.625E-02
  6.440E+00  3.220E-02  1.298E-01  5.945E+00  7.425E-02
  6.707E+00  3.354E-02  1.381E-01  5.952E+00  7.434E-02
  6.992E+00  3.496E-02  1.472E-01  5.637E+00  7.688E-02
  7.296E+00  3.648E-02  1.570E-01  5.638E+00  7.751E-02
  7.620E+00  3.810E-02  1.678E-01  5.578E+00  8.160E-02
  7.967E+00  3.984E-02  1.796E-01  5.405E+00  8.391E-02
  8.339E+00  4.170E-02  1.926E-01  5.249E+00  8.149E-02
  8.738E+00  4.369E-02  2.067E-01  5.339E+00  8.773E-02
  9.166E+00  4.583E-02  2.224E-01  5.227E+00  9.074E-02
  9.627E+00  4.814E-02  2.397E-01  5.237E+00  9.248E-02
  1.012E+01  1.012E-01  2.588E-01  5.018E+00  9.791E-02
  1.066E+01  1.066E-01  2.800E-01  5.178E+00  9.233E-02
  1.125E+01  1.125E-01  3.037E-01  5.238E+00  8.686E-02
  1.188E+01  1.188E-01  3.301E-01  5.193E+00  8.062E-02
  1.257E+01  1.257E-01  3.597E-01  5.307E+00  7.186E-02
  1.332E+01  1.332E-01  3.930E-01  5.314E+00  6.428E-02
  1.414E+01  1.414E-01  4.305E-01  5.434E+00  6.027E-02
  1.504E+01  1.504E-01  4.729E-01  5.536E+00  5.700E-02
  1.603E+01  1.603E-01  5.213E-01  5.609E+00  5.351E-02
  1.712E+01  1.712E-01  5.765E-01  5.676E+00  5.415E-02
  1.834E+01  1.834E-01  6.399E-01  5.716E+00  5.885E-02
  1.968E+01  1.968E-01  7.132E-01  5.823E+00  7.502E-02
ENDDATA             69
ENDSUBENT           80
SUBENT        12853052     840127              20050926       0000
BIB                  5          6
REACTION   (90-TH-232(N,TOT),,SIG)
INC-SOURCE (D-LI) WHITE NEUTRON SPECTRUM
METHOD     (TOF)  8.414 METER FLIGHT PATH
SAMPLE     NATURAL THORIUM WITH A THICKNESS OF 0.0670 ATOMS/BARN
DETECTOR   BLACK NEUTRON DETECTOR 7.62 CM RADIUS AND 17.78 CM HIGH
             WITH PULSE SHAPE DISCRIMINATION
ENDBIB               6
NOCOMMON             0          0
DATA                 5         68
EN         EN-ERR     EN-RSL-FW  DATA       ERR-T
MEV        MEV        MEV        B          B
  1.817E+00  9.085E-03  1.872E-02  7.096E+00  6.732E-02
  1.854E+00  9.272E-03  1.902E-02  7.131E+00  6.765E-02
  1.893E+00  9.465E-03  1.963E-02  7.158E+00  6.791E-02
  1.933E+00  9.665E-03  2.029E-02  7.205E+00  6.835E-02
  1.974E+00  9.871E-03  2.099E-02  7.204E+00  6.321E-02
  2.017E+00  1.008E-02  2.169E-02  7.221E+00  6.336E-02
  2.061E+00  1.030E-02  2.242E-02  7.321E+00  6.424E-02
  2.107E+00  1.053E-02  2.322E-02  7.360E+00  6.458E-02
  2.154E+00  1.077E-02  2.403E-02  7.344E+00  5.966E-02
  2.203E+00  1.101E-02  2.488E-02  7.390E+00  6.004E-02
  2.253E+00  1.127E-02  2.577E-02  7.482E+00  6.078E-02
  2.306E+00  1.153E-02  2.671E-02  7.541E+00  6.126E-02
  2.360E+00  1.180E-02  2.771E-02  7.529E+00  6.117E-02
  2.417E+00  1.208E-02  2.874E-02  7.528E+00  6.116E-02
  2.475E+00  1.238E-02  2.980E-02  7.689E+00  6.247E-02
  2.536E+00  1.268E-02  2.682E-02  7.668E+00  6.230E-02
  2.582E+00  1.291E-02  2.379E-02  7.778E+00  6.508E-02
  2.631E+00  1.315E-02  2.886E-02  7.747E+00  6.294E-02
  2.698E+00  1.349E-02  3.408E-02  7.787E+00  6.326E-02
  2.767E+00  1.384E-02  3.543E-02  7.873E+00  5.944E-02
  2.840E+00  1.420E-02  3.687E-02  7.891E+00  5.958E-02
  2.915E+00  1.457E-02  3.840E-02  7.943E+00  5.997E-02
  2.993E+00  1.497E-02  4.000E-02  7.948E+00  6.001E-02
  3.075E+00  1.537E-02  4.167E-02  7.962E+00  6.011E-02
  3.160E+00  1.580E-02  4.347E-02  7.949E+00  6.001E-02
  3.249E+00  1.624E-02  4.536E-02  8.021E+00  6.056E-02
  3.341E+00  1.671E-02  4.735E-02  8.004E+00  6.043E-02
  3.438E+00  1.719E-02  4.947E-02  8.039E+00  6.069E-02
  3.539E+00  1.770E-02  5.174E-02  8.079E+00  6.100E-02
  3.645E+00  1.822E-02  5.412E-02  8.025E+00  6.059E-02
  3.756E+00  1.878E-02  5.667E-02  8.030E+00  6.063E-02
  3.872E+00  1.936E-02  5.936E-02  8.074E+00  6.096E-02
  3.993E+00  1.997E-02  6.222E-02  8.022E+00  6.056E-02
  4.121E+00  2.060E-02  6.530E-02  8.021E+00  6.516E-02
  4.254E+00  2.127E-02  6.856E-02  8.016E+00  7.034E-02
  4.395E+00  2.197E-02  7.203E-02  7.998E+00  7.588E-02
  4.542E+00  2.271E-02  7.578E-02  7.901E+00  7.496E-02
  4.698E+00  2.349E-02  7.978E-02  7.866E+00  7.462E-02
  4.862E+00  2.431E-02  8.405E-02  7.840E+00  7.438E-02
  5.034E+00  2.517E-02  8.862E-02  7.691E+00  7.881E-02
  5.216E+00  2.608E-02  9.356E-02  7.659E+00  7.848E-02
  5.408E+00  2.704E-02  9.885E-02  7.552E+00  7.738E-02
  5.611E+00  2.806E-02  1.045E-01  7.411E+00  7.594E-02
  5.826E+00  2.913E-02  1.107E-01  7.338E+00  7.519E-02
  6.054E+00  3.027E-02  1.173E-01  7.149E+00  7.896E-02
  6.296E+00  3.148E-02  1.245E-01  7.107E+00  7.882E-02
  6.552E+00  3.276E-02  1.323E-01  6.938E+00  8.268E-02
  6.825E+00  3.413E-02  1.407E-01  6.827E+00  8.135E-02
  7.115E+00  3.558E-02  1.499E-01  6.590E+00  7.853E-02
  7.425E+00  3.712E-02  1.599E-01  6.482E+00  8.276E-02
  7.755E+00  3.878E-02  1.708E-01  6.254E+00  8.529E-02
  8.108E+00  4.054E-02  1.827E-01  6.350E+00  8.660E-02
  8.486E+00  4.243E-02  1.958E-01  6.151E+00  8.389E-02
  8.891E+00  4.446E-02  2.488E-01  6.155E+00  8.941E-02
  9.481E+00  4.741E-02  2.862E-01  6.025E+00  8.478E-02
  1.004E+01  1.004E-01  2.695E-01  5.948E+00  9.234E-02
  1.056E+01  1.056E-01  2.720E-01  5.916E+00  9.184E-02
  1.112E+01  1.112E-01  2.942E-01  5.936E+00  8.684E-02
  1.174E+01  1.174E-01  3.189E-01  5.768E+00  7.867E-02
  1.240E+01  1.240E-01  3.465E-01  5.868E+00  7.492E-02
  1.312E+01  1.312E-01  3.773E-01  5.815E+00  6.449E-02
  1.391E+01  1.391E-01  4.118E-01  5.933E+00  6.108E-02
  1.477E+01  1.477E-01  4.506E-01  6.012E+00  5.735E-02
  1.571E+01  1.571E-01  4.945E-01  6.038E+00  5.760E-02
  1.675E+01  1.675E-01  5.441E-01  6.109E+00  5.828E-02
  1.789E+01  1.789E-01  6.005E-01  6.260E+00  5.972E-02
  1.915E+01  1.915E-01  5.894E-01  6.264E+00  7.464E-02
  2.025E+01  2.025E-01  5.483E-01  6.437E+00  1.426E-01
ENDDATA             70
ENDSUBENT           81
SUBENT        12853053     840127              20050926       0000
BIB                  5          7
REACTION   (92-U-233(N,TOT),,SIG)
INC-SOURCE (D-LI) WHITE NEUTRON SPECTRUM
METHOD     (TOF)  8.414 METER FLIGHT PATH
SAMPLE     ENRICHED U-233 WITH A THICKNESS OF 0.0944 ATOMS/BARN
            CANNED IN STAINLESS STEEL
DETECTOR   BLACK NEUTRON DETECTOR 7.62 CM RADIUS AND 17.78 CM HIGH
             WITH PULSE SHAPE DISCRIMINATION
ENDBIB               7
NOCOMMON             0          0
DATA                 5         68
EN         EN-ERR     EN-RSL-FW  DATA       ERR-T
MEV        MEV        MEV        B          B
  1.817E+00  9.085E-03  1.872E-02  7.053E+00  1.135E-01
  1.854E+00  9.272E-03  1.902E-02  7.052E+00  1.135E-01
  1.893E+00  9.465E-03  1.963E-02  7.099E+00  1.142E-01
  1.933E+00  9.665E-03  2.029E-02  7.150E+00  1.151E-01
  1.974E+00  9.871E-03  2.099E-02  7.108E+00  1.144E-01
  2.017E+00  1.008E-02  2.169E-02  7.177E+00  1.155E-01
  2.061E+00  1.030E-02  2.242E-02  7.260E+00  1.168E-01
  2.107E+00  1.053E-02  2.322E-02  7.284E+00  1.152E-01
  2.154E+00  1.077E-02  2.403E-02  7.365E+00  1.165E-01
  2.203E+00  1.101E-02  2.488E-02  7.396E+00  1.169E-01
  2.253E+00  1.127E-02  2.577E-02  7.465E+00  1.180E-01
  2.306E+00  1.153E-02  2.671E-02  7.489E+00  1.184E-01
  2.360E+00  1.180E-02  2.771E-02  7.482E+00  1.183E-01
  2.417E+00  1.208E-02  2.874E-02  7.604E+00  1.202E-01
  2.475E+00  1.238E-02  2.980E-02  7.666E+00  1.212E-01
  2.536E+00  1.268E-02  2.682E-02  7.658E+00  1.211E-01
  2.582E+00  1.291E-02  2.379E-02  7.748E+00  1.213E-01
  2.631E+00  1.315E-02  2.886E-02  7.737E+00  1.206E-01
  2.698E+00  1.349E-02  3.408E-02  7.760E+00  1.210E-01
  2.767E+00  1.384E-02  3.543E-02  7.828E+00  1.220E-01
  2.840E+00  1.420E-02  3.687E-02  7.890E+00  1.230E-01
  2.915E+00  1.457E-02  3.840E-02  7.924E+00  1.235E-01
  2.993E+00  1.497E-02  4.000E-02  7.947E+00  1.239E-01
  3.075E+00  1.537E-02  4.167E-02  7.967E+00  1.242E-01
  3.160E+00  1.580E-02  4.347E-02  7.994E+00  1.246E-01
  3.249E+00  1.624E-02  4.536E-02  8.007E+00  1.248E-01
  3.341E+00  1.671E-02  4.735E-02  8.054E+00  1.255E-01
  3.438E+00  1.719E-02  4.947E-02  8.090E+00  1.261E-01
  3.539E+00  1.770E-02  5.174E-02  8.056E+00  1.256E-01
  3.645E+00  1.822E-02  5.412E-02  8.066E+00  1.257E-01
  3.756E+00  1.878E-02  5.667E-02  8.071E+00  1.258E-01
  3.872E+00  1.936E-02  5.936E-02  8.074E+00  1.259E-01
  3.993E+00  1.997E-02  6.222E-02  8.109E+00  1.264E-01
  4.121E+00  2.060E-02  6.530E-02  8.067E+00  1.258E-01
  4.254E+00  2.127E-02  6.856E-02  8.060E+00  1.277E-01
  4.395E+00  2.197E-02  7.203E-02  8.078E+00  1.303E-01
  4.542E+00  2.271E-02  7.578E-02  8.055E+00  1.299E-01
  4.698E+00  2.349E-02  7.978E-02  7.901E+00  1.274E-01
  4.862E+00  2.431E-02  8.405E-02  7.804E+00  1.285E-01
  5.034E+00  2.517E-02  8.862E-02  7.769E+00  1.279E-01
  5.216E+00  2.608E-02  9.356E-02  7.613E+00  1.253E-01
  5.408E+00  2.704E-02  9.885E-02  7.565E+00  1.245E-01
  5.611E+00  2.806E-02  1.045E-01  7.412E+00  1.220E-01
  5.826E+00  2.913E-02  1.107E-01  7.310E+00  1.203E-01
  6.054E+00  3.027E-02  1.173E-01  7.218E+00  1.216E-01
  6.296E+00  3.148E-02  1.245E-01  7.172E+00  1.209E-01
  6.552E+00  3.276E-02  1.323E-01  6.965E+00  1.174E-01
  6.825E+00  3.413E-02  1.407E-01  6.808E+00  1.147E-01
  7.115E+00  3.558E-02  1.499E-01  6.730E+00  1.134E-01
  7.425E+00  3.712E-02  1.599E-01  6.540E+00  1.131E-01
  7.755E+00  3.878E-02  1.708E-01  6.484E+00  1.121E-01
  8.108E+00  4.054E-02  1.827E-01  6.374E+00  1.133E-01
  8.486E+00  4.243E-02  1.958E-01  6.160E+00  1.095E-01
  8.891E+00  4.446E-02  2.488E-01  6.092E+00  1.115E-01
  9.481E+00  4.741E-02  2.862E-01  6.024E+00  1.083E-01
  1.004E+01  1.004E-01  2.695E-01  6.090E+00  1.154E-01
  1.056E+01  1.056E-01  2.720E-01  5.940E+00  1.121E-01
  1.112E+01  1.112E-01  2.942E-01  5.984E+00  1.095E-01
  1.174E+01  1.174E-01  3.189E-01  5.817E+00  1.045E-01
  1.240E+01  1.240E-01  3.465E-01  5.825E+00  1.019E-01
  1.312E+01  1.312E-01  3.773E-01  5.868E+00  1.001E-01
  1.391E+01  1.391E-01  4.118E-01  5.934E+00  9.751E-02
  1.477E+01  1.477E-01  4.506E-01  5.950E+00  9.777E-02
  1.571E+01  1.571E-01  4.945E-01  6.053E+00  9.741E-02
  1.675E+01  1.675E-01  5.441E-01  6.067E+00  9.764E-02
  1.789E+01  1.789E-01  6.005E-01  6.190E+00  1.019E-01
  1.915E+01  1.915E-01  5.894E-01  6.215E+00  1.075E-01
  2.025E+01  2.025E-01  5.483E-01  6.333E+00  1.415E-01
ENDDATA             70
ENDSUBENT           82
SUBENT        12853054     840127              20050926       0000
BIB                  5          6
REACTION   (92-U-235(N,TOT),,SIG)
INC-SOURCE (D-LI) WHITE NEUTRON SPECTRUM
METHOD     (TOF)  8.414 METER FLIGHT PATH
SAMPLE     ENRICHED U-235 WITH A THICKNESS OF 0.0971 ATOMS/BARN
DETECTOR   BLACK NEUTRON DETECTOR 7.62 CM RADIUS AND 17.78 CM HIGH
             WITH PULSE SHAPE DISCRIMINATION
ENDBIB               6
NOCOMMON             0          0
DATA                 5         68
EN         EN-ERR     EN-RSL-FW  DATA       ERR-T
MEV        MEV        MEV        B          B
  1.817E+00  9.085E-03  1.872E-02  7.046E+00  5.895E-02
  1.854E+00  9.272E-03  1.902E-02  7.070E+00  5.915E-02
  1.893E+00  9.465E-03  1.963E-02  7.120E+00  5.957E-02
  1.933E+00  9.665E-03  2.029E-02  7.139E+00  5.973E-02
  1.974E+00  9.871E-03  2.099E-02  7.207E+00  6.030E-02
  2.017E+00  1.008E-02  2.169E-02  7.137E+00  5.971E-02
  2.061E+00  1.030E-02  2.242E-02  7.310E+00  5.709E-02
  2.107E+00  1.053E-02  2.322E-02  7.283E+00  5.688E-02
  2.154E+00  1.077E-02  2.403E-02  7.377E+00  5.762E-02
  2.203E+00  1.101E-02  2.488E-02  7.325E+00  5.721E-02
  2.253E+00  1.127E-02  2.577E-02  7.468E+00  5.833E-02
  2.306E+00  1.153E-02  2.671E-02  7.458E+00  5.825E-02
  2.360E+00  1.180E-02  2.771E-02  7.533E+00  5.883E-02
  2.417E+00  1.208E-02  2.874E-02  7.510E+00  5.865E-02
  2.475E+00  1.238E-02  2.980E-02  7.608E+00  5.942E-02
  2.536E+00  1.268E-02  2.682E-02  7.639E+00  5.613E-02
  2.582E+00  1.291E-02  2.379E-02  7.757E+00  5.805E-02
  2.631E+00  1.315E-02  2.886E-02  7.688E+00  5.650E-02
  2.698E+00  1.349E-02  3.408E-02  7.759E+00  5.702E-02
  2.767E+00  1.384E-02  3.543E-02  7.781E+00  5.718E-02
  2.840E+00  1.420E-02  3.687E-02  7.841E+00  5.762E-02
  2.915E+00  1.457E-02  3.840E-02  7.900E+00  5.805E-02
  2.993E+00  1.497E-02  4.000E-02  7.890E+00  5.798E-02
  3.075E+00  1.537E-02  4.167E-02  7.890E+00  5.798E-02
  3.160E+00  1.580E-02  4.347E-02  7.920E+00  5.820E-02
  3.249E+00  1.624E-02  4.536E-02  7.978E+00  5.863E-02
  3.341E+00  1.671E-02  4.735E-02  7.982E+00  5.866E-02
  3.438E+00  1.719E-02  4.947E-02  8.000E+00  5.879E-02
  3.539E+00  1.770E-02  5.174E-02  8.001E+00  5.880E-02
  3.645E+00  1.822E-02  5.412E-02  8.001E+00  5.601E-02
  3.756E+00  1.878E-02  5.667E-02  8.016E+00  5.611E-02
  3.872E+00  1.936E-02  5.936E-02  8.041E+00  5.629E-02
  3.993E+00  1.997E-02  6.222E-02  8.019E+00  5.613E-02
  4.121E+00  2.060E-02  6.530E-02  8.027E+00  5.619E-02
  4.254E+00  2.127E-02  6.856E-02  8.060E+00  6.032E-02
  4.395E+00  2.197E-02  7.203E-02  7.980E+00  6.483E-02
  4.542E+00  2.271E-02  7.578E-02  7.917E+00  6.671E-02
  4.698E+00  2.349E-02  7.978E-02  7.961E+00  6.708E-02
  4.862E+00  2.431E-02  8.405E-02  7.819E+00  6.588E-02
  5.034E+00  2.517E-02  8.862E-02  7.722E+00  6.993E-02
  5.216E+00  2.608E-02  9.356E-02  7.610E+00  6.891E-02
  5.408E+00  2.704E-02  9.885E-02  7.502E+00  6.793E-02
  5.611E+00  2.806E-02  1.045E-01  7.311E+00  6.620E-02
  5.826E+00  2.913E-02  1.107E-01  7.253E+00  6.568E-02
  6.054E+00  3.027E-02  1.173E-01  7.154E+00  6.973E-02
  6.296E+00  3.148E-02  1.245E-01  7.028E+00  6.850E-02
  6.552E+00  3.276E-02  1.323E-01  6.928E+00  6.753E-02
  6.825E+00  3.413E-02  1.407E-01  6.810E+00  6.638E-02
  7.115E+00  3.558E-02  1.499E-01  6.688E+00  6.519E-02
  7.425E+00  3.712E-02  1.599E-01  6.480E+00  6.796E-02
  7.755E+00  3.878E-02  1.708E-01  6.307E+00  6.704E-02
  8.108E+00  4.054E-02  1.827E-01  6.370E+00  7.263E-02
  8.486E+00  4.243E-02  1.958E-01  6.266E+00  7.144E-02
  8.891E+00  4.446E-02  2.488E-01  6.219E+00  7.091E-02
  9.481E+00  4.741E-02  2.862E-01  6.068E+00  6.592E-02
  1.004E+01  1.004E-01  2.695E-01  5.950E+00  7.871E-02
  1.056E+01  1.056E-01  2.720E-01  5.859E+00  7.271E-02
  1.112E+01  1.112E-01  2.942E-01  5.762E+00  7.311E-02
  1.174E+01  1.174E-01  3.189E-01  5.783E+00  6.335E-02
  1.240E+01  1.240E-01  3.465E-01  5.766E+00  5.708E-02
  1.312E+01  1.312E-01  3.773E-01  5.888E+00  5.739E-02
  1.391E+01  1.391E-01  4.118E-01  5.973E+00  5.409E-02
  1.477E+01  1.477E-01  4.506E-01  5.937E+00  5.003E-02
  1.571E+01  1.571E-01  4.945E-01  6.037E+00  5.087E-02
  1.675E+01  1.675E-01  5.441E-01  6.085E+00  5.127E-02
  1.789E+01  1.789E-01  6.005E-01  6.201E+00  5.225E-02
  1.915E+01  1.915E-01  5.894E-01  6.179E+00  6.117E-02
  2.025E+01  2.025E-01  5.483E-01  6.298E+00  1.065E-01
ENDDATA             70
ENDSUBENT           81
SUBENT        12853055     840127              20050926       0000
BIB                  5          6
REACTION   (92-U-0(N,TOT),,SIG)
INC-SOURCE (D-LI) WHITE NEUTRON SPECTRUM
METHOD     (TOF)  8.414 METER FLIGHT PATH
SAMPLE     NATURAL URANIUM WITH A THICKNESS OF 0.0869 ATOMS/BARN
DETECTOR   BLACK NEUTRON DETECTOR 7.62 CM RADIUS AND 17.78 CM HIGH
             WITH PULSE SHAPE DISCRIMINATION
ENDBIB               6
NOCOMMON             0          0
DATA                 5         68
EN         EN-ERR     EN-RSL-FW  DATA       ERR-T
MEV        MEV        MEV        B          B
  1.817E+00  9.085E-03  1.893E-02  7.133E+00  4.567E-02
  1.855E+00  9.274E-03  1.923E-02  7.210E+00  4.617E-02
  1.894E+00  9.470E-03  1.986E-02  7.207E+00  4.615E-02
  1.934E+00  9.672E-03  2.054E-02  7.252E+00  4.644E-02
  1.976E+00  9.880E-03  2.124E-02  7.252E+00  4.229E-02
  2.019E+00  1.010E-02  2.195E-02  7.257E+00  4.232E-02
  2.064E+00  1.032E-02  2.268E-02  7.289E+00  4.250E-02
  2.110E+00  1.055E-02  2.349E-02  7.368E+00  4.296E-02
  2.158E+00  1.079E-02  2.432E-02  7.414E+00  4.323E-02
  2.207E+00  1.104E-02  2.517E-02  7.446E+00  4.342E-02
  2.259E+00  1.129E-02  2.608E-02  7.467E+00  4.354E-02
  2.312E+00  1.156E-02  2.703E-02  7.470E+00  4.356E-02
  2.367E+00  1.183E-02  2.804E-02  7.527E+00  4.389E-02
  2.424E+00  1.212E-02  2.908E-02  7.529E+00  4.390E-02
  2.483E+00  1.241E-02  3.016E-02  7.634E+00  4.451E-02
  2.544E+00  1.272E-02  3.133E-02  7.650E+00  4.461E-02
  2.608E+00  1.304E-02  3.254E-02  7.650E+00  4.461E-02
  2.675E+00  1.337E-02  3.381E-02  7.722E+00  4.503E-02
  2.744E+00  1.372E-02  3.516E-02  7.783E+00  4.191E-02
  2.815E+00  1.408E-02  3.659E-02  7.804E+00  4.203E-02
  2.890E+00  1.445E-02  3.810E-02  7.827E+00  4.215E-02
  2.968E+00  1.484E-02  3.967E-02  7.820E+00  4.211E-02
  3.049E+00  1.524E-02  4.131E-02  7.894E+00  4.251E-02
  3.133E+00  1.566E-02  4.308E-02  7.903E+00  4.256E-02
  3.221E+00  1.610E-02  4.496E-02  7.926E+00  4.268E-02
  3.313E+00  1.656E-02  4.692E-02  7.929E+00  4.270E-02
  3.409E+00  1.704E-02  4.900E-02  7.970E+00  4.292E-02
  3.509E+00  1.754E-02  3.691E-02  7.941E+00  4.276E-02
  3.556E+00  1.778E-02  2.950E-02  8.038E+00  4.823E-02
  3.627E+00  1.813E-02  4.517E-02  7.960E+00  4.287E-02
  3.737E+00  1.868E-02  5.639E-02  7.946E+00  4.279E-02
  3.852E+00  1.926E-02  5.906E-02  7.967E+00  4.290E-02
  3.973E+00  1.987E-02  6.190E-02  7.967E+00  4.290E-02
  4.100E+00  2.050E-02  6.494E-02  7.939E+00  4.629E-02
  4.233E+00  2.116E-02  6.816E-02  7.976E+00  4.651E-02
  4.373E+00  2.186E-02  7.160E-02  7.829E+00  5.074E-02
  4.519E+00  2.260E-02  7.529E-02  7.823E+00  5.070E-02
  4.674E+00  2.337E-02  7.925E-02  7.764E+00  5.032E-02
  4.836E+00  2.418E-02  8.347E-02  7.761E+00  5.030E-02
  5.008E+00  2.504E-02  8.797E-02  7.626E+00  4.942E-02
  5.188E+00  2.594E-02  9.283E-02  7.574E+00  4.909E-02
  5.379E+00  2.689E-02  9.806E-02  7.466E+00  5.332E-02
  5.580E+00  2.790E-02  1.037E-01  7.368E+00  5.262E-02
  5.794E+00  2.897E-02  1.097E-01  7.278E+00  5.198E-02
  6.019E+00  3.010E-02  1.163E-01  7.217E+00  5.154E-02
  6.259E+00  3.129E-02  1.233E-01  7.124E+00  5.088E-02
  6.513E+00  3.256E-02  1.310E-01  6.932E+00  4.950E-02
  6.783E+00  3.391E-02  1.393E-01  6.806E+00  4.860E-02
  7.070E+00  3.535E-02  1.482E-01  6.687E+00  5.265E-02
  7.375E+00  3.688E-02  1.580E-01  6.643E+00  5.231E-02
  7.702E+00  3.851E-02  1.687E-01  6.501E+00  5.241E-02
  8.050E+00  4.025E-02  1.804E-01  6.360E+00  5.617E-02
  8.423E+00  4.212E-02  1.931E-01  6.314E+00  5.576E-02
  8.823E+00  4.411E-02  2.071E-01  6.298E+00  5.806E-02
  9.252E+00  4.626E-02  2.224E-01  6.125E+00  6.276E-02
  9.712E+00  4.856E-02  2.393E-01  6.054E+00  6.204E-02
  1.021E+01  1.021E-01  2.580E-01  5.904E+00  6.050E-02
  1.074E+01  1.074E-01  2.786E-01  5.924E+00  6.070E-02
  1.132E+01  1.132E-01  3.728E-01  5.868E+00  5.567E-02
  1.224E+01  1.224E-01  4.390E-01  5.849E+00  4.568E-02
  1.308E+01  1.308E-01  4.057E-01  5.855E+00  4.459E-02
  1.386E+01  1.386E-01  4.077E-01  5.923E+00  4.511E-02
  1.471E+01  1.471E-01  4.458E-01  5.969E+00  4.178E-02
  1.564E+01  1.564E-01  4.886E-01  6.051E+00  4.236E-02
  1.666E+01  1.666E-01  5.370E-01  6.080E+00  4.256E-02
  1.779E+01  1.779E-01  5.920E-01  6.172E+00  4.320E-02
  1.903E+01  1.903E-01  6.624E-01  6.201E+00  4.843E-02
  2.044E+01  2.044E-01  7.035E-01  6.342E+00  7.259E-02
ENDDATA             70
ENDSUBENT           81
SUBENT        12853056     840127              20050926       0000
BIB                  5          7
REACTION   (94-PU-239(N,TOT),,SIG)
INC-SOURCE (D-LI) WHITE NEUTRON SPECTRUM
METHOD     (TOF)  8.414 METER FLIGHT PATH
SAMPLE     ENRICHED PU-239 WITH A THICKNESS OF 0.0892 ATOMS/BARN
            CANNED IN STAINLESS STEEL
DETECTOR   BLACK NEUTRON DETECTOR 7.62 CM RADIUS AND 17.78 CM HIGH
             WITH PULSE SHAPE DISCRIMINATION
ENDBIB               7
NOCOMMON             0          0
DATA                 5         67
EN         EN-ERR     EN-RSL-FW  DATA       ERR-T
MEV        MEV        MEV        B          B
  1.818E+00  9.090E-03  1.881E-02  7.193E+00  8.691E-02
  1.856E+00  9.278E-03  1.912E-02  7.260E+00  8.772E-02
  1.894E+00  9.472E-03  1.975E-02  7.256E+00  8.767E-02
  1.935E+00  9.673E-03  2.042E-02  7.298E+00  8.818E-02
  1.976E+00  9.881E-03  2.111E-02  7.366E+00  8.900E-02
  2.019E+00  1.010E-02  2.183E-02  7.381E+00  8.918E-02
  2.063E+00  1.032E-02  2.257E-02  7.393E+00  8.933E-02
  2.109E+00  1.055E-02  2.336E-02  7.449E+00  8.782E-02
  2.157E+00  1.078E-02  2.419E-02  7.518E+00  8.864E-02
  2.206E+00  1.103E-02  2.505E-02  7.495E+00  8.836E-02
  2.257E+00  1.129E-02  2.596E-02  7.578E+00  8.934E-02
  2.310E+00  1.155E-02  2.690E-02  7.606E+00  8.967E-02
  2.365E+00  1.182E-02  2.789E-02  7.604E+00  8.965E-02
  2.422E+00  1.211E-02  2.895E-02  7.654E+00  9.024E-02
  2.480E+00  1.240E-02  3.004E-02  7.711E+00  9.091E-02
  2.542E+00  1.271E-02  3.120E-02  7.749E+00  9.136E-02
  2.605E+00  1.303E-02  3.243E-02  7.786E+00  9.180E-02
  2.671E+00  1.336E-02  3.369E-02  7.757E+00  9.145E-02
  2.740E+00  1.370E-02  3.503E-02  7.870E+00  9.110E-02
  2.811E+00  1.406E-02  3.646E-02  7.870E+00  9.110E-02
  2.886E+00  1.443E-02  3.795E-02  7.947E+00  9.199E-02
  2.963E+00  1.482E-02  3.954E-02  7.971E+00  9.227E-02
  3.044E+00  1.522E-02  4.122E-02  7.936E+00  9.187E-02
  3.128E+00  1.564E-02  4.296E-02  7.990E+00  9.249E-02
  3.216E+00  1.608E-02  4.483E-02  8.039E+00  9.306E-02
  3.308E+00  1.654E-02  4.683E-02  8.050E+00  9.143E-02
  3.403E+00  1.702E-02  4.891E-02  8.012E+00  9.275E-02
  3.503E+00  1.752E-02  5.115E-02  8.064E+00  9.335E-02
  3.608E+00  1.804E-02  5.350E-02  8.054E+00  9.148E-02
  3.717E+00  1.859E-02  5.599E-02  8.075E+00  9.171E-02
  3.832E+00  1.916E-02  5.868E-02  8.099E+00  9.199E-02
  3.952E+00  1.976E-02  6.151E-02  8.084E+00  9.182E-02
  4.078E+00  2.039E-02  6.453E-02  8.083E+00  9.357E-02
  4.210E+00  2.105E-02  6.778E-02  8.007E+00  9.440E-02
  4.349E+00  2.174E-02  7.121E-02  7.983E+00  9.479E-02
  4.495E+00  2.247E-02  7.489E-02  7.943E+00  9.598E-02
  4.648E+00  2.324E-02  7.884E-02  7.890E+00  9.823E-02
  4.810E+00  2.405E-02  8.308E-02  7.851E+00  9.774E-02
  4.981E+00  2.490E-02  8.759E-02  7.748E+00  9.646E-02
  5.161E+00  2.580E-02  9.246E-02  7.693E+00  9.578E-02
  5.351E+00  2.675E-02  9.771E-02  7.636E+00  9.507E-02
  5.551E+00  2.776E-02  1.033E-01  7.615E+00  9.481E-02
  5.764E+00  2.882E-02  1.094E-01  7.522E+00  9.365E-02
  5.989E+00  2.995E-02  1.160E-01  7.276E+00  9.059E-02
  6.228E+00  3.114E-02  1.231E-01  7.153E+00  9.216E-02
  6.482E+00  3.241E-02  1.308E-01  7.087E+00  9.131E-02
  6.751E+00  3.376E-02  1.392E-01  6.994E+00  9.011E-02
  7.038E+00  3.519E-02  1.483E-01  6.882E+00  8.867E-02
  7.344E+00  3.672E-02  1.582E-01  6.770E+00  8.723E-02
  7.671E+00  3.836E-02  1.690E-01  6.652E+00  8.900E-02
  8.020E+00  4.010E-02  1.808E-01  6.526E+00  8.731E-02
  8.394E+00  4.197E-02  1.937E-01  6.380E+00  8.560E-02
  8.795E+00  4.398E-02  2.080E-01  6.367E+00  8.542E-02
  9.226E+00  4.613E-02  2.236E-01  6.265E+00  8.749E-02
  9.690E+00  4.845E-02  2.409E-01  6.216E+00  8.680E-02
  1.019E+01  1.019E-01  2.599E-01  6.133E+00  8.930E-02
  1.073E+01  1.073E-01  2.811E-01  6.051E+00  8.810E-02
  1.131E+01  1.131E-01  3.046E-01  5.994E+00  8.370E-02
  1.195E+01  1.195E-01  3.308E-01  5.965E+00  8.003E-02
  1.264E+01  1.264E-01  3.602E-01  5.987E+00  7.737E-02
  1.339E+01  1.339E-01  3.931E-01  5.968E+00  7.430E-02
  1.421E+01  1.421E-01  4.302E-01  6.052E+00  7.535E-02
  1.511E+01  1.511E-01  4.721E-01  6.114E+00  7.388E-02
  1.719E+01  1.719E-01  5.738E-01  6.142E+00  7.421E-02
  1.839E+01  1.839E-01  6.357E-01  6.220E+00  7.744E-02
  1.973E+01  1.973E-01  6.282E-01  6.205E+00  8.325E-02
  2.091E+01  2.091E-01  5.875E-01  6.295E+00  1.193E-01
ENDDATA             69
ENDSUBENT           81
SUBENT        12853057     840127              20050926       0000
BIB                  5          7
REACTION   (94-PU-240(N,TOT),,SIG)
INC-SOURCE (D-LI) WHITE NEUTRON SPECTRUM
METHOD     (TOF)  8.414 METER FLIGHT PATH
SAMPLE     ENRICHED PU-240 WITH A THICKNESS OF 0.724 ATOMS/BARN
            CANNED IN STAINLESS STEEL
DETECTOR   BLACK NEUTRON DETECTOR 7.62 CM RADIUS AND 17.78 CM HIGH
             WITH PULSE SHAPE DISCRIMINATION
ENDBIB               7
NOCOMMON             0          0
DATA                 5         68
EN         EN-ERR     EN-RSL-FW  DATA       ERR-T
MEV        MEV        MEV        B          B
  1.818E+00  9.090E-03  1.881E-02  7.122E+00  1.280E-01
  1.856E+00  9.278E-03  1.912E-02  7.165E+00  1.288E-01
  1.894E+00  9.472E-03  1.975E-02  7.218E+00  1.297E-01
  1.935E+00  9.673E-03  2.042E-02  7.210E+00  1.296E-01
  1.976E+00  9.881E-03  2.111E-02  7.272E+00  1.289E-01
  2.019E+00  1.010E-02  2.183E-02  7.244E+00  1.284E-01
  2.063E+00  1.032E-02  2.257E-02  7.293E+00  1.292E-01
  2.109E+00  1.055E-02  2.336E-02  7.361E+00  1.304E-01
  2.157E+00  1.078E-02  2.419E-02  7.393E+00  1.310E-01
  2.206E+00  1.103E-02  2.505E-02  7.439E+00  1.318E-01
  2.257E+00  1.129E-02  2.596E-02  7.494E+00  1.328E-01
  2.310E+00  1.155E-02  2.690E-02  7.479E+00  1.325E-01
  2.365E+00  1.182E-02  2.789E-02  7.515E+00  1.332E-01
  2.422E+00  1.211E-02  2.895E-02  7.559E+00  1.339E-01
  2.480E+00  1.240E-02  3.004E-02  7.546E+00  1.322E-01
  2.542E+00  1.271E-02  3.120E-02  7.639E+00  1.338E-01
  2.605E+00  1.303E-02  3.243E-02  7.659E+00  1.342E-01
  2.671E+00  1.336E-02  3.369E-02  7.711E+00  1.351E-01
  2.740E+00  1.370E-02  3.503E-02  7.783E+00  1.364E-01
  2.811E+00  1.406E-02  3.646E-02  7.723E+00  1.353E-01
  2.886E+00  1.443E-02  3.795E-02  7.726E+00  1.354E-01
  2.963E+00  1.482E-02  3.954E-02  7.814E+00  1.369E-01
  3.044E+00  1.522E-02  4.122E-02  7.855E+00  1.376E-01
  3.128E+00  1.564E-02  4.296E-02  7.915E+00  1.387E-01
  3.216E+00  1.608E-02  4.483E-02  7.888E+00  1.382E-01
  3.308E+00  1.654E-02  4.683E-02  7.916E+00  1.387E-01
  3.403E+00  1.702E-02  4.891E-02  7.931E+00  1.390E-01
  3.503E+00  1.752E-02  5.115E-02  7.930E+00  1.389E-01
  3.608E+00  1.804E-02  5.350E-02  7.901E+00  1.373E-01
  3.717E+00  1.859E-02  5.599E-02  7.918E+00  1.376E-01
  3.832E+00  1.916E-02  5.868E-02  7.926E+00  1.389E-01
  3.952E+00  1.976E-02  6.151E-02  7.952E+00  1.393E-01
  4.078E+00  2.039E-02  6.453E-02  7.921E+00  1.388E-01
  4.210E+00  2.105E-02  6.778E-02  7.891E+00  1.398E-01
  4.349E+00  2.174E-02  7.121E-02  7.863E+00  1.413E-01
  4.495E+00  2.247E-02  7.489E-02  7.818E+00  1.405E-01
  4.648E+00  2.324E-02  7.884E-02  7.798E+00  1.401E-01
  4.810E+00  2.405E-02  8.308E-02  7.765E+00  1.396E-01
  4.981E+00  2.490E-02  8.759E-02  7.562E+00  1.382E-01
  5.161E+00  2.580E-02  9.246E-02  7.595E+00  1.390E-01
  5.351E+00  2.675E-02  9.771E-02  7.403E+00  1.355E-01
  5.551E+00  2.776E-02  1.033E-01  7.356E+00  1.346E-01
  5.764E+00  2.882E-02  1.094E-01  7.288E+00  1.334E-01
  5.989E+00  2.995E-02  1.160E-01  7.149E+00  1.334E-01
  6.228E+00  3.114E-02  1.231E-01  7.027E+00  1.324E-01
  6.482E+00  3.241E-02  1.308E-01  6.943E+00  1.308E-01
  6.751E+00  3.376E-02  1.392E-01  6.900E+00  1.300E-01
  7.038E+00  3.519E-02  1.483E-01  6.738E+00  1.270E-01
  7.344E+00  3.672E-02  1.582E-01  6.642E+00  1.251E-01
  7.671E+00  3.836E-02  1.690E-01  6.508E+00  1.252E-01
  8.020E+00  4.010E-02  1.808E-01  6.342E+00  1.225E-01
  8.394E+00  4.197E-02  1.937E-01  6.230E+00  1.230E-01
  8.795E+00  4.398E-02  2.080E-01  6.258E+00  1.236E-01
  9.226E+00  4.613E-02  2.236E-01  6.156E+00  1.245E-01
  9.690E+00  4.845E-02  2.409E-01  6.124E+00  1.239E-01
  1.019E+01  1.019E-01  2.599E-01  5.934E+00  1.238E-01
  1.073E+01  1.073E-01  2.811E-01  5.973E+00  1.208E-01
  1.131E+01  1.131E-01  3.046E-01  5.972E+00  1.208E-01
  1.195E+01  1.195E-01  3.308E-01  5.874E+00  1.134E-01
  1.264E+01  1.264E-01  3.602E-01  5.898E+00  1.111E-01
  1.339E+01  1.339E-01  3.931E-01  5.856E+00  1.103E-01
  1.421E+01  1.421E-01  4.302E-01  5.953E+00  1.101E-01
  1.511E+01  1.511E-01  4.721E-01  5.971E+00  1.086E-01
  1.610E+01  1.610E-01  5.196E-01  6.017E+00  1.095E-01
  1.719E+01  1.719E-01  5.738E-01  6.162E+00  1.119E-01
  1.839E+01  1.839E-01  6.357E-01  6.195E+00  1.146E-01
  1.973E+01  1.973E-01  6.282E-01  6.208E+00  1.199E-01
  2.091E+01  2.091E-01  5.875E-01  6.159E+00  1.575E-01
ENDDATA             70
ENDSUBENT           82
ENDENTRY            57
