ENTRY            31794   20190613   20191023   20191023       3189
SUBENT        31794001   20190613   20191023   20191023       3189
BIB                  8         13
TITLE      Total neutron cross section of iron
AUTHOR     (L.A.Vinhas, R.Fulfaro)
INSTITUTE  (3BZLIPE)
REFERENCE  (R,IPEN-10,1981)
FACILITY   (REAC,3BZLIPE) IPEN 2 MW swimming pool research reactor
SAMPLE     Powder with purity higher than 99% in an Al folder
            with impurity of:
            Mn (100ppm), Mg (500ppm), Ni(150ppm), Cu (100ppm),
            P (<10ppm).
ERR-ANALYS (DATA-ERR) No information on the source of uncertainty
            (smaller than 2% for almost all data points, and
             smaller than symbols between 1.0 and 3.4 Angstrom)
HISTORY    (20190613C) On+LV
ENDBIB              13
NOCOMMON             0          0
ENDSUBENT           16
SUBENT        31794002   20190516   20191023   20191023       3189
BIB                  3          9
REACTION   (26-FE-0(N,TOT),,SIG)
METHOD     (FNB)
           4.008-7.091 Angstrom:
            Mica crystal monochromator and Be filter inside the
            beam hole
           0.533-1.516 Angstrom:
            Cu(111) crystal without Be filter
STATUS     (CURVE) Fig.1 (solid) of IPEN-10 (1981)
           (COREL,31794003) Data taken with TOF+slow chopper
ENDBIB               9
NOCOMMON             0          0
DATA                 3         97
EN         DATA       DATA-ERR
EV         B          B
 0.5497     1.2263
 0.6176     1.2510
 0.6868     1.2567
 0.7459     1.2720
 0.8064     1.2672
 0.8637     1.2888
 0.9164     1.2999
 0.9399     1.2554
 0.9647     1.2478
 0.9747     1.2361
 0.9933     1.2275
 1.0030     1.2643
 1.0279     1.2588
 1.0472     1.2713
 1.0581     1.2849
 1.0840     1.3047
 1.0996     1.3310
 1.1175     1.2506
 1.1311     1.2768
 1.1404     1.2451
 1.1703     1.2617
 1.1878     1.2837
 1.2170     1.2813
 1.2393     1.3190     0.0126
 1.2585     1.3294
 1.2676     1.2924
 1.2895     1.3186
 1.3237     1.3373
 1.3469     1.2874
 1.3918     1.3694
 1.4381     1.3774
 1.4881     1.4286
 1.6265     1.3250
 1.6968     1.3581     0.0106
 3.9824     1.8441     0.0201
 4.0250     1.7498     0.0263
 4.0667     1.3486     0.0222
 4.1194     0.9610     0.0116
 4.1603     0.7622     0.0116
 4.2018     0.6975
 4.2368     0.6814
 4.2419     0.7055
 4.2837     0.7062
 4.3340     0.7068
 4.3721     0.7212
 4.4158     0.7134
 4.4369     0.7174
 4.4538     0.7226
 4.5018     0.7190
 4.5421     0.7354     0.0106
 4.5804     0.7520     0.0116
 4.6221     0.7474
 4.6427     0.7398
 4.6742     0.7416
 4.7125     0.7592
 4.7521     0.7567
 4.7905     0.7774
 4.8360     0.7633     0.0126
 4.8847     0.7776
 4.9263     0.7719
 4.9644     0.7842
 5.0196     0.8059
 5.0442     0.7909
 5.0930     0.8105
 5.1348     0.8090
 5.1745     0.8086     0.0126
 5.2144     0.8114     0.0159
 5.2545     0.8216     0.0126
 5.3033     0.8412
 5.3459     0.8609
 5.3897     0.8573
 5.4300     0.8717     0.0085
 5.4651     0.8608     0.0126
 5.5159     0.8751     0.0158
 5.5581     0.8853     0.0158
 5.5986     0.9070     0.0126
 5.6358     0.8930     0.0137
 5.6796     0.8905     0.0158
 5.7181     0.9133     0.0116
 5.7724     0.9106     0.0169
 5.8087     0.9314     0.0137
 5.8483     0.9258
 5.8882     0.9307
 5.9326     0.9418
 5.9702     0.9415
 6.0144     0.9474     0.0116
 6.0630     0.9618     0.0095
 6.1048     0.9614     0.0126
 6.1474     0.9821
 6.1824     0.9670     0.0106
 6.2249     0.9834     0.0116
 6.2661     0.9662     0.0126
 6.3447     0.9982     0.0126
 6.3909     1.0051     0.0126
 6.4327     1.0026     0.0147
 6.4726     1.0075     0.0147
 6.5146     1.0103     0.0179
ENDDATA             99
ENDSUBENT          113
SUBENT        31794003   20190516   20191023   20191023       3189
BIB                  4         10
REACTION   (26-FE-0(N,TOT),,SIG)
METHOD     (TOF) with slow-neutron chopper.
            Flight path of 3.0 m for neutrons with 0.9 to 3.0 Angs
             and 1.5 m for neutrons with 3.0 to 5.5 Angstrom.
            Wavelength resolution varied from 0.04 Angstrom (at
             1 Angstrom) to 0.1 Angstrom (at 5.5 Angstrom).
DETECTOR   (BF3) 12''long x1'' diam. for neutron detectionr, and
                 1'' long x1/4'' diam for neutron flux monitoring
STATUS     (CURVE) Fig.1 (open) of IPEN-10 (1981)
           (COREL,31794002) Data taken with crystal spectrometer
ENDBIB              10
NOCOMMON             0          0
DATA                 3        239
EN         DATA       DATA-ERR
EV         B          B
 0.9881     1.2570
 1.0168     1.2431
 1.0315     1.2440
 1.0889     1.2678
 1.0966     1.2508
 1.1094     1.2570
 1.1366     1.2567
 1.1831     1.2690
 1.2174     1.2918
 1.2320     1.2906
 1.2630     1.2819
 1.2847     1.3028
 1.3094     1.2921
 1.3216     1.2824
 1.3337     1.2686
 1.3423     1.2759
 1.3660     1.2947
 1.3730     1.3136
 1.3918     1.3124
 1.3943     1.3250
 1.4132     1.3270
 1.4200     1.3417
 1.4288     1.3510
 1.4462     1.3688
 1.4653     1.3782
 1.4741     1.3886
 1.4958     1.3546
 1.5065     1.3029
 1.5177     1.2658
 1.5229     1.2373
 1.5376     1.2382
 1.5445     1.2561
 1.5602     1.2834
 1.5661     1.2738
 1.5750     1.2896
 1.5778     1.3064
 1.5901     1.3000
 1.6030     1.3094
 1.6260     1.3091
 1.6298     1.2986
 1.6471     1.3153
 1.6474     1.3237
 1.6604     1.3342
 1.6760     1.3614
 1.6769     1.3277
 1.6888     1.3686
 1.7018     1.3791
 1.7110     1.4033
 1.7190     1.3926
 1.7281     1.4126
 1.7551     1.4071
 1.7721     1.4133
 1.7817     1.3899
 1.7884     1.3446
 1.8056     1.3011
 1.8073     1.2916
 1.8203     1.3042
 1.8304     1.2925
 1.8421     1.3271
 1.8523     1.3197
 1.8698     1.3406
 1.8787     1.3542
 1.8937     1.3646
 1.9004     1.3751
 1.9052     1.3941
 1.9182     1.4056
 1.9292     1.4202
 1.9458     1.4148
 1.9488     1.4422
 1.9861     1.4302
 1.9997     1.4016
 2.0115     1.3826
 2.0209     1.3540
 2.0398     1.3559
 2.0406     1.3759
 2.0579     1.3916
 2.0710     1.4062
 2.0801     1.4273
 2.0971     1.4355
 2.1083     1.4534
 2.1313     1.4553
 2.1431     1.4910
 2.1663     1.4961
 2.1737     1.5277
 2.1908     1.5359
 2.1995     1.5464
 2.2151     1.5726
 2.2305     1.5926
 2.2417     1.6125
 2.2581     1.6028
 2.2690     1.6154
 2.2779     1.5720
 2.2912     1.4802
 2.2966     1.3398
 2.3113     1.2869
 2.3203     1.2446
 2.3336     1.2097
 2.3401     1.2159
 2.3591     1.2200
 2.3603     1.1968
 2.3827     1.2366
 2.4017     1.2397
 2.4311     1.2446
 2.4611     1.2634
 2.4803     1.2738
 2.4981     1.3020
 2.5178     1.3250
 2.5373     1.3438
 2.5543     1.3511
 2.5798     1.3625
 2.6077     1.3802
 2.6255     1.4106
 2.6467     1.4167
 2.6659     1.4281
 2.6874     1.4448
 2.7049     1.4646
 2.7327     1.4802
 2.7587     1.5064
 2.7760     1.5199
 2.7969     1.5197
 2.8154     1.5101
 2.8365     1.4592
 2.8587     1.4369
 2.8805     1.4029
 2.8987     1.3879
 2.9236     1.3803
 2.9473     1.4012
 2.9624     1.4138
 2.9882     1.4325
 3.0047     1.4250
 3.0308     1.4510
 3.0540     1.4572
 3.0756     1.4749
 3.0997     1.5063
 3.1194     1.5283
 3.1355     1.5113
 3.1598     1.5469
 3.1837     1.5710
 3.2068     1.5729
 3.2307     1.5979
 3.2540     1.6041
 3.2697     1.6345
 3.2934     1.6522
 3.3107     1.6668
 3.3382     1.6750
 3.3533     1.6875
 3.3831     1.7020
 3.4009     1.7324     0.0169
 3.4220     1.7365
 3.4410     1.7415
 3.4611     1.7751
 3.4823     1.7844
 3.5059     1.7990
 3.5256     1.8230
 3.5532     1.8344
 3.5713     1.8722
 3.5965     1.8741
 3.6154     1.8750
 3.6279     1.9318
 3.6504     1.9158
 3.6759     1.9271     0.0211
 3.6962     1.9691
 3.7163     2.0017
 3.7435     2.0014
 3.7634     2.0318
 3.7808     2.0496     0.0201
 3.8033     2.0916
 3.8275     2.0670
 3.8467     2.0785
 3.8796     2.1204
 3.9076     2.1402
 3.9315     2.1653
 3.9370     2.0871
 3.9687     2.0404     0.0242
 3.9776     1.8251
 3.9996     1.5697
 4.0160     1.2773
 4.0401     1.0229
 4.0612     0.8550     0.0211
 4.0842     0.7988
 4.1048     0.7332
 4.1117     0.6920
 4.1361     0.7298
 4.1584     0.7116
 4.1678     0.6830
 4.1790     0.7040
 4.2028     0.6679
 4.2239     0.6709
 4.2532     0.6727
 4.2678     0.7274
 4.2737     0.6620
 4.2885     0.7230
 4.3071     0.7166
 4.3262     0.7227
 4.3491     0.7214
 4.3570     0.7087
 4.3844     0.7137
 4.3993     0.7210
 4.4108     0.7472
 4.4312     0.7334
 4.4657     0.7045
 4.4786     0.7139
 4.4854     0.7286
 4.5079     0.7146
 4.5195     0.7473
 4.5900     0.7276
 4.6033     0.7497
 4.6339     0.7293
 4.6503     0.7746
 4.6934     0.7541
 4.7298     0.7748
 4.7490     0.7862
 4.7633     0.7756
 4.7687     0.7523
 4.8137     0.7825
 4.8328     0.7886
 4.8560     0.7947
 4.9421     0.8024
 4.9714     0.8032     0.0263
 5.0030     0.8102
 5.0432     0.8204
 5.0612     0.7981
 5.0646     0.7791
 5.0745     0.8191
 5.0860     0.7915
 5.1163     0.8177
 5.1216     0.7922
 5.1516     0.8110
 5.1593     0.7940
 5.1612     0.8446
 5.2213     0.8293
 5.2497     0.8607
 5.2702     0.8500
 5.2801     0.8362
 5.3192     0.8748
 5.3303     0.8346
 5.3351     0.8514
 5.3906     0.8805     0.0379
 5.4161     0.8349
ENDDATA            241
ENDSUBENT          256
ENDENTRY             3
