ENTRY            E1494   20240503   20240505   20240505       E143
SUBENT        E1494001   20240503   20240505   20240505       E143
BIB                 12         20
TITLE      High-resolution measurements of analogue states in 59,
           61, 63Cu
AUTHOR     (E.Arai, M.Ogawa, H.Sato)
INSTITUTE  (2JPNTIT)
REFERENCE  (J,NP/A,256,127,1976)
PART-DET   (P,G)
INC-SOURCE Beam intensity is 4 to 5 uA.
INC-SPECT  [EN-RSL] FWHM
SAMPLE     - Chemical-form of target is element.
           - Physical-form of target is solid.
           - Backing is carbon.
           - Backing-thickness is 0.02 mg/cm2.
FACILITY   (VDG,2JPNTIT)
DETECTOR   (SIBAR) To detect proton
           (GELI) To detect gamma from proton capture to g-wave
                  resonance
ADD-RES    (COMP) R-matrix theory
HISTORY    (20051124T) Kc + On. Converted from NRDF D1494
           (20240319A) MA: modified REACTION and STATUS in
                       006,011,012.
ENDBIB              20
COMMON               1          3
EN-RSL-FW
KEV
 0.4
ENDCOMMON            3
ENDSUBENT           27
SUBENT        E1494002   20070909   20070911   20070909       E047
BIB                  5          7
REACTION   (28-NI-58(P,EL)28-NI-58,,DA)
EN-SEC     ANG is polar angle between beam and proton in
           laboratory system
SAMPLE     - Target enrichment is 99.94%.
           - Target-thickness is 0.037 mg/cm**2.
STATUS     (CURVE) Scanned from Fig.1, p130 in reference
HISTORY    (20060228A) At. Re-digitized
ENDBIB               7
COMMON               1          3
ANG
ADEG
 160.
ENDCOMMON            3
DATA                 2       1423
EN         DATA
MEV        MB/SR
 3.126210    8.845E+01
 3.126750    8.497E+01
 3.127109    8.149E+01
 3.127647    8.670E+01
 3.128186    9.191E+01
 3.128725    8.668E+01
 3.128905    8.494E+01
 3.129444    8.146E+01
 3.129802    8.667E+01
 3.130341    8.667E+01
 3.131060    8.492E+01
 3.131778    8.318E+01
 3.132497    8.143E+01
 3.133395    7.968E+01
 3.134293    7.967E+01
 3.135190    7.966E+01
 3.136087    9.530E+01
 3.136624    1.109E+02
 3.136985    9.529E+01
 3.136986    7.964E+01
 3.136987    6.921E+01
 3.137347    6.226E+01
 3.137886    6.399E+01
 3.138784    6.398E+01
 3.139502    6.223E+01
 3.140221    5.701E+01
 3.140759    6.222E+01
 3.141299    5.700E+01
 3.142197    5.178E+01
 3.143095    5.350E+01
 3.143454    4.829E+01
 3.144173    4.132E+01
 3.144873    3.488E+01
 3.145372    2.684E+01
 3.146036    2.522E+01
 3.146327    6.042E+01
 3.146328    4.825E+01
 3.146862    6.864E+01
 3.147362    5.416E+01
 3.147859    6.059E+01
 3.148025    6.862E+01
 3.148686    9.596E+01
 3.148690    5.736E+01
 3.149017    1.104E+02
 3.150010    1.426E+02
 3.150012    1.249E+02
 3.150340    1.651E+02
 3.150839    1.571E+02
 3.151003    1.780E+02
 3.151334    1.908E+02
 3.151665    2.005E+02
 3.151830    2.165E+02
 3.152659    2.278E+02
 3.153489    2.262E+02
 3.154154    2.213E+02
 3.154487    2.133E+02
 3.155318    2.036E+02
 3.155651    1.956E+02
 3.156315    1.988E+02
 3.156981    1.827E+02
 3.157480    1.779E+02
 3.157978    1.747E+02
 3.158477    1.682E+02
 3.159308    1.650E+02
 3.159806    1.586E+02
 3.160637    1.553E+02
 3.161136    1.489E+02
 3.161136    1.425E+02
 3.162133    1.425E+02
 3.162465    1.360E+02
 3.162964    1.312E+02
 3.163628    1.392E+02
 3.163629    1.264E+02
 3.164293    1.264E+02
 3.164460    1.183E+02
 3.164959    1.119E+02
 3.165126    1.022E+02
 3.165293    8.774E+01
 3.165627    7.165E+01
 3.165957    9.256E+01
 3.166115    1.730E+02
 3.166285    1.376E+02
 3.166779    1.794E+02
 3.167445    1.617E+02
 3.167778    1.520E+02
 3.168277    1.456E+02
 3.168775    1.408E+02
 3.169274    1.376E+02
 3.169938    1.375E+02
 3.170105    1.327E+02
 3.170769    1.311E+02
 3.171433    1.311E+02
 3.172098    1.295E+02
 3.172596    1.263E+02
 3.173260    1.311E+02
 3.173925    1.262E+02
 3.174589    1.262E+02
 3.175419    1.278E+02
 3.175752    1.214E+02
 3.176582    1.246E+02
 3.177246    1.262E+02
 3.177745    1.214E+02
 3.178409    1.214E+02
 3.179239    1.214E+02
 3.180070    1.181E+02
 3.180900    1.213E+02
 3.181730    1.197E+02
 3.182395    1.165E+02
 3.183059    1.117E+02
 3.183890    1.117E+02
 3.184554    1.133E+02
 3.185218    1.165E+02
 3.185717    1.100E+02
 3.186214    1.149E+02
 3.187045    1.149E+02
 3.187875    1.148E+02
 3.188540    1.100E+02
 3.189370    1.132E+02
 3.190034    1.132E+02
 3.190532    1.180E+02
 3.191196    1.132E+02
 3.191861    1.132E+02
 3.192525    1.116E+02
 3.193355    1.148E+02
 3.194186    1.116E+02
 3.195016    1.132E+02
 3.195680    1.148E+02
 3.196344    1.164E+02
 3.197009    1.115E+02
 3.197839    1.099E+02
 3.198337    1.131E+02
 3.199333    1.147E+02
 3.200163    1.147E+02
 3.200994    1.131E+02
 3.201825    1.083E+02
 3.202655    1.115E+02
 3.203153    1.131E+02
 3.203817    1.147E+02
 3.204647    1.147E+02
 3.205311    1.147E+02
 3.206142    1.146E+02
 3.206806    1.114E+02
 3.207470    1.130E+02
 3.208301    1.130E+02
 3.208799    1.130E+02
 3.208965    1.114E+02
 3.209629    1.114E+02
 3.210294    1.098E+02
 3.210793    9.691E+01
 3.211456    1.082E+02
 3.211787    1.226E+02
 3.212783    1.258E+02
 3.213282    1.210E+02
 3.213780    1.194E+02
 3.214611    1.162E+02
 3.215441    1.162E+02
 3.216105    1.145E+02
 3.216604    1.129E+02
 3.217268    1.145E+02
 3.217932    1.145E+02
 3.218263    1.210E+02
 3.218928    1.129E+02
 3.219593    1.129E+02
 3.220257    1.113E+02
 3.221087    1.113E+02
 3.221751    1.129E+02
 3.222416    1.080E+02
 3.222748    1.113E+02
 3.223412    1.112E+02
 3.223910    1.145E+02
 3.224409    1.112E+02
 3.224907    1.128E+02
 3.225571    1.112E+02
 3.226235    1.096E+02
 3.226733    1.144E+02
 3.227398    1.096E+02
 3.228062    1.096E+02
 3.228892    1.128E+02
 3.229723    1.096E+02
 3.230553    1.096E+02
 3.231383    1.096E+02
 3.232048    1.095E+02
 3.232712    1.095E+02
 3.233377    1.047E+02
 3.234040    1.111E+02
 3.234705    1.047E+02
 3.235536    1.031E+02
 3.236033    1.095E+02
 3.236864    1.031E+02
 3.237694    1.047E+02
 3.238524    1.047E+02
 3.239189    1.030E+02
 3.239853    1.030E+02
 3.240683    1.030E+02
 3.241514    1.030E+02
 3.242344    9.979E+01
 3.242511    9.496E+01
 3.243176    8.369E+01
 3.243674    8.851E+01
 3.243837    1.142E+02
 3.244169    1.239E+02
 3.244833    1.207E+02
 3.245332    1.174E+02
 3.245664    1.110E+02
 3.246329    1.094E+02
 3.246827    1.094E+02
 3.247325    1.094E+02
 3.248156    1.094E+02
 3.248653    1.126E+02
 3.248986    1.061E+02
 3.249484    1.094E+02
 3.250314    1.077E+02
 3.251145    1.077E+02
 3.251643    1.029E+02
 3.252307    1.077E+02
 3.252972    1.045E+02
 3.253636    1.061E+02
 3.254300    1.093E+02
 3.254632    1.045E+02
 3.255463    1.029E+02
 3.256459    1.029E+02
 3.257123    1.045E+02
 3.257954    1.044E+02
 3.258618    1.044E+02
 3.259282    1.044E+02
 3.260112    1.076E+02
 3.260943    1.028E+02
 3.261607    1.044E+02
 3.262105    1.076E+02
 3.262603    1.044E+02
 3.263102    1.028E+02
 3.263932    1.044E+02
 3.264762    1.076E+02
 3.265592    1.092E+02
 3.266258    9.471E+01
 3.267088    9.791E+01
 3.267918    9.951E+01
 3.268582    9.790E+01
 3.269246    9.950E+01
 3.270077    9.949E+01
 3.270907    1.011E+02
 3.271737    9.626E+01
 3.272568    9.625E+01
 3.273232    9.946E+01
 3.273896    9.784E+01
 3.274726    9.783E+01
 3.275224    9.944E+01
 3.276055    9.943E+01
 3.277051    9.620E+01
 3.277882    9.619E+01
 3.278381    8.975E+01
 3.278712    9.618E+01
 3.279377    9.296E+01
 3.279874    9.617E+01
 3.280539    9.295E+01
 3.282037    6.076E+01
 3.282201    7.845E+01
 3.282699    8.327E+01
 3.283029    1.026E+02
 3.283527    1.058E+02
 3.284191    1.106E+02
 3.284523    1.042E+02
 3.285021    1.074E+02
 3.285686    1.025E+02
 3.286350    1.041E+02
 3.287015    9.770E+01
 3.287679    1.009E+02
 3.288343    1.025E+02
 3.288842    9.768E+01
 3.289672    9.767E+01
 3.290336    1.025E+02
 3.291166    9.927E+01
 3.291830    1.009E+02
 3.292495    9.604E+01
 3.293159    9.924E+01
 3.293989    9.924E+01
 3.294820    9.762E+01
 3.295484    9.761E+01
 3.296148    9.760E+01
 3.296979    9.599E+01
 3.298547    1.036E+02
 3.299455    9.821E+01
 3.300182    1.054E+02
 3.301090    1.000E+02
 3.301453    1.071E+02
 3.302361    1.054E+02
 3.303270    1.036E+02
 3.304360    1.036E+02
 3.305268    1.018E+02
 3.305995    1.018E+02
 3.306903    1.036E+02
 3.307993    1.018E+02
 3.309083    1.018E+02
 3.310173    1.018E+02
 3.311262    1.018E+02
 3.311807    1.036E+02
 3.312716    1.000E+02
 3.313442    1.018E+02
 3.314351    1.036E+02
 3.315259    1.018E+02
 3.316167    1.000E+02
 3.317075    1.018E+02
 3.317984    1.000E+02
 3.319074    1.000E+02
 3.319982    1.000E+02
 3.321072    1.000E+02
 3.321980    9.821E+01
 3.322819    1.025E+02
 3.323322    9.587E+01
 3.323993    9.917E+01
 3.324832    9.917E+01
 3.325613    9.821E+01
 3.326340    1.018E+02
 3.327248    9.821E+01
 3.328156    9.821E+01
 3.329246    1.000E+02
 3.329973    9.821E+01
 3.330699    1.018E+02
 3.331426    9.821E+01
 3.332215    1.008E+02
 3.333221    1.025E+02
 3.334151    1.018E+02
 3.334696    9.821E+01
 3.335604    9.821E+01
 3.336512    9.821E+01
 3.337239    9.821E+01
 3.337965    9.643E+01
 3.338874    9.643E+01
 3.339782    9.643E+01
 3.340690    9.464E+01
 3.341417    9.464E+01
 3.342144    9.464E+01
 3.343052    9.464E+01
 3.343960    9.107E+01
 3.344687    9.107E+01
 3.345232    9.643E+01
 3.345958    9.107E+01
 3.346685    9.821E+01
 3.347411    9.286E+01
 3.347956    8.393E+01
 3.348683    9.286E+01
 3.349773    9.821E+01
 3.350500    9.464E+01
 3.351226    9.286E+01
 3.351953    8.571E+01
 3.352134    7.143E+01
 3.352679    5.893E+01
 3.353224    8.036E+01
 3.353588    9.821E+01
 3.354133    1.125E+02
 3.354496    1.036E+02
 3.355223    1.071E+02
 3.355767    1.000E+02
 3.356494    1.036E+02
 3.357039    9.643E+01
 3.357402    1.036E+02
 3.358129    1.036E+02
 3.359037    1.000E+02
 3.359899    9.752E+01
 3.360738    9.917E+01
 3.361745    9.752E+01
 3.362584    9.752E+01
 3.363397    1.000E+02
 3.364305    9.286E+01
 3.365213    8.750E+01
 3.365395    1.000E+02
 3.365758    1.107E+02
 3.366107    1.174E+02
 3.367030    1.107E+02
 3.367575    1.161E+02
 3.367575    1.268E+02
 3.368302    1.661E+02
 3.368302    1.464E+02
 3.369028    1.518E+02
 3.369210    9.107E+01
 3.369210    7.500E+01
 3.369391    6.429E+01
 3.370118    7.321E+01
 3.370845    7.857E+01
 3.371753    8.214E+01
 3.372480    8.393E+01
 3.373569    8.393E+01
 3.374478    8.571E+01
 3.375023    9.107E+01
 3.375568    8.393E+01
 3.376113    8.929E+01
 3.376839    8.750E+01
 3.377566    8.036E+01
 3.378474    8.036E+01
 3.379564    7.857E+01
 3.380291    8.036E+01
 3.381199    7.857E+01
 3.381926    7.321E+01
 3.383015    7.143E+01
 3.383379    6.250E+01
 3.384105    6.607E+01
 3.384650    6.607E+01
 3.384832    5.536E+01
 3.385740    5.000E+01
 3.386830    4.643E+01
 3.386830    5.357E+01
 3.387375    7.321E+01
 3.387738    1.179E+02
 3.387920    1.482E+02
 3.388102    1.750E+02
 3.388465    2.071E+02
 3.389373    2.107E+02
 3.389555    2.018E+02
 3.390100    2.018E+02
 3.390463    1.875E+02
 3.390645    1.679E+02
 3.391190    1.518E+02
 3.391916    1.482E+02
 3.392643    1.411E+02
 3.393551    1.339E+02
 3.394096    1.268E+02
 3.395005    1.268E+02
 3.395186    1.321E+02
 3.395731    1.321E+02
 3.396276    1.232E+02
 3.397366    1.232E+02
 3.398274    1.214E+02
 3.399183    1.179E+02
 3.399909    1.125E+02
 3.400636    1.179E+02
 3.401181    1.268E+02
 3.401907    1.232E+02
 3.402634    1.196E+02
 3.403542    1.179E+02
 3.404450    1.161E+02
 3.405177    1.161E+02
 3.405904    1.232E+02
 3.406449    1.286E+02
 3.406994    1.196E+02
 3.407720    1.179E+02
 3.408810    1.179E+02
 3.409900    1.179E+02
 3.410808    1.161E+02
 3.411535    1.143E+02
 3.412262    1.179E+02
 3.413170    1.179E+02
 3.413896    1.143E+02
 3.414805    1.179E+02
 3.415713    1.161E+02
 3.416621    1.179E+02
 3.417711    1.143E+02
 3.418801    1.179E+02
 3.419709    1.107E+02
 3.420436    1.089E+02
 3.421163    1.179E+02
 3.421889    1.143E+02
 3.422616    1.196E+02
 3.423706    1.161E+02
 3.424614    1.161E+02
 3.425341    1.125E+02
 3.425886    1.161E+02
 3.426794    1.143E+02
 3.427702    1.125E+02
 3.428247    1.107E+02
 3.429155    1.179E+02
 3.429700    1.125E+02
 3.430427    1.125E+02
 3.431153    1.107E+02
 3.431880    1.107E+02
 3.432788    1.054E+02
 3.433697    1.107E+02
 3.434423    1.054E+02
 3.435150    1.125E+02
 3.435332    1.161E+02
 3.436058    1.107E+02
 3.436603    1.161E+02
 3.437148    1.089E+02
 3.438238    1.071E+02
 3.439328    1.071E+02
 3.440236    1.089E+02
 3.440963    1.054E+02
 3.442053    1.071E+02
 3.442961    1.054E+02
 3.443688    1.107E+02
 3.444596    1.036E+02
 3.445686    1.018E+02
 3.446776    1.000E+02
 3.447684    1.018E+02
 3.448592    1.000E+02
 3.449682    1.018E+02
 3.450590    9.286E+01
 3.450772    8.214E+01
 3.451499    1.107E+02
 3.451680    8.571E+01
 3.452407    1.179E+02
 3.453315    1.089E+02
 3.454405    1.071E+02
 3.455132    1.071E+02
 3.456222    1.071E+02
 3.457493    1.071E+02
 3.458220    1.089E+02
 3.459128    1.089E+02
 3.460036    1.125E+02
 3.460945    1.107E+02
 3.461490    1.018E+02
 3.462035    1.071E+02
 3.462761    1.018E+02
 3.463851    1.018E+02
 3.464941    1.018E+02
 3.465849    9.821E+01
 3.466576    1.018E+02
 3.467484    1.018E+02
 3.468574    1.000E+02
 3.469119    9.464E+01
 3.469846    1.000E+02
 3.470754    1.000E+02
 3.471844    1.000E+02
 3.472570    8.929E+01
 3.472934    1.000E+02
 3.473115    1.339E+02
 3.473115    1.250E+02
 3.473660    1.143E+02
 3.474205    1.054E+02
 3.474750    9.464E+01
 3.475295    1.000E+02
 3.475477    8.393E+01
 3.475840    9.643E+01
 3.476385    1.089E+02
 3.477293    1.071E+02
 3.477838    1.107E+02
 3.478383    1.071E+02
 3.479292    1.179E+02
 3.479655    1.357E+02
 3.480018    1.643E+02
 3.480018    7.500E+01
 3.480381    1.143E+02
 3.480381    6.429E+01
 3.480745    5.536E+01
 3.481290    6.429E+01
 3.481471    7.857E+01
 3.481835    8.571E+01
 3.482561    8.929E+01
 3.483106    8.750E+01
 3.483470    9.286E+01
 3.484378    9.464E+01
 3.485104    9.464E+01
 3.485831    9.464E+01
 3.486739    9.464E+01
 3.487466    9.464E+01
 3.488374    9.464E+01
 3.489646    9.464E+01
 3.490372    9.464E+01
 3.490736    9.643E+01
 3.491644    9.286E+01
 3.492371    8.929E+01
 3.493279    8.750E+01
 3.494187    9.286E+01
 3.494732    8.750E+01
 3.495640    8.750E+01
 3.496549    9.286E+01
 3.497457    8.929E+01
 3.498365    8.929E+01
 3.499014    9.516E+01
 3.499843    9.355E+01
 3.500008    8.548E+01
 3.500672    9.194E+01
 3.501003    8.548E+01
 3.501501    9.194E+01
 3.502164    8.710E+01
 3.502827    9.032E+01
 3.503490    8.710E+01
 3.504319    8.548E+01
 3.504982    8.710E+01
 3.505313    7.419E+01
 3.505480    9.194E+01
 3.505812    9.839E+01
 3.506309    9.032E+01
 3.506641    9.677E+01
 3.507138    8.871E+01
 3.507801    8.710E+01
 3.508464    9.032E+01
 3.509127    8.548E+01
 3.509956    8.710E+01
 3.510454    9.194E+01
 3.510619    8.548E+01
 3.511283    8.871E+01
 3.511780    9.355E+01
 3.511945    8.548E+01
 3.512609    8.710E+01
 3.513272    8.548E+01
 3.513769    8.226E+01
 3.514432    7.903E+01
 3.515261    7.742E+01
 3.516090    7.903E+01
 3.516752    7.258E+01
 3.516919    8.065E+01
 3.517087    1.081E+02
 3.517913    6.935E+01
 3.517916    1.032E+02
 3.518242    4.355E+01
 3.518739    3.871E+01
 3.519072    5.484E+01
 3.519403    5.000E+01
 3.519903    7.742E+01
 3.520238    1.161E+02
 3.520242    1.629E+02
 3.520409    1.758E+02
 3.520742    1.887E+02
 3.520743    1.984E+02
 3.520909    2.081E+02
 3.521901    1.694E+02
 3.522397    1.629E+02
 3.522728    1.548E+02
 3.522894    1.500E+02
 3.523058    1.387E+02
 3.523555    1.323E+02
 3.524218    1.274E+02
 3.524384    1.274E+02
 3.525047    1.242E+02
 3.525543    1.177E+02
 3.526207    1.177E+02
 3.526870    1.161E+02
 3.527533    1.145E+02
 3.528361    1.129E+02
 3.529356    1.097E+02
 3.530019    1.113E+02
 3.530848    1.081E+02
 3.531511    1.048E+02
 3.532340    1.032E+02
 3.533169    1.032E+02
 3.533997    1.016E+02
 3.534826    1.016E+02
 3.535490    1.032E+02
 3.536153    1.000E+02
 3.536981    9.677E+01
 3.537810    9.839E+01
 3.538474    9.839E+01
 3.538971    9.677E+01
 3.539800    9.677E+01
 3.540297    9.194E+01
 3.540629    9.839E+01
 3.541623    9.194E+01
 3.542452    9.194E+01
 3.543281    9.194E+01
 3.543612    8.548E+01
 3.543948    1.371E+02
 3.544110    9.194E+01
 3.544942    1.210E+02
 3.545106    1.032E+02
 3.545107    1.113E+02
 3.545110    1.452E+02
 3.545271    9.677E+01
 3.546100    1.016E+02
 3.546929    1.016E+02
 3.547593    1.032E+02
 3.548422    1.016E+02
 3.549250    9.839E+01
 3.550079    9.677E+01
 3.550908    9.677E+01
 3.551737    9.677E+01
 3.552566    9.677E+01
 3.553229    9.677E+01
 3.554058    9.677E+01
 3.554721    9.677E+01
 3.555550    9.677E+01
 3.556214    9.839E+01
 3.557043    9.839E+01
 3.557871    9.194E+01
 3.557872    1.032E+02
 3.558535    9.677E+01
 3.559198    1.016E+02
 3.559862    1.048E+02
 3.560360    1.113E+02
 3.560858    1.177E+02
 3.561024    1.242E+02
 3.561190    1.306E+02
 3.561689    1.468E+02
 3.562015    8.871E+01
 3.562189    1.726E+02
 3.562511    6.613E+01
 3.563174    6.774E+01
 3.563672    7.419E+01
 3.564336    7.742E+01
 3.564999    7.903E+01
 3.565662    8.065E+01
 3.566491    8.226E+01
 3.567155    8.387E+01
 3.567984    8.387E+01
 3.568647    8.387E+01
 3.569476    8.387E+01
 3.569973    8.710E+01
 3.570470    8.065E+01
 3.571134    8.710E+01
 3.571797    8.387E+01
 3.572460    8.065E+01
 3.573289    7.903E+01
 3.574117    7.742E+01
 3.574781    7.742E+01
 3.575610    7.903E+01
 3.576107    7.258E+01
 3.576272    7.097E+01
 3.576935    6.613E+01
 3.577100    5.645E+01
 3.577431    4.839E+01
 3.577927    4.032E+01
 3.578427    6.935E+01
 3.579093    9.677E+01
 3.579922    9.677E+01
 3.579923    1.032E+02
 3.580751    9.839E+01
 3.581580    9.677E+01
 3.582243    9.194E+01
 3.583070    7.581E+01
 3.583402    8.387E+01
 3.583403    9.032E+01
 3.583735    9.516E+01
 3.584067    1.032E+02
 3.584565    1.097E+02
 3.584897    1.161E+02
 3.585064    1.194E+02
 3.585231    1.323E+02
 3.585893    1.290E+02
 3.586223    1.113E+02
 3.586387    8.226E+01
 3.586550    5.645E+01
 3.587048    6.290E+01
 3.587711    6.452E+01
 3.588209    7.097E+01
 3.588707    7.258E+01
 3.589205    7.581E+01
 3.589868    7.419E+01
 3.591858    7.903E+01
 3.592686    7.903E+01
 3.593515    7.903E+01
 3.594344    7.903E+01
 3.595008    7.903E+01
 3.595671    7.742E+01
 3.596334    7.903E+01
 3.596666    7.903E+01
 3.597163    7.742E+01
 3.597494    7.097E+01
 3.597991    6.613E+01
 3.598157    7.258E+01
 3.598487    5.484E+01
 3.598987    7.903E+01
 3.599151    6.129E+01
 3.600315    9.839E+01
 3.600812    9.194E+01
 3.601474    8.710E+01
 3.601806    9.032E+01
 3.602304    9.194E+01
 3.602801    9.194E+01
 3.602967    9.032E+01
 3.603464    9.194E+01
 3.603961    8.548E+01
 3.604624    8.548E+01
 3.605454    9.355E+01
 3.606449    9.194E+01
 3.606782    1.097E+02
 3.606946    9.839E+01
 3.607444    1.016E+02
 3.607605    5.161E+01
 3.607611    1.145E+02
 3.607936    3.710E+01
 3.608103    5.000E+01
 3.608601    5.968E+01
 3.609099    6.452E+01
 3.609928    6.613E+01
 3.610756    5.484E+01
 3.610757    6.613E+01
 3.611089    7.742E+01
 3.611422    9.194E+01
 3.611919    8.387E+01
 3.612582    8.065E+01
 3.613411    8.387E+01
 3.613742    7.903E+01
 3.614571    8.065E+01
 3.615234    7.742E+01
 3.615898    8.065E+01
 3.616561    7.903E+01
 3.617224    7.742E+01
 3.617887    7.903E+01
 3.618219    8.387E+01
 3.619048    7.903E+01
 3.619711    7.581E+01
 3.620539    7.419E+01
 3.621037    7.903E+01
 3.621700    7.581E+01
 3.622529    7.742E+01
 3.623358    7.581E+01
 3.624021    7.097E+01
 3.624684    7.419E+01
 3.625513    7.581E+01
 3.626342    7.419E+01
 3.627171    7.097E+01
 3.627834    6.935E+01
 3.628663    7.258E+01
 3.629658    7.258E+01
 3.630487    7.419E+01
 3.631316    7.258E+01
 3.632311    7.258E+01
 3.632974    7.742E+01
 3.633472    7.742E+01
 3.633636    5.806E+01
 3.634465    5.968E+01
 3.635294    5.968E+01
 3.635957    5.968E+01
 3.636620    5.968E+01
 3.637615    5.806E+01
 3.638444    5.968E+01
 3.639107    6.129E+01
 3.639770    6.129E+01
 3.640599    5.806E+01
 3.641262    5.968E+01
 3.642091    5.968E+01
 3.642754    5.645E+01
 3.643583    5.484E+01
 3.644246    5.484E+01
 3.644909    5.161E+01
 3.645572    5.000E+01
 3.646401    4.677E+01
 3.647230    4.516E+01
 3.648224    4.355E+01
 3.648887    3.871E+01
 3.649716    3.548E+01
 3.650379    3.387E+01
 3.651208    3.387E+01
 3.652203    3.548E+01
 3.653032    3.871E+01
 3.653530    4.355E+01
 3.654028    5.000E+01
 3.654360    5.806E+01
 3.654858    6.452E+01
 3.655190    7.419E+01
 3.655689    8.387E+01
 3.656187    9.677E+01
 3.656354    1.048E+02
 3.656520    1.129E+02
 3.656687    1.242E+02
 3.656854    1.371E+02
 3.657186    1.452E+02
 3.657684    1.516E+02
 3.657851    1.677E+02
 3.658184    1.742E+02
 3.658185    1.855E+02
 3.658847    1.790E+02
 3.659676    1.790E+02
 3.660009    1.887E+02
 3.660505    1.790E+02
 3.661500    1.758E+02
 3.661831    1.677E+02
 3.662493    1.565E+02
 3.662659    1.629E+02
 3.663487    1.565E+02
 3.664316    1.516E+02
 3.664978    1.403E+02
 3.665642    1.452E+02
 3.666138    1.371E+02
 3.666304    1.355E+02
 3.667133    1.371E+02
 3.667796    1.306E+02
 3.668293    1.274E+02
 3.669287    1.210E+02
 3.669950    1.177E+02
 3.670613    1.113E+02
 3.670776    8.710E+01
 3.670777    1.016E+02
 3.671606    9.194E+01
 3.671609    1.258E+02
 3.671941    1.323E+02
 3.672437    1.242E+02
 3.673266    1.194E+02
 3.674094    1.145E+02
 3.675089    1.145E+02
 3.675918    1.129E+02
 3.676747    1.113E+02
 3.677742    1.097E+02
 3.678736    1.097E+02
 3.679565    1.097E+02
 3.680062    1.032E+02
 3.680891    1.081E+02
 3.681554    1.016E+02
 3.681886    1.081E+02
 3.682714    1.000E+02
 3.683544    1.016E+02
 3.684207    1.016E+02
 3.685036    1.016E+02
 3.685699    1.065E+02
 3.686031    1.113E+02
 3.686361    9.032E+01
 3.686362    1.000E+02
 3.687190    9.355E+01
 3.687854    9.677E+01
 3.688517    9.677E+01
 3.689180    9.194E+01
 3.689677    9.516E+01
 3.692055    9.872E+01
 3.692918    9.884E+01
 3.693782    1.021E+02
 3.694300    9.746E+01
 3.694991    1.007E+02
 3.695336    9.285E+01
 3.695855    9.610E+01
 3.696545    9.778E+01
 3.697064    9.945E+01
 3.697755    9.320E+01
 3.698618    9.967E+01
 3.699136    9.340E+01
 3.699827    9.668E+01
 3.700518    9.995E+01
 3.701209    9.688E+01
 3.701900    9.698E+01
 3.702591    1.003E+02
 3.702936    9.078E+01
 3.703800    9.725E+01
 3.704664    9.262E+01
 3.705355    9.589E+01
 3.706391    9.605E+01
 3.707427    9.461E+01
 3.708118    8.995E+01
 3.708809    9.640E+01
 3.709845    9.972E+01
 3.710191    9.343E+01
 3.710882    9.353E+01
 3.711745    9.365E+01
 3.712782    9.539E+01
 3.713473    9.390E+01
 3.714336    9.403E+01
 3.715027    8.937E+01
 3.715545    9.579E+01
 3.716236    9.272E+01
 3.716927    9.123E+01
 3.717618    8.657E+01
 3.717964    7.393E+01
 3.718136    8.030E+01
 3.718655    6.768E+01
 3.719000    1.026E+02
 3.719518    1.107E+02
 3.720382    1.044E+02
 3.721245    1.014E+02
 3.722282    9.995E+01
 3.723145    1.032E+02
 3.723664    9.539E+01
 3.724527    9.869E+01
 3.725045    1.019E+02
 3.725564    9.884E+01
 3.726427    9.738E+01
 3.726773    1.022E+02
 3.727464    9.753E+01
 3.727982    9.761E+01
 3.728327    1.040E+02
 3.729018    9.776E+01
 3.729536    1.042E+02
 3.730573    1.027E+02
 3.731436    9.811E+01
 3.732300    9.982E+01
 3.733336    9.997E+01
 3.734373    1.017E+02
 3.735064    1.050E+02
 3.735409    1.019E+02
 3.735927    1.004E+02
 3.736445    1.020E+02
 3.737136    1.037E+02
 3.737655    1.006E+02
 3.738518    1.007E+02
 3.739209    9.924E+01
 3.740073    9.778E+01
 3.740591    8.992E+01
 3.741109    8.365E+01
 3.741282    7.574E+01
 3.741973    5.997E+01
 3.742145    5.365E+01
 3.742318    8.700E+01
 3.742664    1.251E+02
 3.742836    1.331E+02
 3.743527    1.380E+02
 3.743873    1.301E+02
 3.744564    1.349E+02
 3.744909    1.397E+02
 3.745600    1.351E+02
 3.745945    1.304E+02
 3.746636    1.384E+02
 3.746809    1.305E+02
 3.747500    1.401E+02
 3.747845    1.449E+02
 3.748364    1.498E+02
 3.748882    1.578E+02
 3.749227    1.721E+02
 3.749400    1.642E+02
 3.749400    1.721E+02
 3.749918    1.817E+02
 3.750091    1.976E+02
 3.750609    2.104E+02
 3.750782    2.184E+02
 3.751473    2.280E+02
 3.751771    1.577E+02
 3.751818    2.233E+02
 3.751818    1.963E+02
 3.752289    1.126E+02
 3.752634    7.883E+01
 3.752807    5.628E+01
 3.753200    4.416E+01
 3.753718    3.947E+01
 3.754582    4.277E+01
 3.754927    4.758E+01
 3.755618    5.403E+01
 3.756482    5.892E+01
 3.757345    6.222E+01
 3.758036    6.708E+01
 3.758727    7.035E+01
 3.759591    7.207E+01
 3.760455    7.537E+01
 3.761318    7.866E+01
 3.761836    8.350E+01
 3.762527    8.519E+01
 3.763218    8.529E+01
 3.763736    8.537E+01
 3.764427    8.547E+01
 3.765118    8.239E+01
 3.765636    8.723E+01
 3.766155    8.730E+01
 3.766673    8.897E+01
 3.767364    8.431E+01
 3.768227    8.602E+01
 3.768918    8.612E+01
 3.769782    8.625E+01
 3.770645    8.479E+01
 3.771509    8.491E+01
 3.772027    8.657E+01
 3.772718    8.668E+01
 3.773409    8.678E+01
 3.774100    8.529E+01
 3.774964    8.224E+01
 3.775482    8.708E+01
 3.775655    9.186E+01
 3.776864    9.521E+01
 3.777555    9.214E+01
 3.778245    9.065E+01
 3.779109    9.078E+01
 3.779800    8.771E+01
 3.780836    8.945E+01
 3.781700    8.798E+01
 3.782391    8.332E+01
 3.782564    7.700E+01
 3.782736    6.909E+01
 3.783179    5.280E+01
 3.783600    7.715E+01
 3.784042    1.045E+02
 3.784042    1.336E+02
 3.784387    1.642E+02
 3.784905    1.917E+02
 3.785077    2.337E+02
 3.785250    2.176E+02
 3.785595    1.515E+02
 3.785767    9.672E+01
 3.786364    7.121E+01
 3.787055    6.655E+01
 3.787745    6.189E+01
 3.787918    7.144E+01
 3.788782    7.156E+01
 3.789473    7.166E+01
 3.790164    7.335E+01
 3.790855    7.662E+01
 3.791718    7.834E+01
 3.792582    7.846E+01
 3.793100    7.854E+01
 3.793964    8.025E+01
 3.795000    8.040E+01
 3.795518    7.889E+01
 3.796555    7.746E+01
 3.797073    6.960E+01
 3.797764    1.046E+02
 3.797764    1.030E+02
 3.797936    9.353E+01
 3.798627    9.045E+01
 3.799664    9.060E+01
 3.800527    8.756E+01
 3.801045    8.763E+01
 3.801909    9.252E+01
 3.802082    9.096E+01
 3.802082    8.461E+01
 3.803118    8.952E+01
 3.803291    8.320E+01
 3.804155    9.126E+01
 3.804327    8.176E+01
 3.805191    8.506E+01
 3.805882    8.992E+01
 3.806400    8.524E+01
 3.806918    7.897E+01
 3.807609    8.224E+01
 3.808300    8.234E+01
 3.808991    8.086E+01
 3.809682    7.937E+01
 3.810545    7.632E+01
 3.811236    7.484E+01
 3.811927    7.176E+01
 3.812618    7.345E+01
 3.813309    6.879E+01
 3.814000    6.254E+01
 3.814691    6.423E+01
 3.815555    6.436E+01
 3.816245    5.811E+01
 3.817109    5.665E+01
 3.817627    5.990E+01
 3.818664    7.116E+01
 3.818901    7.430E+01
 3.819246    8.242E+01
 3.819419    9.857E+01
 3.819591    1.212E+02
 3.819591    1.099E+02
 3.820109    1.422E+02
 3.820564    1.635E+02
 3.820909    1.746E+02
 3.820909    1.826E+02
 3.821255    1.969E+02
 3.821945    1.986E+02
 3.822464    1.971E+02
 3.822982    1.924E+02
 3.823673    1.814E+02
 3.824018    1.767E+02
 3.824191    1.719E+02
 3.824364    1.656E+02
 3.824709    1.577E+02
 3.825055    1.498E+02
 3.825227    1.404E+02
 3.825286    1.220E+02
 3.825976    9.150E+01
 3.826149    1.076E+02
 3.826667    1.400E+02
 3.826955    1.692E+02
 3.827127    1.835E+02
 3.827300    1.962E+02
 3.827991    1.915E+02
 3.828855    1.837E+02
 3.829718    1.839E+02
 3.830409    1.792E+02
 3.830582    1.872E+02
 3.831445    1.825E+02
 3.831791    1.873E+02
 3.832309    1.938E+02
 3.832827    2.002E+02
 3.833000    2.050E+02
 3.833742    1.749E+02
 3.833864    2.051E+02
 3.833864    1.972E+02
 3.834087    1.443E+02
 3.834432    1.089E+02
 3.834900    9.098E+01
 3.835245    7.675E+01
 3.835591    7.045E+01
 3.835936    6.416E+01
 3.836627    7.219E+01
 3.836800    7.856E+01
 3.837318    8.499E+01
 3.837836    8.189E+01
 3.838527    8.834E+01
 3.838873    9.474E+01
 3.839564    9.642E+01
 3.840255    9.970E+01
 3.840515    9.527E+01
 3.841118    1.030E+02
 3.842062    1.068E+02
 3.843093    1.053E+02
 3.843952    1.055E+02
 3.844811    1.072E+02
 3.845842    1.041E+02
 3.846529    1.107E+02
 3.847216    1.092E+02
 3.848076    1.077E+02
 3.848935    1.094E+02
 3.849966    1.112E+02
 3.850653    1.097E+02
 3.851340    1.098E+02
 3.851856    1.163E+02
 3.852543    1.132E+02
 3.853230    1.117E+02
 3.854261    1.135E+02
 3.855109    1.098E+02
 3.855979    1.121E+02
 3.856151    1.234E+02
 3.857010    1.155E+02
 3.857869    1.108E+02
 3.858557    1.109E+02
 3.859072    1.142E+02
 3.859759    1.111E+02
 3.860619    1.144E+02
 3.861306    1.081E+02
 3.861821    1.130E+02
 3.862337    1.099E+02
 3.863055    1.141E+02
 3.863745    1.095E+02
 3.864742    1.118E+02
 3.865430    1.152E+02
 3.866164    1.098E+02
 3.866855    1.099E+02
 3.867718    1.101E+02
 3.868351    1.124E+02
 3.869273    1.087E+02
 3.870309    1.073E+02
 3.871100    1.112E+02
 3.871787    1.097E+02
 3.872646    1.082E+02
 3.874192    1.084E+02
 3.874880    1.037E+02
 3.875567    1.022E+02
 3.876082    9.904E+01
 3.876700    8.914E+01
 3.876873    8.599E+01
 3.876873    8.282E+01
 3.877218    7.018E+01
 3.878082    1.131E+02
 3.878144    9.451E+01
 3.878427    6.718E+01
 3.878427    1.275E+02
 3.879118    1.308E+02
 3.879863    1.238E+02
 3.880893    1.240E+02
 3.881882    1.248E+02
 3.882784    1.226E+02
 3.883814    1.228E+02
 3.884502    1.261E+02
 3.885189    1.246E+02
 3.885533    1.198E+02
 3.886220    1.231E+02
 3.887251    1.217E+02
 3.887938    1.234E+02
 3.888454    1.267E+02
 3.889141    1.317E+02
 3.890161    9.492E+01
 3.890861    9.153E+01
 3.891562    8.305E+01
 3.891912    8.136E+01
 3.892611    8.305E+01
 3.893311    8.305E+01
 3.893837    7.627E+01
 3.894536    8.136E+01
 3.895061    7.797E+01
 3.895586    7.627E+01
 3.896110    7.966E+01
 3.896810    7.966E+01
 3.897510    7.797E+01
 3.898209    8.136E+01
 3.899084    7.797E+01
 3.899784    8.136E+01
 3.900658    8.136E+01
 3.901533    7.966E+01
 3.902233    8.136E+01
 3.902757    8.644E+01
 3.903282    8.136E+01
 3.904157    8.136E+01
 3.904856    8.475E+01
 3.905556    8.305E+01
 3.906255    8.983E+01
 3.907304    9.153E+01
 3.908003    9.661E+01
 3.908526    1.068E+02
 3.909400    1.153E+02
 3.909750    1.119E+02
 3.909933    5.424E+01
 3.910111    3.898E+01
 3.910112    3.220E+01
 3.910277    9.831E+01
 3.910455    7.458E+01
 3.910458    5.932E+01
 3.910460    4.576E+01
 3.910809    4.915E+01
 3.910810    4.068E+01
 3.910986    3.220E+01
 3.911164    1.356E+01
 3.911513    2.203E+01
 3.912387    2.542E+01
 3.912911    3.051E+01
 3.913610    3.729E+01
 3.914659    4.068E+01
 3.915533    4.407E+01
 3.916232    4.915E+01
 3.916931    4.915E+01
 3.917631    5.254E+01
 3.918505    5.593E+01
 3.919379    5.593E+01
 3.920254    5.424E+01
 3.921304    5.424E+01
 3.922178    5.763E+01
 3.923228    5.593E+01
 3.923927    5.763E+01
 3.924803    5.254E+01
 3.925852    5.254E+01
 3.926551    5.593E+01
 3.927600    5.932E+01
 3.928476    5.424E+01
 3.929352    4.407E+01
 3.929699    6.271E+01
 3.930051    4.915E+01
 3.930397    7.458E+01
 3.931094    9.322E+01
 3.931096    8.136E+01
 3.931606    1.797E+02
 3.931954    1.881E+02
 3.931960    1.508E+02
 3.932477    2.034E+02
 3.932656    1.763E+02
 3.932677    3.220E+01
 3.932846    7.458E+01
 3.933027    3.559E+01
 3.933204    1.695E+01
 3.933723    5.763E+01
 3.934416    1.000E+02
 3.934768    8.644E+01
 3.935296    6.949E+01
 3.935822    6.102E+01
 3.936697    5.932E+01
 3.937222    5.763E+01
 3.937920    6.271E+01
 3.938097    5.424E+01
 3.938797    4.915E+01
 3.939671    5.593E+01
 3.940370    5.593E+01
 3.940896    5.254E+01
 3.941246    5.254E+01
 3.941945    5.254E+01
 3.942645    5.254E+01
 3.943170    5.085E+01
 3.943695    5.254E+01
 3.944219    5.254E+01
 3.944569    5.593E+01
 3.945269    5.254E+01
 3.945969    4.915E+01
 3.946319    5.254E+01
 3.947019    4.915E+01
 3.947718    4.915E+01
 3.948768    5.085E+01
 3.949294    4.407E+01
 3.949993    4.407E+01
 3.950518    4.407E+01
 3.951042    4.746E+01
 3.951917    4.576E+01
 3.952617    4.576E+01
 3.953317    4.237E+01
 3.954191    4.576E+01
 3.955066    4.237E+01
 3.955941    4.407E+01
 3.956466    4.237E+01
 3.957166    3.898E+01
 3.957865    4.068E+01
 3.958390    3.898E+01
 3.958916    3.559E+01
 3.959441    3.390E+01
 3.960315    3.729E+01
 3.960841    3.051E+01
 3.961540    3.051E+01
 3.962415    3.051E+01
 3.963290    3.051E+01
 3.963811    5.085E+01
 3.963813    4.068E+01
 3.964510    5.763E+01
 3.964680    9.153E+01
 3.965023    1.356E+02
 3.965028    1.068E+02
 3.965722    1.441E+02
 3.966073    1.305E+02
 3.966601    1.136E+02
 3.966952    1.051E+02
 3.967128    9.492E+01
 3.967304    8.814E+01
 3.967831    7.797E+01
 3.968007    6.949E+01
 3.968358    6.271E+01
 3.968884    5.593E+01
 3.969059    5.254E+01
 3.969933    5.424E+01
 3.970284    4.576E+01
 3.970984    4.407E+01
 3.971685    4.068E+01
 3.972560    3.559E+01
 3.973260    3.220E+01
 3.973960    3.220E+01
 3.974835    3.220E+01
 3.975710    3.051E+01
 3.976759    3.220E+01
 3.977283    3.729E+01
 3.977982    4.068E+01
 3.978681    4.746E+01
 3.979204    5.424E+01
 3.979903    6.102E+01
 3.980252    6.610E+01
 3.980601    7.288E+01
 3.980950    7.966E+01
 3.981474    8.644E+01
 3.981647    9.492E+01
 3.982346    1.051E+02
 3.982521    1.000E+02
 3.982869    1.169E+02
 3.983217    1.237E+02
 3.983566    1.322E+02
 3.984090    1.373E+02
 3.984613    1.458E+02
 3.985487    1.525E+02
 3.986361    1.559E+02
 3.987236    1.576E+02
 3.988285    1.559E+02
 3.989160    1.559E+02
 3.990385    1.542E+02
 3.991085    1.492E+02
 3.991611    1.441E+02
 3.991961    1.407E+02
 3.993010    1.424E+02
 3.993711    1.373E+02
 3.994234    1.458E+02
 3.994934    1.458E+02
 3.994935    1.373E+02
 3.995286    1.305E+02
 3.995987    1.254E+02
 3.996686    1.254E+02
 3.997387    1.220E+02
 3.998262    1.169E+02
 3.998963    1.119E+02
 3.999488    1.102E+02
 3.999839    9.831E+01
 4.000540    8.983E+01
 4.000708    1.356E+02
 4.000712    1.119E+02
 4.001408    1.322E+02
 4.001935    1.237E+02
 4.002286    1.153E+02
 4.002985    1.153E+02
 4.004035    1.153E+02
 4.004560    1.102E+02
 4.005436    1.068E+02
ENDDATA           1425
ENDSUBENT         1441
SUBENT        E1494003   20070909   20070911   20070909       E047
BIB                  5          7
REACTION   (28-NI-58(P,EL)28-NI-58,,DA)
EN-SEC     ANG is polar angle between beam and proton in
           laboratory system
SAMPLE     - Target enrichment is 99.94%.
           - Target-thickness is 0.037 mg/cm**2.
STATUS     (CURVE) Scanned from Fig.2, p130 in reference
HISTORY    (20060228A) At. Re-digitized
ENDBIB               7
COMMON               1          3
ANG
ADEG
 90.
ENDCOMMON            3
DATA                 2        218
EN         DATA
MEV        MB/SR
 3.462000    3.371E+02
 3.462000    3.355E+02
 3.462252    3.506E+02
 3.462254    3.210E+02
 3.462870    3.185E+02
 3.463000    3.035E+02
 3.463590    3.185E+02
 3.463795    3.333E+02
 3.464412    3.235E+02
 3.464617    3.358E+02
 3.465131    3.210E+02
 3.465747    3.333E+02
 3.466000    3.159E+02
 3.466000    3.183E+02
 3.466776    3.185E+02
 3.467495    3.210E+02
 3.468215    3.210E+02
 3.468934    3.210E+02
 3.469242    3.309E+02
 3.469859    3.160E+02
 3.470476    3.160E+02
 3.470784    3.309E+02
 3.471298    3.160E+02
 3.471914    3.309E+02
 3.471915    3.160E+02
 3.472634    3.210E+02
 3.473250    3.235E+02
 3.473251    3.062E+02
 3.474000    2.938E+02
 3.474176    3.086E+02
 3.474998    3.160E+02
 3.475717    3.136E+02
 3.476334    3.235E+02
 3.476437    3.086E+02
 3.477000    3.234E+02
 3.477259    3.136E+02
 3.477876    3.160E+02
 3.478185    3.012E+02
 3.478698    3.111E+02
 3.479315    3.037E+02
 3.479932    2.889E+02
 3.480000    2.594E+02
 3.480346    2.272E+02
 3.480654    2.469E+02
 3.481000    3.062E+02
 3.481164    3.333E+02
 3.481368    3.531E+02
 3.481676    3.630E+02
 3.482191    3.481E+02
 3.482294    3.309E+02
 3.483000    3.358E+02
 3.483425    3.185E+02
 3.483939    3.309E+02
 3.484555    3.333E+02
 3.484658    3.235E+02
 3.485000    3.407E+02
 3.485583    3.358E+02
 3.486097    3.235E+02
 3.486611    3.284E+02
 3.487227    3.432E+02
 3.487228    3.259E+02
 3.487947    3.309E+02
 3.488000    3.211E+02
 3.488050    3.185E+02
 3.488666    3.309E+02
 3.489078    3.185E+02
 3.489386    3.284E+02
 3.490002    3.309E+02
 3.490209    3.160E+02
 3.490722    3.309E+02
 3.491000    3.186E+02
 3.491441    3.358E+02
 3.491956    3.210E+02
 3.492675    3.185E+02
 3.493292    3.086E+02
 3.493497    3.185E+02
 3.494011    3.284E+02
 3.494525    3.210E+02
 3.495000    3.113E+02
 3.495347    3.185E+02
 3.496000    2.990E+02
 3.496000    3.162E+02
 3.496684    3.086E+02
 3.497095    3.012E+02
 3.497711    3.086E+02
 3.498328    3.086E+02
 3.498739    3.037E+02
 3.499150    3.136E+02
 3.499561    3.235E+02
 3.500000    3.114E+02
 3.500589    3.160E+02
 3.501309    3.111E+02
 3.502028    3.111E+02
 3.502542    3.160E+02
 3.503158    3.185E+02
 3.503262    2.988E+02
 3.504000    3.114E+02
 3.504597    3.160E+02
 3.504905    3.284E+02
 3.505419    3.160E+02
 3.506036    3.185E+02
 3.506652    3.185E+02
 3.507269    3.136E+02
 3.507885    3.259E+02
 3.508195    3.086E+02
 3.509017    3.062E+02
 3.509736    3.136E+02
 3.510249    3.284E+02
 3.510969    3.185E+02
 3.511585    3.259E+02
 3.511792    3.111E+02
 3.512511    3.210E+02
 3.513025    3.086E+02
 3.513538    3.210E+02
 3.514053    3.062E+02
 3.514361    3.185E+02
 3.514978    3.037E+02
 3.515183    3.185E+02
 3.515800    3.111E+02
 3.516007    2.790E+02
 3.516933    2.543E+02
 3.517138    2.716E+02
 3.517342    2.963E+02
 3.517547    3.160E+02
 3.517855    3.185E+02
 3.518473    2.765E+02
 3.518575    2.988E+02
 3.519000    2.352E+02
 3.519196    1.926E+02
 3.520021    1.457E+02
 3.520327    1.802E+02
 3.520840    2.099E+02
 3.521000    2.352E+02
 3.521352    2.568E+02
 3.521557    2.642E+02
 3.521659    2.815E+02
 3.522275    2.938E+02
 3.522686    3.086E+02
 3.523200    2.988E+02
 3.523919    3.086E+02
 3.524638    3.136E+02
 3.525049    3.284E+02
 3.525255    3.111E+02
 3.525974    3.284E+02
 3.526283    3.136E+02
 3.527002    3.185E+02
 3.527515    3.284E+02
 3.528132    3.210E+02
 3.528749    3.284E+02
 3.529263    3.111E+02
 3.530291    3.185E+02
 3.531319    3.160E+02
 3.532141    3.086E+02
 3.532963    3.185E+02
 3.533682    3.136E+02
 3.534505    3.086E+02
 3.535224    3.086E+02
 3.535944    3.111E+02
 3.536354    3.210E+02
 3.536971    3.284E+02
 3.537588    3.185E+02
 3.538204    3.185E+02
 3.538924    3.160E+02
 3.539644    3.111E+02
 3.540261    2.963E+02
 3.540363    3.086E+02
 3.541000    2.995E+02
 3.541700    2.988E+02
 3.542110    3.086E+02
 3.542727    3.012E+02
 3.543035    3.086E+02
 3.543447    3.012E+02
 3.543960    3.086E+02
 3.544269    2.963E+02
 3.544270    2.790E+02
 3.545091    2.988E+02
 3.545708    3.012E+02
 3.546000    3.144E+02
 3.546530    3.012E+02
 3.547249    2.988E+02
 3.547866    3.086E+02
 3.548277    2.914E+02
 3.548585    3.062E+02
 3.549202    3.012E+02
 3.549921    3.062E+02
 3.550641    2.988E+02
 3.551463    2.988E+02
 3.552000    3.095E+02
 3.552594    3.012E+02
 3.553000    3.169E+02
 3.553313    2.988E+02
 3.553724    3.086E+02
 3.554444    2.988E+02
 3.555060    2.988E+02
 3.555677    2.914E+02
 3.556000    3.096E+02
 3.556499    2.938E+02
 3.557116    3.012E+02
 3.557835    3.037E+02
 3.558247    2.864E+02
 3.559000    2.993E+02
 3.559000    2.973E+02
 3.559788    3.012E+02
 3.560405    2.864E+02
 3.560919    2.741E+02
 3.561434    2.593E+02
 3.562000    2.382E+02
 3.562000    3.045E+02
 3.562357    3.062E+02
 3.563178    3.259E+02
 3.563898    3.210E+02
 3.564515    3.111E+02
 3.564617    3.284E+02
 3.565131    3.185E+02
 3.565851    3.111E+02
 3.566570    3.185E+02
 3.567187    3.160E+02
 3.567907    3.111E+02
ENDDATA            220
ENDSUBENT          236
SUBENT        E1494004   20070909   20070911   20070909       E047
BIB                  5          7
REACTION   (28-NI-58(P,EL)28-NI-58,,DA)
EN-SEC     ANG is polar angle between beam and proton in
           laboratory system
SAMPLE     - Target enrichment is 99.94%.
           - Target-thickness is 0.037 mg/cm**2.
STATUS     (CURVE) Scanned from Fig.2, p130 in reference
HISTORY    (20060228A) At. Re-digitized
ENDBIB               7
COMMON               1          3
ANG
ADEG
 120.
ENDCOMMON            3
DATA                 2        249
EN         DATA
MEV        MB/SR
 3.462055    1.696E+02
 3.462261    1.608E+02
 3.462878    1.627E+02
 3.463083    1.549E+02
 3.463392    1.657E+02
 3.463700    1.627E+02
 3.464317    1.598E+02
 3.465036    1.647E+02
 3.465344    1.686E+02
 3.465961    1.657E+02
 3.466372    1.618E+02
 3.467000    1.578E+02
 3.467297    1.608E+02
 3.468000    1.618E+02
 3.468633    1.618E+02
 3.469250    1.647E+02
 3.469661    1.588E+02
 3.470000    1.598E+02
 3.470380    1.647E+02
 3.470586    1.578E+02
 3.471100    1.627E+02
 3.471614    1.667E+02
 3.472025    1.676E+02
 3.472230    1.578E+02
 3.472436    1.618E+02
 3.472950    1.549E+02
 3.473566    1.686E+02
 3.473669    1.559E+02
 3.473772    1.618E+02
 3.474000    1.569E+02
 3.474000    1.647E+02
 3.474183    1.745E+02
 3.474388    1.686E+02
 3.474491    1.598E+02
 3.474491    1.451E+02
 3.475000    1.559E+02
 3.475827    1.471E+02
 3.475827    1.559E+02
 3.476547    1.510E+02
 3.477000    1.569E+02
 3.477677    1.520E+02
 3.478602    1.520E+02
 3.479322    1.578E+02
 3.479733    1.520E+02
 3.480000    1.461E+02
 3.480555    1.520E+02
 3.480761    1.578E+02
 3.480761    1.794E+02
 3.481000    1.892E+02
 3.481480    1.667E+02
 3.481583    1.814E+02
 3.481891    1.676E+02
 3.482199    1.549E+02
 3.482302    1.490E+02
 3.482816    1.529E+02
 3.483433    1.559E+02
 3.484000    1.588E+02
 3.484255    1.520E+02
 3.484974    1.637E+02
 3.485000    1.569E+02
 3.485694    1.569E+02
 3.486310    1.618E+02
 3.487133    1.598E+02
 3.488000    1.598E+02
 3.488000    1.608E+02
 3.488674    1.598E+02
 3.489291    1.559E+02
 3.489702    1.608E+02
 3.490421    1.529E+02
 3.491038    1.559E+02
 3.491655    1.598E+02
 3.492169    1.559E+02
 3.492580    1.490E+02
 3.493000    1.549E+02
 3.493299    1.490E+02
 3.493813    1.549E+02
 3.494018    1.480E+02
 3.494738    1.500E+02
 3.495355    1.529E+02
 3.495766    1.510E+02
 3.496280    1.471E+02
 3.496793    1.471E+02
 3.497205    1.520E+02
 3.497821    1.529E+02
 3.498438    1.500E+02
 3.498643    1.461E+02
 3.498849    1.549E+02
 3.499260    1.500E+02
 3.499774    1.549E+02
 3.499877    1.480E+02
 3.500288    1.422E+02
 3.500904    1.461E+02
 3.501213    1.520E+02
 3.501727    1.490E+02
 3.502240    1.451E+02
 3.502857    1.412E+02
 3.503000    1.461E+02
 3.503000    1.469E+02
 3.503000    1.473E+02
 3.503577    1.510E+02
 3.503679    1.382E+02
 3.503782    1.451E+02
 3.504399    1.461E+02
 3.504502    1.402E+02
 3.505118    1.451E+02
 3.505735    1.471E+02
 3.506249    1.490E+02
 3.506865    1.451E+02
 3.507585    1.422E+02
 3.508099    1.471E+02
 3.508304    1.353E+02
 3.508715    1.431E+02
 3.509332    1.431E+02
 3.510000    1.422E+02
 3.510462    1.412E+02
 3.510976    1.402E+02
 3.511387    1.402E+02
 3.512004    1.363E+02
 3.512621    1.373E+02
 3.513032    1.333E+02
 3.513649    1.343E+02
 3.514265    1.265E+02
 3.514368    1.324E+02
 3.515087    1.275E+02
 3.515704    1.225E+02
 3.515910    1.157E+02
 3.516526    1.098E+02
 3.517143    1.275E+02
 3.517246    1.216E+02
 3.517554    1.049E+02
 3.518000    9.412E+01
 3.518068    8.235E+01
 3.518890    7.353E+01
 3.519815    8.431E+01
 3.520226    1.265E+02
 3.520534    9.020E+01
 3.520637    1.676E+02
 3.520946    1.922E+02
 3.521000    1.977E+02
 3.521357    1.784E+02
 3.521357    2.010E+02
 3.521871    1.951E+02
 3.522076    2.010E+02
 3.522693    1.951E+02
 3.522795    2.020E+02
 3.523104    1.814E+02
 3.523618    1.824E+02
 3.523720    1.882E+02
 3.524337    1.833E+02
 3.524440    1.882E+02
 3.524954    1.833E+02
 3.525365    1.775E+02
 3.526000    1.755E+02
 3.526393    1.725E+02
 3.527112    1.706E+02
 3.527420    1.627E+02
 3.527831    1.725E+02
 3.527831    1.667E+02
 3.528243    1.627E+02
 3.528551    1.676E+02
 3.529000    1.657E+02
 3.529168    1.706E+02
 3.529579    1.676E+02
 3.530000    1.657E+02
 3.530195    1.618E+02
 3.530709    1.657E+02
 3.531737    1.725E+02
 3.532045    1.598E+02
 3.532662    1.588E+02
 3.533000    1.637E+02
 3.533690    1.608E+02
 3.533998    1.529E+02
 3.534409    1.608E+02
 3.534615    1.549E+02
 3.535000    1.598E+02
 3.535000    1.586E+02
 3.535642    1.588E+02
 3.536053    1.588E+02
 3.536670    1.578E+02
 3.537287    1.569E+02
 3.537801    1.608E+02
 3.538006    1.549E+02
 3.538417    1.608E+02
 3.538828    1.559E+02
 3.539000    1.626E+02
 3.539548    1.578E+02
 3.539959    1.520E+02
 3.540062    1.608E+02
 3.540576    1.559E+02
 3.541192    1.510E+02
 3.541912    1.529E+02
 3.542425    1.569E+02
 3.543145    1.559E+02
 3.543556    1.598E+02
 3.544070    1.804E+02
 3.544173    1.725E+02
 3.544789    1.608E+02
 3.545098    1.480E+02
 3.545303    1.559E+02
 3.545817    1.480E+02
 3.546125    1.382E+02
 3.546536    1.480E+02
 3.547256    1.480E+02
 3.547975    1.490E+02
 3.548695    1.520E+02
 3.548900    1.461E+02
 3.549517    1.500E+02
 3.550000    1.461E+02
 3.550339    1.520E+02
 3.551000    1.471E+02
 3.551264    1.539E+02
 3.552000    1.529E+02
 3.552086    1.461E+02
 3.552600    1.510E+02
 3.553000    1.500E+02
 3.553525    1.480E+02
 3.554000    1.539E+02
 3.554656    1.510E+02
 3.554758    1.451E+02
 3.555375    1.451E+02
 3.555992    1.500E+02
 3.556000    1.431E+02
 3.556711    1.451E+02
 3.556814    1.520E+02
 3.557431    1.490E+02
 3.557533    1.431E+02
 3.558150    1.539E+02
 3.558253    1.451E+02
 3.558972    1.451E+02
 3.559692    1.471E+02
 3.560103    1.422E+02
 3.560822    1.402E+02
 3.561439    1.422E+02
 3.561850    1.471E+02
 3.562158    1.588E+02
 3.562261    1.853E+02
 3.562878    1.735E+02
 3.563000    1.882E+02
 3.563083    1.676E+02
 3.564008    1.578E+02
 3.564522    1.539E+02
 3.565139    1.500E+02
 3.565653    1.529E+02
 3.566166    1.490E+02
 3.566578    1.539E+02
 3.567091    1.451E+02
 3.567297    1.510E+02
 3.568000    1.549E+02
 3.568016    1.471E+02
ENDDATA            251
ENDSUBENT          267
SUBENT        E1494005   20070909   20070911   20070909       E047
BIB                  5          7
REACTION   (28-NI-58(P,EL)28-NI-58,,DA)
EN-SEC     ANG is polar angle between beam and proton in
           laboratory system
SAMPLE     - Target enrichment is 99.94%.
           - Target-thickness is 0.037 mg/cm**2.
STATUS     (CURVE) Scanned from Fig.2, p130 in reference
HISTORY    (20060228A) At. Re-digitized
ENDBIB               7
COMMON               1          3
ANG
ADEG
 135.
ENDCOMMON            3
DATA                 2        230
EN         DATA
MEV        MB/SR
 3.462166    1.347E+02
 3.462364    1.300E+02
 3.462759    1.328E+02
 3.462760    1.252E+02
 3.463451    1.308E+02
 3.464000    1.271E+02
 3.464044    1.345E+02
 3.465131    1.335E+02
 3.465822    1.353E+02
 3.466020    1.306E+02
 3.466613    1.305E+02
 3.467009    1.286E+02
 3.467602    1.276E+02
 3.468293    1.304E+02
 3.468985    1.303E+02
 3.469578    1.265E+02
 3.470270    1.264E+02
 3.470566    1.321E+02
 3.470863    1.264E+02
 3.471158    1.348E+02
 3.471752    1.301E+02
 3.472444    1.272E+02
 3.473036    1.318E+02
 3.473136    1.252E+02
 3.473529    1.393E+02
 3.473925    1.327E+02
 3.474322    1.195E+02
 3.474717    1.251E+02
 3.475212    1.109E+02
 3.475310    1.184E+02
 3.475904    1.127E+02
 3.476101    1.193E+02
 3.476594    1.240E+02
 3.476791    1.296E+02
 3.477483    1.258E+02
 3.478076    1.267E+02
 3.478669    1.219E+02
 3.478767    1.304E+02
 3.479558    1.284E+02
 3.480049    1.567E+02
 3.480150    1.397E+02
 3.480741    1.594E+02
 3.481000    1.169E+02
 3.481141    1.085E+02
 3.481340    9.713E+01
 3.481933    9.802E+01
 3.482129    1.093E+02
 3.482524    1.159E+02
 3.483117    1.121E+02
 3.483511    1.243E+02
 3.483907    1.148E+02
 3.484104    1.233E+02
 3.484796    1.213E+02
 3.485488    1.213E+02
 3.485982    1.212E+02
 3.486476    1.174E+02
 3.486574    1.268E+02
 3.486673    1.212E+02
 3.487069    1.211E+02
 3.487760    1.201E+02
 3.488353    1.276E+02
 3.488353    1.229E+02
 3.488551    1.163E+02
 3.489144    1.200E+02
 3.489835    1.218E+02
 3.490527    1.208E+02
 3.491022    1.170E+02
 3.491416    1.217E+02
 3.492009    1.198E+02
 3.492109    1.131E+02
 3.492701    1.188E+02
 3.492702    1.140E+02
 3.493295    1.121E+02
 3.493689    1.177E+02
 3.494381    1.195E+02
 3.494974    1.176E+02
 3.495567    1.138E+02
 3.496062    1.090E+02
 3.496259    1.156E+02
 3.496951    1.155E+02
 3.497643    1.126E+02
 3.498433    1.116E+02
 3.499026    1.163E+02
 3.499520    1.115E+02
 3.500212    1.105E+02
 3.500903    1.124E+02
 3.501298    1.180E+02
 3.501892    1.123E+02
 3.502485    1.113E+02
 3.502584    1.075E+02
 3.503177    1.084E+02
 3.503771    9.606E+01
 3.504265    9.507E+01
 3.504462    1.035E+02
 3.504757    1.139E+02
 3.505844    1.147E+02
 3.505943    1.062E+02
 3.506536    1.137E+02
 3.507129    1.118E+02
 3.507821    1.032E+02
 3.507919    1.098E+02
 3.508611    1.098E+02
 3.509007    1.031E+02
 3.509501    1.087E+02
 3.510192    1.087E+02
 3.510884    1.058E+02
 3.511378    1.039E+02
 3.511676    9.723E+01
 3.511971    1.048E+02
 3.512564    1.019E+02
 3.512861    9.618E+01
 3.512959    1.075E+02
 3.513553    9.989E+01
 3.514048    9.325E+01
 3.514343    1.008E+02
 3.514838    9.412E+01
 3.515629    9.027E+01
 3.515926    8.459E+01
 3.516221    9.965E+01
 3.516419    9.020E+01
 3.517012    9.392E+01
 3.517014    7.694E+01
 3.517213    5.994E+01
 3.517807    5.140E+01
 3.518300    5.513E+01
 3.519288    5.787E+01
 3.519383    9.276E+01
 3.520000    1.841E+02
 3.520071    1.361E+02
 3.520265    1.672E+02
 3.520560    1.851E+02
 3.521251    1.869E+02
 3.521647    1.775E+02
 3.522142    1.736E+02
 3.522538    1.679E+02
 3.522538    1.623E+02
 3.523033    1.538E+02
 3.523428    1.584E+02
 3.523824    1.490E+02
 3.524022    1.452E+02
 3.524516    1.489E+02
 3.524813    1.423E+02
 3.525208    1.470E+02
 3.525505    1.394E+02
 3.526098    1.356E+02
 3.526790    1.374E+02
 3.526889    1.327E+02
 3.527580    1.373E+02
 3.527976    1.297E+02
 3.528866    1.296E+02
 3.529656    1.315E+02
 3.530447    1.314E+02
 3.531139    1.266E+02
 3.531731    1.284E+02
 3.532423    1.255E+02
 3.533016    1.255E+02
 3.533313    1.208E+02
 3.533510    1.283E+02
 3.534004    1.292E+02
 3.534499    1.254E+02
 3.534499    1.188E+02
 3.535092    1.234E+02
 3.535685    1.205E+02
 3.536178    1.252E+02
 3.536673    1.205E+02
 3.537463    1.204E+02
 3.538057    1.156E+02
 3.538452    1.203E+02
 3.538945    1.231E+02
 3.539539    1.183E+02
 3.540132    1.107E+02
 3.540824    1.154E+02
 3.541516    1.134E+02
 3.541614    1.200E+02
 3.542305    1.199E+02
 3.542504    1.133E+02
 3.543096    1.170E+02
 3.543788    1.198E+02
 3.544578    1.160E+02
 3.544777    1.056E+02
 3.545271    1.074E+02
 3.545765    1.036E+02
 3.546061    1.102E+02
 3.546653    1.167E+02
 3.546753    1.101E+02
 3.547345    1.157E+02
 3.547544    1.082E+02
 3.548235    1.081E+02
 3.548927    1.118E+02
 3.549717    1.098E+02
 3.550409    1.136E+02
 3.550804    1.097E+02
 3.551595    1.106E+02
 3.551694    1.049E+02
 3.552286    1.106E+02
 3.552780    1.143E+02
 3.553373    1.114E+02
 3.553769    1.066E+02
 3.554065    1.104E+02
 3.554361    1.132E+02
 3.554954    1.103E+02
 3.555548    1.065E+02
 3.556140    1.083E+02
 3.556832    1.101E+02
 3.557425    1.101E+02
 3.558018    1.100E+02
 3.558610    1.128E+02
 3.559204    1.090E+02
 3.559697    1.118E+02
 3.559993    1.165E+02
 3.560487    1.192E+02
 3.561080    1.201E+02
 3.561474    1.314E+02
 3.561573    1.248E+02
 3.561769    1.484E+02
 3.561770    1.361E+02
 3.561967    1.408E+02
 3.562362    1.455E+02
 3.562463    1.210E+02
 3.562465    9.926E+01
 3.563059    9.638E+01
 3.563553    9.728E+01
 3.564244    9.910E+01
 3.564837    9.999E+01
 3.565430    9.994E+01
 3.566023    9.988E+01
 3.566318    1.055E+02
 3.566911    1.092E+02
 3.567406    1.035E+02
 3.568097    1.016E+02
ENDDATA            232
ENDSUBENT          248
SUBENT        E1494006   20240503   20240505   20240505       E143
BIB                  6         12
REACTION  1(28-NI-58(P,TOT),,WID)
          2(28-NI-58(P,0),,J)
          3(28-NI-58(P,0),,L)
MISC-COL   (MISC) Reduced width calculated from Gamma(p) using
                  penetrabilities generated by Coulomb wave
                  functions
SAMPLE     Target-thickness is 0.037 mg/cm2.
           (28-NI-58,ENR=0.9994)
ERR-ANALYS (DATA-ERR) No information on source of uncertainties
STATUS     (TABLE,,E.Arai+,J,NP/A,256,127,1976) Table 1
HISTORY    (20240319A) MA: REACTION/2,3: SF3 -> 0; STATUS:
                       modified.
ENDBIB              12
NOCOMMON             0          0
DATA                 6         60
EN-RES     DATA      1DATA-ERR  1DATA      2DATA      3MISC
MEV        EV         EV         NO-DIM     NO-DIM     KEV
     2.9580        20.                   2.5         2.       1.40
     2.9610        20.                   2.5         2.       1.39
     2.9980        60.                   1.5         2.       3.79
     3.0540        90.                   1.5         1.       1.27
     3.1372        40.                   2.5         2.       1.81
     3.1470        40.                   0.5         1.      0.464
     3.1470        60.                   1.5         1.      0.696
     3.1510      5000.                   0.5         0.      29.28
     3.1512        80.                   1.5         2.       3.50
     3.1666       160.                   1.5         1.       1.78
     3.2116       100.                   0.5         1.       1.02
     3.2436       100.                   0.5         1.      0.958
     3.2658        25.                   1.5         2.      0.847
     3.2820        60.                   1.5         1.      0.534
     3.2830        60.                   1.5         1.      0.533
     3.3534       162.                   0.5         1.       1.26
     3.3660        63.                   0.5         1.      0.480
     3.3690       150.                   2.5         2.       4.09
     3.3882      2400.                   0.5         0.       9.31
     3.3900        30.                   0.5         0.      0.116
     3.4515        50.                   1.5         1.      0.328
     3.4733        9.7        0.4        4.5         4.      13.79
     3.4755       47.6        4.3        0.5         1.      0.296
     3.4802      114.1        3.0        2.5         2.       2.46
     3.5052        60.                   0.5         1.      0.355
     3.5174       69.0        3.0        2.5         2.       1.38
     3.5202      1544.       180.        0.5         0.       4.83
     3.5446       24.4        0.8        4.5         4.      29.14
     3.5622       150.                   2.5         2.       2.77
     3.5784      212.0       15.0        0.5         1.       1.12
     3.5838        80.                   0.5         1.      0.417
     3.5862       400.                   1.5         2.       7.06
     3.5979        90.                   1.5         1.      0.459
     3.6079       75.6        2.5        2.5         2.       1.28
     3.6115       35.5        3.9        1.5         1.      0.177
     3.6333        31.                   2.5         2.      0.503
     3.6570      7000.                   0.5         0.      18.07
     3.6715        78.                   1.5         1.      0.356
     3.6863        18.                   2.5         2.      0.266
     3.7188       100.                   1.5         1.      0.425
     3.7424      314.5        7.1        1.5         1.       1.30
     3.7522      2300.                   2.5         2.      24.28
     3.7750        20.                   1.5         1.      0.078
     3.7831      672.7       31.5        0.5         1.      2.610
     3.7852      809.3       41.5        2.5         2.       9.10
     3.7971       100.                   1.5         1.      0.380
     3.8202      5000.                   0.5         0.      10.48
     3.8262       500.                   0.5         1.       1.83
     3.8345      2000.                   1.5         2.      23.05
     3.8563         5.                   3.5         3.      0.315
     3.8782      626.0       36.0        0.5         1.       2.13
     3.8898        40.                   2.5         2.      0.422
     3.9110      1800.                   1.5         2.      12.49
     3.9305       60.2        4.4        1.5         1.      0.191
     3.9328       300.                   2.5         2.       2.96
     3.9340      151.2        7.2        1.5         1.      0.479
     3.9652      1600.                   0.5         0.       2.55
     3.9816       100.                   1.5         2.      0.916
     3.9826     11500.                   0.5         0.      19.97
     4.0002       80.5        9.7        0.5         1.      0.236
ENDDATA             62
ENDSUBENT           79
SUBENT        E1494007   20070909   20070911   20070909       E047
BIB                  3          6
REACTION   ((28-NI-58(P,EL),,WID)/
           (28-NI-58(P,TOT),,WID))
           Gamma(p)/Gamma(tot)
SAMPLE     - Target enrichment is 99.94%.
           - Target-thickness is 0.037 mg/cm**2.
STATUS     (TABLE) Taken from Table 1, p131 in reference
ENDBIB               6
NOCOMMON             0          0
DATA                 2         60
EN-RES     DATA
MEV        NO-DIM
 2.9580     1.00
 2.9610     1.00
 2.9980     1.00
 3.0540     1.00
 3.1372     1.00
 3.1470     1.00
 3.1470     1.00
 3.1510     1.00
 3.1512     1.00
 3.1666     1.00
 3.2116     1.00
 3.2436     1.00
 3.2658     1.00
 3.2820     1.00
 3.2830     1.00
 3.3534     1.00
 3.3660     1.00
 3.3690     1.00
 3.3882     1.00
 3.3900     1.00
 3.4515     1.00
 3.4733     0.86
 3.4755     1.00
 3.4802     1.00
 3.5052     1.00
 3.5174     1.00
 3.5202     1.00
 3.5446     0.70
 3.5622     1.00
 3.5784     1.00
 3.5838     1.00
 3.5862     1.00
 3.5979     1.00
 3.6079     1.00
 3.6115     1.00
 3.6333     1.00
 3.6570     1.00
 3.6715     1.00
 3.6863     1.00
 3.7188     1.00
 3.7424     1.00
 3.7522     0.8
 3.7750     1.00
 3.7831     1.00
 3.7852     0.9
 3.7971     1.00
 3.8202     1.00
 3.8262     1.00
 3.8345     1.00
 3.8563     1.00
 3.8782     1.00
 3.8898     1.00
 3.9110     0.68
 3.9305     1.00
 3.9328     1.00
 3.9340     1.00
 3.9652     0.90
 3.9816     1.00
 3.9826     1.00
 4.0002     1.00
ENDDATA             62
ENDSUBENT           73
SUBENT        E1494008   20070909   20070911   20070909       E047
BIB                  4          6
REACTION  1(28-NI-58(P,INL),,WID)
          2(28-NI-58(P,G),,WID)
SAMPLE     - Target enrichment is 99.94%.
           - Target-thickness is 0.037 mg/cm**2.
ERR-ANALYS (DATA-ERR) No information on source of uncertainties
STATUS     (TABLE) Taken from text, p133 in reference
ENDBIB               6
NOCOMMON             0          0
DATA                 5          2
EN-RES     DATA      1DATA-ERR  1DATA      2DATA-ERR  2
MEV        EV         EV         EV         EV
 3.4733     1.41       0.20       0.13       0.02
 3.5446     9.58       1.20       1.08       0.16
ENDDATA              4
ENDSUBENT           15
SUBENT        E1494009   20070909   20070911   20070909       E047
BIB                  5          6
REACTION   (28-NI-60(P,EL)28-NI-60,,DA)
EN-SEC     ANG is polar angle between beam and proton in
           laboratory system
SAMPLE     Target enrichment is 98.83%.
STATUS     (CURVE) Scanned from Fig.3, p132 in reference
HISTORY    (20060228A) At. Re-digitized
ENDBIB               6
COMMON               1          3
ANG
ADEG
 160.
ENDCOMMON            3
DATA                 2       1919
EN         DATA
MEV        MB/SR
 2.944423    1.272E+02
 2.944616    1.218E+02
 2.945387    1.254E+02
 2.945965    1.272E+02
 2.946350    1.272E+02
 2.947120    1.308E+02
 2.947313    1.236E+02
 2.947699    1.200E+02
 2.948084    1.165E+02
 2.948470    1.165E+02
 2.948855    1.165E+02
 2.949433    1.129E+02
 2.949818    1.129E+02
 2.950396    1.129E+02
 2.951167    1.165E+02
 2.951937    1.200E+02
 2.952708    1.165E+02
 2.953286    1.165E+02
 2.953864    1.165E+02
 2.954442    1.165E+02
 2.955212    1.165E+02
 2.956175    1.165E+02
 2.956946    1.165E+02
 2.957717    1.165E+02
 2.958295    1.165E+02
 2.958680    1.111E+02
 2.959065    1.165E+02
 2.959643    1.165E+02
 2.960221    1.165E+02
 2.960607    1.129E+02
 2.961377    1.147E+02
 2.961955    1.165E+02
 2.962533    1.147E+02
 2.963111    1.165E+02
 2.963881    1.165E+02
 2.964845    1.147E+02
 2.965230    1.183E+02
 2.965808    1.165E+02
 2.966771    1.165E+02
 2.967349    1.165E+02
 2.968120    1.093E+02
 2.969083    1.093E+02
 2.969854    1.111E+02
 2.970239    1.165E+02
 2.971009    1.147E+02
 2.971780    1.147E+02
 2.972551    1.129E+02
 2.973321    1.129E+02
 2.973899    1.129E+02
 2.974670    1.165E+02
 2.975440    1.129E+02
 2.976211    1.111E+02
 2.976789    1.111E+02
 2.977367    1.111E+02
 2.977752    1.147E+02
 2.978330    1.111E+02
 2.978908    1.111E+02
 2.979679    1.111E+02
 2.980257    1.111E+02
 2.981027    1.111E+02
 2.981605    1.129E+02
 2.982183    1.057E+02
 2.982569    1.057E+02
 2.983146    1.075E+02
 2.983725    1.057E+02
 2.984302    1.057E+02
 2.984880    1.057E+02
 2.985458    1.039E+02
 2.986036    1.021E+02
 2.986615    1.004E+02
 2.987193    9.856E+01
 2.987963    9.498E+01
 2.988542    8.782E+01
 2.988735    8.066E+01
 2.989310    1.272E+02
 2.989505    9.319E+01
 2.990466    1.308E+02
 2.991622    1.236E+02
 2.992008    1.165E+02
 2.992393    1.093E+02
 2.993164    1.129E+02
 2.993935    1.093E+02
 2.994512    1.111E+02
 2.995091    1.075E+02
 2.995861    1.093E+02
 2.996632    1.075E+02
 2.997595    1.093E+02
 2.998366    1.075E+02
 2.999136    1.039E+02
 2.999714    1.057E+02
 3.000485    1.057E+02
 3.001063    1.021E+02
 3.001834    1.004E+02
 3.002412    9.677E+01
 3.003182    1.004E+02
 3.003760    9.677E+01
 3.004338    9.677E+01
 3.004916    9.677E+01
 3.005494    9.677E+01
 3.006265    9.677E+01
 3.007035    9.498E+01
 3.007613    1.021E+02
 3.007806    9.140E+01
 3.008384    8.782E+01
 3.008577    9.319E+01
 3.009155    8.782E+01
 3.009733    8.961E+01
 3.010503    8.782E+01
 3.011269    8.521E+01
 3.011852    8.782E+01
 3.012238    8.066E+01
 3.012816    7.171E+01
 3.013202    6.276E+01
 3.013203    5.023E+01
 3.013581    1.773E+02
 3.013769    1.281E+02
 3.014160    1.594E+02
 3.015070    1.273E+02
 3.015471    1.203E+02
 3.016072    1.173E+02
 3.016673    1.103E+02
 3.017373    1.105E+02
 3.018374    1.116E+02
 3.018875    1.077E+02
 3.019476    1.017E+02
 3.019776    1.038E+02
 3.020576    1.049E+02
 3.021277    1.050E+02
 3.021483    1.075E+02
 3.021777    1.081E+02
 3.022078    1.062E+02
 3.022639    1.057E+02
 3.022678    1.042E+02
 3.023479    1.033E+02
 3.023880    1.004E+02
 3.023988    9.856E+01
 3.024380    1.035E+02
 3.025144    1.057E+02
 3.025181    1.036E+02
 3.025581    1.037E+02
 3.026382    1.008E+02
 3.026878    1.004E+02
 3.026982    1.029E+02
 3.027583    9.895E+01
 3.028084    9.599E+01
 3.028283    1.021E+02
 3.028419    9.498E+01
 3.028611    1.039E+02
 3.028684    1.042E+02
 3.029384    1.033E+02
 3.029885    1.054E+02
 3.031115    1.093E+02
 3.031693    1.057E+02
 3.031694    9.677E+01
 3.031887    8.603E+01
 3.032657    9.856E+01
 3.033428    9.856E+01
 3.034198    9.856E+01
 3.034776    9.856E+01
 3.035740    9.677E+01
 3.036703    1.004E+02
 3.037280    1.057E+02
 3.037473    9.856E+01
 3.038093    8.850E+01
 3.038822    9.140E+01
 3.039374    1.218E+02
 3.039594    9.784E+01
 3.040353    1.218E+02
 3.041137    1.164E+02
 3.041920    1.164E+02
 3.042507    1.182E+02
 3.043000    1.196E+02
 3.043485    1.200E+02
 3.044267    1.200E+02
 3.045050    1.200E+02
 3.045833    1.200E+02
 3.046616    1.200E+02
 3.047400    1.164E+02
 3.048182    1.182E+02
 3.049161    1.164E+02
 3.049943    1.182E+02
 3.050726    1.164E+02
 3.051119    1.109E+02
 3.051704    1.182E+02
 3.052878    1.200E+02
 3.053271    1.145E+02
 3.054000    9.740E+01
 3.054436    1.418E+02
 3.054438    1.364E+02
 3.055000    1.284E+02
 3.056000    1.232E+02
 3.056206    1.164E+02
 3.057000    1.178E+02
 3.058000    1.190E+02
 3.058000    1.193E+02
 3.058000    1.184E+02
 3.059000    1.183E+02
 3.059000    1.182E+02
 3.060000    1.174E+02
 3.060000    1.186E+02
 3.060707    1.145E+02
 3.061097    1.200E+02
 3.062000    1.179E+02
 3.062000    1.170E+02
 3.063000    1.128E+02
 3.063000    1.151E+02
 3.064000    1.171E+02
 3.064231    1.091E+02
 3.065000    1.162E+02
 3.065000    1.157E+02
 3.066000    1.160E+02
 3.067000    1.183E+02
 3.067000    1.187E+02
 3.067000    1.187E+02
 3.067947    1.182E+02
 3.068534    1.182E+02
 3.069513    1.164E+02
 3.070297    1.127E+02
 3.071000    1.160E+02
 3.072000    1.155E+02
 3.073000    1.153E+02
 3.073000    1.153E+02
 3.074000    1.126E+02
 3.074798    1.109E+02
 3.076000    1.107E+02
 3.077000    1.105E+02
 3.078000    1.109E+02
 3.078000    1.128E+02
 3.078712    1.127E+02
 3.079496    1.091E+02
 3.080083    1.091E+02
 3.081000    1.100E+02
 3.081000    1.103E+02
 3.082000    1.107E+02
 3.082000    1.114E+02
 3.082000    1.122E+02
 3.083000    1.142E+02
 3.083000    1.137E+02
 3.083000    1.136E+02
 3.084000    1.148E+02
 3.084000    1.151E+02
 3.084778    1.145E+02
 3.085755    1.182E+02
 3.085956    1.018E+02
 3.086146    1.200E+02
 3.086736    1.091E+02
 3.087126    1.127E+02
 3.087911    1.055E+02
 3.088105    1.127E+02
 3.089280    1.109E+02
 3.089284    9.636E+01
 3.090000    1.069E+02
 3.090000    1.065E+02
 3.090263    9.636E+01
 3.090651    1.055E+02
 3.091000    1.289E+02
 3.091048    8.909E+01
 3.091622    1.309E+02
 3.091816    1.364E+02
 3.092404    1.309E+02
 3.092993    1.255E+02
 3.094000    1.227E+02
 3.094756    1.218E+02
 3.095538    1.218E+02
 3.096321    1.236E+02
 3.096906    1.273E+02
 3.097696    1.055E+02
 3.098091    9.455E+01
 3.098478    1.073E+02
 3.099456    1.109E+02
 3.100434    1.127E+02
 3.101413    1.109E+02
 3.102195    1.127E+02
 3.102979    1.073E+02
 3.103570    9.636E+01
 3.103954    1.200E+02
 3.104933    1.182E+02
 3.106000    1.145E+02
 3.107000    1.145E+02
 3.107000    1.140E+02
 3.108000    1.143E+02
 3.109000    1.121E+02
 3.110000    1.127E+02
 3.111000    1.141E+02
 3.111979    1.145E+02
 3.112958    1.127E+02
 3.113937    1.109E+02
 3.114326    1.182E+02
 3.114719    1.127E+02
 3.115697    1.145E+02
 3.116479    1.164E+02
 3.117460    1.091E+02
 3.118045    1.164E+02
 3.119022    1.200E+02
 3.119805    1.182E+02
 3.120395    1.109E+02
 3.121000    1.164E+02
 3.121000    1.163E+02
 3.121000    1.162E+02
 3.122000    1.165E+02
 3.123000    1.169E+02
 3.124000    1.139E+02
 3.125091    1.127E+02
 3.126000    1.102E+02
 3.127000    1.146E+02
 3.128000    1.147E+02
 3.129000    1.130E+02
 3.130000    1.154E+02
 3.130000    1.169E+02
 3.131000    1.164E+02
 3.131000    1.163E+02
 3.131941    1.091E+02
 3.132000    1.154E+02
 3.133000    1.139E+02
 3.133898    1.091E+02
 3.134876    1.109E+02
 3.135855    1.091E+02
 3.136440    1.164E+02
 3.137616    1.109E+02
 3.139000    1.098E+02
 3.140000    1.093E+02
 3.141000    8.946E+01
 3.141335    1.091E+02
 3.143000    9.515E+01
 3.143686    9.818E+01
 3.144669    8.545E+01
 3.145255    8.909E+01
 3.146025    1.291E+02
 3.147002    1.327E+02
 3.147005    1.236E+02
 3.148000    1.202E+02
 3.149000    1.168E+02
 3.149000    1.163E+02
 3.149944    1.109E+02
 3.151000    1.133E+02
 3.151000    1.124E+02
 3.151704    1.164E+02
 3.152098    1.091E+02
 3.152879    1.127E+02
 3.153663    1.109E+02
 3.154253    1.018E+02
 3.154641    1.109E+02
 3.155424    1.091E+02
 3.156207    1.091E+02
 3.156990    1.091E+02
 3.157773    1.073E+02
 3.157971    1.000E+02
 3.158752    1.073E+02
 3.159534    1.091E+02
 3.160512    1.091E+02
 3.161100    1.073E+02
 3.161689    1.000E+02
 3.162079    1.055E+02
 3.163000    1.077E+02
 3.164000    1.087E+02
 3.165000    1.077E+02
 3.166000    1.068E+02
 3.167000    1.062E+02
 3.167756    1.000E+02
 3.168344    9.636E+01
 3.168931    9.818E+01
 3.169909    1.000E+02
 3.170000    9.787E+01
 3.170694    9.091E+01
 3.170894    7.818E+01
 3.171097    5.636E+01
 3.171872    8.000E+01
 3.172252    1.164E+02
 3.173034    1.182E+02
 3.173817    1.164E+02
 3.174797    1.109E+02
 3.175579    1.164E+02
 3.176000    1.080E+02
 3.177000    1.136E+02
 3.178000    1.127E+02
 3.179000    1.113E+02
 3.180000    1.082E+02
 3.180000    1.102E+02
 3.180864    1.109E+02
 3.181647    1.091E+02
 3.182429    1.109E+02
 3.183212    1.109E+02
 3.184386    1.127E+02
 3.185365    1.109E+02
 3.186343    1.109E+02
 3.187322    1.109E+02
 3.188105    1.091E+02
 3.188887    1.109E+02
 3.189670    1.127E+02
 3.190453    1.109E+02
 3.191237    1.055E+02
 3.192022    9.818E+01
 3.192612    8.909E+01
 3.192791    1.418E+02
 3.193007    8.000E+01
 3.194361    1.291E+02
 3.194364    1.200E+02
 3.195341    1.255E+02
 3.196321    1.182E+02
 3.196907    1.218E+02
 3.197302    1.109E+02
 3.198086    1.091E+02
 3.198868    1.091E+02
 3.199455    1.091E+02
 3.201021    1.073E+02
 3.201411    1.127E+02
 3.201615    8.727E+01
 3.202193    1.164E+02
 3.202781    1.127E+02
 3.203761    1.073E+02
 3.204546    1.018E+02
 3.204739    1.091E+02
 3.205718    1.091E+02
 3.206697    1.073E+02
 3.206698    1.018E+02
 3.207871    1.055E+02
 3.208849    1.073E+02
 3.209243    9.818E+01
 3.209829    1.036E+02
 3.210613    1.000E+02
 3.211400    8.545E+01
 3.211989    8.000E+01
 3.212000    1.408E+02
 3.212378    8.727E+01
 3.213731    1.418E+02
 3.214123    1.382E+02
 3.214713    1.291E+02
 3.215889    1.236E+02
 3.216086    1.182E+02
 3.216871    1.109E+02
 3.217456    1.200E+02
 3.219024    1.109E+02
 3.220001    1.164E+02
 3.220202    1.000E+02
 3.221000    1.112E+02
 3.221766    1.055E+02
 3.222544    1.182E+02
 3.223329    1.109E+02
 3.225091    1.091E+02
 3.226069    1.109E+02
 3.227047    1.109E+02
 3.228026    1.109E+02
 3.229004    1.109E+02
 3.229982    1.127E+02
 3.230963    1.073E+02
 3.231745    1.091E+02
 3.232528    1.073E+02
 3.233703    1.055E+02
 3.234485    1.073E+02
 3.236000    1.031E+02
 3.236640    9.818E+01
 3.237230    9.091E+01
 3.237820    8.182E+01
 3.238201    1.145E+02
 3.238389    1.400E+02
 3.238391    1.309E+02
 3.238981    1.218E+02
 3.239570    1.164E+02
 3.240159    1.109E+02
 3.240196    1.196E+02
 3.240783    1.176E+02
 3.241761    1.157E+02
 3.242544    1.157E+02
 3.243131    1.157E+02
 3.243523    1.196E+02
 3.244305    1.157E+02
 3.244892    1.098E+02
 3.245479    1.118E+02
 3.246458    1.137E+02
 3.246849    1.059E+02
 3.247632    1.039E+02
 3.247632    1.294E+02
 3.248415    1.353E+02
 3.248415    1.216E+02
 3.249002    1.294E+02
 3.249589    1.196E+02
 3.250372    1.216E+02
 3.250959    1.176E+02
 3.251742    1.235E+02
 3.251937    1.137E+02
 3.252524    1.137E+02
 3.253112    1.176E+02
 3.253307    1.235E+02
 3.254090    1.235E+02
 3.254677    1.176E+02
 3.255068    1.118E+02
 3.255460    1.157E+02
 3.256047    1.098E+02
 3.256634    1.039E+02
 3.257221    1.255E+02
 3.257613    1.196E+02
 3.258200    1.255E+02
 3.258591    1.196E+02
 3.259178    1.137E+02
 3.259961    1.196E+02
 3.260744    1.196E+02
 3.261526    1.216E+02
 3.261918    1.176E+02
 3.262505    1.196E+02
 3.263092    1.176E+02
 3.263679    1.196E+02
 3.264266    1.216E+02
 3.265049    1.235E+02
 3.265440    1.294E+02
 3.266027    1.235E+02
 3.266614    1.118E+02
 3.267006    1.078E+02
 3.267593    1.020E+02
 3.268180    1.157E+02
 3.268767    1.098E+02
 3.269159    1.137E+02
 3.269746    1.235E+02
 3.269941    1.137E+02
 3.270333    1.176E+02
 3.270724    1.059E+02
 3.271507    1.098E+02
 3.272290    1.157E+02
 3.272681    1.255E+02
 3.273268    1.176E+02
 3.273855    1.235E+02
 3.274638    1.275E+02
 3.275029    1.059E+02
 3.275616    1.137E+02
 3.276399    1.118E+02
 3.277182    1.137E+02
 3.277769    1.157E+02
 3.278552    1.176E+02
 3.279139    1.176E+02
 3.279726    1.235E+02
 3.279922    1.157E+02
 3.280313    1.235E+02
 3.281292    1.118E+02
 3.281683    1.137E+02
 3.282270    1.137E+02
 3.283053    1.157E+02
 3.283444    1.078E+02
 3.284031    1.059E+02
 3.284618    1.118E+02
 3.285597    1.157E+02
 3.285793    1.078E+02
 3.286575    1.137E+02
 3.287750    1.137E+02
 3.288337    1.137E+02
 3.288924    1.137E+02
 3.289902    1.157E+02
 3.290294    1.078E+02
 3.290881    1.157E+02
 3.291272    1.196E+02
 3.291859    1.118E+02
 3.292838    1.137E+02
 3.293620    1.137E+02
 3.294207    1.176E+02
 3.294795    1.216E+02
 3.295382    1.137E+02
 3.296360    1.118E+02
 3.297143    1.118E+02
 3.297730    1.137E+02
 3.298513    1.118E+02
 3.299491    1.118E+02
 3.300274    1.098E+02
 3.301252    1.098E+02
 3.302035    1.078E+02
 3.302818    1.098E+02
 3.303405    1.020E+02
 3.303992    1.078E+02
 3.304579    1.000E+02
 3.304971    1.078E+02
 3.305753    1.078E+02
 3.306341    1.020E+02
 3.306928    9.412E+01
 3.307710    9.804E+01
 3.308297    9.412E+01
 3.308689    8.039E+01
 3.309080    7.059E+01
 3.309667    1.078E+02
 3.310059    1.569E+02
 3.310450    1.510E+02
 3.311037    1.392E+02
 3.311429    1.353E+02
 3.312016    1.314E+02
 3.312603    1.275E+02
 3.312994    1.275E+02
 3.312994    1.176E+02
 3.313777    1.235E+02
 3.314364    1.235E+02
 3.314755    1.157E+02
 3.315147    1.235E+02
 3.315538    1.235E+02
 3.317691    1.176E+02
 3.318278    1.157E+02
 3.319061    1.176E+02
 3.320235    1.255E+02
 3.320431    1.176E+02
 3.321018    1.059E+02
 3.321800    1.078E+02
 3.322583    1.098E+02
 3.323562    1.098E+02
 3.324149    1.059E+02
 3.324932    1.059E+02
 3.325323    1.118E+02
 3.326106    1.118E+02
 3.326888    1.098E+02
 3.327476    1.059E+02
 3.328063    9.804E+01
 3.328063    1.098E+02
 3.328650    1.137E+02
 3.328650    1.235E+02
 3.329237    1.255E+02
 3.329824    1.196E+02
 3.330411    1.157E+02
 3.330998    1.098E+02
 3.331389    1.157E+02
 3.332172    1.157E+02
 3.332759    1.137E+02
 3.333738    1.098E+02
 3.334325    1.078E+02
 3.335108    1.059E+02
 3.335890    1.039E+02
 3.336673    9.804E+01
 3.337065    9.020E+01
 3.337652    9.804E+01
 3.338239    9.216E+01
 3.338826    7.843E+01
 3.339217    8.431E+01
 3.339804    1.412E+02
 3.340391    1.255E+02
 3.340587    1.333E+02
 3.340978    1.176E+02
 3.341761    1.118E+02
 3.341957    1.196E+02
 3.342544    1.059E+02
 3.343131    1.098E+02
 3.343914    1.059E+02
 3.344501    1.098E+02
 3.344892    1.059E+02
 3.345479    1.039E+02
 3.346067    1.078E+02
 3.346458    1.020E+02
 3.347241    1.059E+02
 3.347436    9.608E+01
 3.348023    1.020E+02
 3.348806    9.608E+01
 3.349589    8.235E+01
 3.349980    1.039E+02
 3.350959    9.608E+01
 3.351742    1.039E+02
 3.351742    9.804E+01
 3.352524    9.804E+01
 3.352720    1.020E+02
 3.353307    9.412E+01
 3.354090    9.020E+01
 3.355068    9.216E+01
 3.355068    1.039E+02
 3.355851    1.000E+02
 3.356438    1.059E+02
 3.357221    1.059E+02
 3.358004    1.020E+02
 3.358787    1.039E+02
 3.359569    1.020E+02
 3.360157    1.000E+02
 3.360939    1.000E+02
 3.361331    9.804E+01
 3.361918    1.000E+02
 3.362701    1.020E+02
 3.363288    1.000E+02
 3.364070    1.000E+02
 3.364853    9.804E+01
 3.365832    9.804E+01
 3.366810    9.804E+01
 3.367397    8.824E+01
 3.367984    9.216E+01
 3.368571    9.216E+01
 3.368963    9.412E+01
 3.369354    9.216E+01
 3.369941    9.216E+01
 3.370528    8.235E+01
 3.371311    7.255E+01
 3.371703    8.627E+01
 3.372290    8.431E+01
 3.372877    8.039E+01
 3.373659    8.039E+01
 3.374247    6.078E+01
 3.374638    6.863E+01
 3.375225    1.275E+02
 3.376791    1.255E+02
 3.377182    1.196E+02
 3.377378    1.157E+02
 3.378160    1.157E+02
 3.378943    1.176E+02
 3.379726    1.235E+02
 3.380509    1.255E+02
 3.381096    1.196E+02
 3.381096    1.118E+02
 3.381292    1.020E+02
 3.382074    1.039E+02
 3.382857    1.020E+02
 3.383444    9.804E+01
 3.384227    1.078E+02
 3.384814    1.059E+02
 3.385597    1.020E+02
 3.386184    1.020E+02
 3.386967    1.020E+02
 3.387750    1.039E+02
 3.388337    1.000E+02
 3.388924    1.039E+02
 3.389902    1.039E+02
 3.390685    1.020E+02
 3.391663    9.804E+01
 3.392055    9.412E+01
 3.392250    8.627E+01
 3.392642    1.059E+02
 3.393425    1.039E+02
 3.394012    9.804E+01
 3.394599    1.020E+02
 3.395382    1.000E+02
 3.396164    1.020E+02
 3.396947    9.608E+01
 3.397730    9.608E+01
 3.398513    9.804E+01
 3.399100    7.647E+01
 3.399100    8.824E+01
 3.399491    1.039E+02
 3.399883    9.216E+01
 3.400274    1.059E+02
 3.400861    1.039E+02
 3.401644    1.000E+02
 3.402427    9.804E+01
 3.403014    9.412E+01
 3.403405    1.000E+02
 3.403992    1.020E+02
 3.404775    9.608E+01
 3.405362    1.000E+02
 3.405949    1.020E+02
 3.406536    9.804E+01
 3.407123    1.020E+02
 3.407710    1.059E+02
 3.408102    1.118E+02
 3.408689    1.275E+02
 3.409080    9.216E+01
 3.409863    9.216E+01
 3.410646    9.608E+01
 3.411233    9.412E+01
 3.412016    9.216E+01
 3.412798    9.412E+01
 3.413581    9.608E+01
 3.414168    1.157E+02
 3.414755    1.000E+02
 3.414951    8.431E+01
 3.415930    9.020E+01
 3.415930    8.235E+01
 3.416712    9.020E+01
 3.417299    8.235E+01
 3.417691    9.216E+01
 3.418474    9.216E+01
 3.418865    9.608E+01
 3.419452    9.216E+01
 3.419843    1.039E+02
 3.420235    1.255E+02
 3.420822    1.157E+02
 3.420822    7.843E+01
 3.421409    7.255E+01
 3.421996    8.039E+01
 3.422583    7.059E+01
 3.423170    7.647E+01
 3.423757    9.020E+01
 3.424540    7.843E+01
 3.424736    8.431E+01
 3.425323    7.451E+01
 3.425714    6.863E+01
 3.426106    1.020E+02
 3.426301    8.824E+01
 3.426693    1.098E+02
 3.426888    7.843E+01
 3.427476    6.863E+01
 3.427671    9.608E+01
 3.428063    1.275E+02
 3.428063    1.333E+02
 3.428845    1.392E+02
 3.429041    1.294E+02
 3.429432    1.137E+02
 3.429824    1.059E+02
 3.430215    9.804E+01
 3.430802    1.137E+02
 3.431194    1.078E+02
 3.431781    1.078E+02
 3.432368    1.078E+02
 3.432368    1.039E+02
 3.432368    9.804E+01
 3.433151    1.020E+02
 3.433542    1.078E+02
 3.433933    9.608E+01
 3.434129    1.039E+02
 3.434521    1.020E+02
 3.434912    9.412E+01
 3.435303    1.000E+02
 3.435695    1.039E+02
 3.436282    1.039E+02
 3.436869    9.608E+01
 3.437065    1.020E+02
 3.437847    9.804E+01
 3.438434    9.608E+01
 3.439022    1.000E+02
 3.439578    8.983E+01
 3.439609    1.039E+02
 3.440362    8.814E+01
 3.440560    8.136E+01
 3.441145    8.814E+01
 3.441147    8.305E+01
 3.441734    8.644E+01
 3.442125    8.644E+01
 3.442713    8.644E+01
 3.443301    8.644E+01
 3.443888    8.644E+01
 3.444280    8.644E+01
 3.444868    8.475E+01
 3.445261    8.136E+01
 3.445651    8.644E+01
 3.446238    8.814E+01
 3.446632    8.305E+01
 3.447025    7.797E+01
 3.447418    7.627E+01
 3.447806    8.644E+01
 3.448590    8.475E+01
 3.448982    8.305E+01
 3.449767    8.136E+01
 3.450353    8.475E+01
 3.451530    8.136E+01
 3.452313    8.136E+01
 3.452704    8.305E+01
 3.453684    8.305E+01
 3.454467    8.305E+01
 3.455055    8.305E+01
 3.455840    7.966E+01
 3.456428    7.627E+01
 3.456628    6.610E+01
 3.457206    9.322E+01
 3.457990    9.322E+01
 3.458776    8.475E+01
 3.459364    8.475E+01
 3.459951    8.475E+01
 3.461127    8.475E+01
 3.461911    8.305E+01
 3.462696    7.966E+01
 3.463479    8.136E+01
 3.464459    7.966E+01
 3.465243    7.797E+01
 3.466222    7.797E+01
 3.466612    8.305E+01
 3.467400    7.119E+01
 3.467986    7.458E+01
 3.468573    7.627E+01
 3.469161    7.458E+01
 3.469750    7.119E+01
 3.469945    7.458E+01
 3.470337    7.458E+01
 3.470926    7.119E+01
 3.471514    6.780E+01
 3.472299    6.441E+01
 3.473083    6.441E+01
 3.473670    6.441E+01
 3.474259    6.102E+01
 3.474851    4.746E+01
 3.475241    5.424E+01
 3.475629    6.441E+01
 3.476400    1.017E+02
 3.476594    1.085E+02
 3.477378    1.051E+02
 3.477967    1.034E+02
 3.478359    1.000E+02
 3.479147    8.814E+01
 3.479345    8.136E+01
 3.479739    7.627E+01
 3.479928    9.661E+01
 3.480514    1.000E+02
 3.481298    9.831E+01
 3.482086    8.475E+01
 3.482870    8.475E+01
 3.483653    8.644E+01
 3.484438    8.305E+01
 3.485024    8.644E+01
 3.486004    8.644E+01
 3.486787    8.644E+01
 3.487572    8.305E+01
 3.488749    7.797E+01
 3.489532    7.797E+01
 3.490316    7.797E+01
 3.491295    7.797E+01
 3.492079    7.627E+01
 3.492273    8.305E+01
 3.492860    8.475E+01
 3.494035    8.644E+01
 3.494235    7.458E+01
 3.494821    7.797E+01
 3.495411    7.288E+01
 3.496194    7.458E+01
 3.496780    7.797E+01
 3.497369    7.458E+01
 3.497956    7.627E+01
 3.498544    7.627E+01
 3.499328    7.288E+01
 3.500112    7.119E+01
 3.500700    7.288E+01
 3.501090    7.627E+01
 3.501874    7.458E+01
 3.502854    7.458E+01
 3.503440    7.797E+01
 3.504223    8.136E+01
 3.504421    7.458E+01
 3.504613    8.475E+01
 3.505204    7.627E+01
 3.505601    6.102E+01
 3.506187    6.441E+01
 3.506971    6.441E+01
 3.507559    6.102E+01
 3.507953    5.593E+01
 3.508534    7.458E+01
 3.509122    7.458E+01
 3.509710    7.458E+01
 3.509907    6.949E+01
 3.510691    6.780E+01
 3.511277    7.458E+01
 3.511671    6.610E+01
 3.512260    6.441E+01
 3.513042    6.780E+01
 3.513427    8.644E+01
 3.514023    6.271E+01
 3.514795    9.661E+01
 3.515203    4.915E+01
 3.515383    9.492E+01
 3.516761    7.627E+01
 3.517544    7.797E+01
 3.518329    7.458E+01
 3.519112    7.458E+01
 3.519895    7.627E+01
 3.519897    7.119E+01
 3.520483    7.458E+01
 3.521267    7.458E+01
 3.521464    6.949E+01
 3.521855    7.288E+01
 3.522443    7.119E+01
 3.522839    6.102E+01
 3.523620    6.610E+01
 3.524209    6.271E+01
 3.524407    5.593E+01
 3.524982    9.322E+01
 3.525379    7.966E+01
 3.526358    7.966E+01
 3.526755    6.441E+01
 3.527342    6.610E+01
 3.528126    6.441E+01
 3.529105    6.610E+01
 3.529499    6.102E+01
 3.530283    5.932E+01
 3.531063    6.780E+01
 3.531847    6.610E+01
 3.532435    6.610E+01
 3.533414    6.780E+01
 3.533806    6.610E+01
 3.534198    6.610E+01
 3.534785    6.780E+01
 3.535375    6.271E+01
 3.536158    6.271E+01
 3.536745    6.441E+01
 3.537332    6.780E+01
 3.538510    5.932E+01
 3.539098    5.763E+01
 3.544974    5.932E+01
 3.545167    6.780E+01
 3.545756    6.271E+01
 3.545759    5.424E+01
 3.546539    6.441E+01
 3.546743    4.237E+01
 3.546941    3.559E+01
 3.547723    4.068E+01
 3.548313    3.390E+01
 3.548702    4.068E+01
 3.548895    5.085E+01
 3.549286    5.085E+01
 3.550269    4.237E+01
 3.550466    3.729E+01
 3.551053    3.898E+01
 3.551643    3.220E+01
 3.552624    2.881E+01
 3.553405    3.559E+01
 3.553988    4.915E+01
 3.554178    6.610E+01
 3.554370    7.966E+01
 3.554555    1.119E+02
 3.555132    1.407E+02
 3.555717    1.508E+02
 3.556115    1.305E+02
 3.556119    1.186E+02
 3.556126    9.831E+01
 3.556528    6.949E+01
 3.556532    5.593E+01
 3.557106    9.831E+01
 3.557681    1.339E+02
 3.557685    1.220E+02
 3.558657    1.441E+02
 3.558858    1.305E+02
 3.559443    1.373E+02
 3.560624    1.220E+02
 3.561208    1.322E+02
 3.561211    1.220E+02
 3.561803    1.102E+02
 3.562196    1.068E+02
 3.562588    1.068E+02
 3.563372    1.051E+02
 3.563572    9.322E+01
 3.564355    9.322E+01
 3.564945    8.644E+01
 3.565340    7.797E+01
 3.565927    7.797E+01
 3.566712    7.458E+01
 3.567296    8.475E+01
 3.567688    8.475E+01
 3.568474    7.797E+01
 3.568866    7.797E+01
 3.569456    7.119E+01
 3.569849    6.610E+01
 3.570243    5.932E+01
 3.570622    9.831E+01
 3.570623    9.322E+01
 3.570627    8.136E+01
 3.571209    1.000E+02
 3.571408    8.983E+01
 3.571999    7.966E+01
 3.572588    7.627E+01
 3.572977    8.475E+01
 3.573566    8.136E+01
 3.574155    7.797E+01
 3.574157    7.119E+01
 3.574939    7.458E+01
 3.576117    6.780E+01
 3.576901    6.610E+01
 3.577489    6.441E+01
 3.578078    6.102E+01
 3.579255    5.593E+01
 3.579844    5.254E+01
 3.580041    4.915E+01
 3.580824    5.085E+01
 3.580826    4.576E+01
 3.581611    4.068E+01
 3.582200    3.559E+01
 3.582394    4.068E+01
 3.583172    5.763E+01
 3.583552    9.153E+01
 3.583733    1.373E+02
 3.584131    1.186E+02
 3.584524    1.153E+02
 3.585506    1.068E+02
 3.586093    1.085E+02
 3.586095    1.017E+02
 3.586486    1.051E+02
 3.587077    9.661E+01
 3.587469    9.492E+01
 3.588057    9.492E+01
 3.588450    9.153E+01
 3.589039    8.644E+01
 3.589628    8.136E+01
 3.590411    8.305E+01
 3.590607    8.475E+01
 3.591195    8.136E+01
 3.591392    7.797E+01
 3.592176    7.797E+01
 3.592764    7.627E+01
 3.593158    7.119E+01
 3.593746    6.949E+01
 3.593943    6.441E+01
 3.594141    6.102E+01
 3.594534    5.593E+01
 3.595123    5.254E+01
 3.595125    4.576E+01
 3.595909    4.407E+01
 3.596098    6.441E+01
 3.596275    1.203E+02
 3.596476    1.068E+02
 3.596862    1.220E+02
 3.597255    1.186E+02
 3.597649    1.136E+02
 3.598042    1.085E+02
 3.598435    1.051E+02
 3.598829    1.000E+02
 3.599221    9.661E+01
 3.599614    9.322E+01
 3.600203    8.983E+01
 3.600597    8.475E+01
 3.601579    7.627E+01
 3.602366    6.610E+01
 3.602565    5.763E+01
 3.603150    6.610E+01
 3.603334    9.831E+01
 3.603720    1.153E+02
 3.604310    1.085E+02
 3.604704    1.017E+02
 3.605094    1.085E+02
 3.605487    1.034E+02
 3.605878    1.085E+02
 3.606271    1.034E+02
 3.606274    9.492E+01
 3.606469    9.831E+01
 3.607057    9.492E+01
 3.607645    9.492E+01
 3.608233    9.492E+01
 3.609016    9.492E+01
 3.609800    9.492E+01
 3.610193    9.153E+01
 3.610194    8.644E+01
 3.610782    8.814E+01
 3.611172    9.322E+01
 3.611371    8.305E+01
 3.611565    8.814E+01
 3.611958    8.475E+01
 3.612545    8.644E+01
 3.612936    8.983E+01
 3.613329    8.644E+01
 3.613917    8.475E+01
 3.614704    7.458E+01
 3.615091    8.814E+01
 3.615480    9.492E+01
 3.616074    7.627E+01
 3.616857    7.966E+01
 3.617443    8.475E+01
 3.617636    9.322E+01
 3.617836    7.966E+01
 3.618425    7.627E+01
 3.619011    8.136E+01
 3.619792    8.814E+01
 3.620190    7.119E+01
 3.620584    6.441E+01
 3.621174    5.763E+01
 3.621361    8.305E+01
 3.621948    8.644E+01
 3.622731    8.644E+01
 3.623515    8.644E+01
 3.624108    6.949E+01
 3.624500    6.949E+01
 3.624699    6.102E+01
 3.624889    7.797E+01
 3.625475    8.136E+01
 3.625868    7.966E+01
 3.626455    7.966E+01
 3.627043    7.966E+01
 3.628019    8.814E+01
 3.628803    8.814E+01
 3.629201    6.949E+01
 3.629395    7.458E+01
 3.629983    7.288E+01
 3.629986    6.610E+01
 3.630374    7.627E+01
 3.630767    7.288E+01
 3.631353    7.627E+01
 3.631940    7.966E+01
 3.632527    8.136E+01
 3.632919    7.966E+01
 3.633122    6.102E+01
 3.633313    7.458E+01
 3.633509    7.288E+01
 3.634293    7.288E+01
 3.634685    7.288E+01
 3.635272    7.288E+01
 3.635860    7.288E+01
 3.636644    7.119E+01
 3.637233    6.780E+01
 3.637821    6.780E+01
 3.638596    9.153E+01
 3.639380    8.983E+01
 3.639965    9.831E+01
 3.639977    7.547E+01
 3.640954    7.736E+01
 3.641930    8.113E+01
 3.642519    7.358E+01
 3.642909    7.736E+01
 3.644274    9.057E+01
 3.645058    8.113E+01
 3.645644    8.491E+01
 3.646426    8.491E+01
 3.647012    8.491E+01
 3.647599    8.491E+01
 3.648381    8.491E+01
 3.649162    8.679E+01
 3.649945    8.491E+01
 3.650531    8.679E+01
 3.651117    8.868E+01
 3.651899    8.679E+01
 3.652681    8.679E+01
 3.653070    9.434E+01
 3.653663    7.170E+01
 3.654050    8.679E+01
 3.654633    9.623E+01
 3.654832    8.679E+01
 3.655614    8.679E+01
 3.656201    8.491E+01
 3.656591    8.868E+01
 3.657178    8.491E+01
 3.657961    8.302E+01
 3.658743    8.302E+01
 3.659328    8.679E+01
 3.659915    8.491E+01
 3.660502    8.302E+01
 3.661284    8.302E+01
 3.661870    8.491E+01
 3.662263    8.113E+01
 3.662652    8.491E+01
 3.662655    7.547E+01
 3.663239    8.491E+01
 3.664021    8.302E+01
 3.664803    8.302E+01
 3.665586    8.302E+01
 3.666368    8.302E+01
 3.667150    8.113E+01
 3.667738    7.736E+01
 3.668323    8.302E+01
 3.668712    8.679E+01
 3.669496    8.302E+01
 3.669686    9.811E+01
 3.670278    8.302E+01
 3.670671    7.547E+01
 3.671059    8.491E+01
 3.671065    6.604E+01
 3.671842    8.302E+01
 3.672231    8.868E+01
 3.672428    8.302E+01
 3.672620    9.434E+01
 3.672814    1.000E+02
 3.673005    1.132E+02
 3.673410    6.792E+01
 3.673413    5.849E+01
 3.673590    1.189E+02
 3.674581    7.547E+01
 3.674779    6.604E+01
 3.675370    5.094E+01
 3.676341    7.358E+01
 3.676929    6.981E+01
 3.677711    6.792E+01
 3.678493    6.792E+01
 3.679079    6.981E+01
 3.679861    7.170E+01
 3.680058    6.604E+01
 3.680840    6.604E+01
 3.681429    5.660E+01
 3.682017    5.094E+01
 3.682604    5.094E+01
 3.682781    1.113E+02
 3.682797    5.849E+01
 3.683561    1.170E+02
 3.683761    1.019E+02
 3.684155    9.434E+01
 3.684743    8.868E+01
 3.685528    7.736E+01
 3.686116    7.358E+01
 3.686704    6.792E+01
 3.686903    5.660E+01
 3.687286    8.302E+01
 3.688263    8.491E+01
 3.688852    7.736E+01
 3.689831    7.170E+01
 3.690418    7.170E+01
 3.691200    6.981E+01
 3.691787    6.981E+01
 3.692569    6.981E+01
 3.693157    6.415E+01
 3.693742    6.792E+01
 3.694329    6.792E+01
 3.694915    6.792E+01
 3.695502    6.792E+01
 3.696284    6.604E+01
 3.696873    5.849E+01
 3.697655    5.849E+01
 3.698437    6.038E+01
 3.699023    6.226E+01
 3.699215    7.358E+01
 3.699406    8.679E+01
 3.699806    5.849E+01
 3.699809    4.906E+01
 3.700008    3.774E+01
 3.700985    3.774E+01
 3.701373    4.906E+01
 3.701565    6.038E+01
 3.701756    7.358E+01
 3.701939    1.151E+02
 3.701946    9.245E+01
 3.702320    1.472E+02
 3.702906    1.491E+02
 3.703103    1.434E+02
 3.703304    1.264E+02
 3.703697    1.189E+02
 3.704091    1.113E+02
 3.704289    1.038E+02
 3.704682    9.623E+01
 3.705466    8.868E+01
 3.705858    8.491E+01
 3.706251    7.925E+01
 3.706644    7.170E+01
 3.707042    4.906E+01
 3.707233    6.604E+01
 3.707414    1.113E+02
 3.707606    1.226E+02
 3.708782    1.132E+02
 3.708794    7.358E+01
 3.708981    1.038E+02
 3.710155    9.811E+01
 3.710938    9.434E+01
 3.711131    1.038E+02
 3.711916    9.434E+01
 3.711920    8.113E+01
 3.712896    8.491E+01
 3.713483    8.491E+01
 3.714265    8.491E+01
 3.714851    8.491E+01
 3.715438    8.491E+01
 3.716225    6.792E+01
 3.716617    6.415E+01
 3.717197    8.491E+01
 3.717591    7.736E+01
 3.718176    8.113E+01
 3.720524    7.547E+01
 3.721501    7.736E+01
 3.722283    7.547E+01
 3.722286    6.604E+01
 3.723065    7.736E+01
 3.723848    7.170E+01
 3.724632    6.792E+01
 3.725412    7.170E+01
 3.726392    6.415E+01
 3.727370    6.226E+01
 3.727959    5.660E+01
 3.728741    5.472E+01
 3.729331    4.528E+01
 3.729333    3.585E+01
 3.729916    4.717E+01
 3.730493    8.113E+01
 3.731081    7.547E+01
 3.731669    6.981E+01
 3.732257    6.604E+01
 3.733040    6.226E+01
 3.733824    5.472E+01
 3.734014    7.358E+01
 3.734212    6.415E+01
 3.734801    5.849E+01
 3.735193    5.283E+01
 3.735782    4.528E+01
 3.736565    4.340E+01
 3.737346    4.528E+01
 3.737739    3.962E+01
 3.737741    3.208E+01
 3.738135    2.264E+01
 3.738528    1.509E+01
 3.738918    2.075E+01
 3.739111    2.830E+01
 3.739304    3.585E+01
 3.739497    4.340E+01
 3.739886    4.906E+01
 3.740075    7.358E+01
 3.741053    7.170E+01
 3.741445    6.604E+01
 3.741839    5.849E+01
 3.742427    5.283E+01
 3.743007    7.358E+01
 3.743191    1.113E+02
 3.743377    1.434E+02
 3.743959    1.566E+02
 3.744549    1.472E+02
 3.744944    1.321E+02
 3.745340    1.170E+02
 3.746128    9.623E+01
 3.746523    8.302E+01
 3.746722    7.358E+01
 3.747114    6.981E+01
 3.747511    4.906E+01
 3.747709    4.151E+01
 3.748089    7.736E+01
 3.748676    7.547E+01
 3.748880    4.906E+01
 3.749465    5.283E+01
 3.749842    1.000E+02
 3.749846    8.491E+01
 3.750231    1.057E+02
 3.750620    1.132E+02
 3.750817    1.057E+02
 3.751402    1.113E+02
 3.751404    1.057E+02
 3.752185    1.094E+02
 3.752188    1.000E+02
 3.752968    1.038E+02
 3.752971    9.434E+01
 3.753170    8.491E+01
 3.753953    7.925E+01
 3.754151    7.358E+01
 3.754544    6.604E+01
 3.755520    6.981E+01
 3.756095    1.094E+02
 3.757263    1.264E+02
 3.757853    1.151E+02
 3.758445    9.623E+01
 3.758647    7.358E+01
 3.759044    5.472E+01
 3.759434    5.849E+01
 3.760591    1.113E+02
 3.761370    1.189E+02
 3.761373    1.113E+02
 3.762152    1.189E+02
 3.763329    1.057E+02
 3.763723    9.623E+01
 3.764112    1.038E+02
 3.764310    9.434E+01
 3.764707    7.736E+01
 3.765293    7.736E+01
 3.765487    8.302E+01
 3.765873    1.000E+02
 3.766065    1.094E+02
 3.766455    1.132E+02
 3.766849    1.057E+02
 3.766851    9.811E+01
 3.767049    8.868E+01
 3.767051    8.113E+01
 3.767835    7.736E+01
 3.768224    8.302E+01
 3.768810    8.491E+01
 3.769592    8.302E+01
 3.770180    8.113E+01
 3.770765    8.302E+01
 3.771352    8.302E+01
 3.772135    8.113E+01
 3.772917    7.925E+01
 3.773504    7.736E+01
 3.773897    7.170E+01
 3.774286    7.736E+01
 3.774873    7.547E+01
 3.775656    7.358E+01
 3.776048    6.981E+01
 3.776441    6.415E+01
 3.777419    6.226E+01
 3.778199    6.792E+01
 3.778203    5.660E+01
 3.778768    1.264E+02
 3.778771    1.170E+02
 3.778777    9.623E+01
 3.778960    1.358E+02
 3.779549    1.283E+02
 3.780730    1.019E+02
 3.780732    9.623E+01
 3.781316    1.038E+02
 3.782102    9.057E+01
 3.782885    8.868E+01
 3.783472    8.491E+01
 3.784254    8.491E+01
 3.785038    8.113E+01
 3.785821    7.547E+01
 3.786410    6.981E+01
 3.787190    7.358E+01
 3.787389    6.415E+01
 3.787976    6.038E+01
 3.788369    5.660E+01
 3.788561    6.604E+01
 3.789325    1.264E+02
 3.789718    1.189E+02
 3.790494    1.377E+02
 3.791083    1.321E+02
 3.791087    1.170E+02
 3.791873    1.057E+02
 3.792654    1.075E+02
 3.793632    1.057E+02
 3.794220    1.019E+02
 3.794808    9.811E+01
 3.795394    9.811E+01
 3.795979    1.019E+02
 3.796372    9.811E+01
 3.796959    9.623E+01
 3.797349    9.811E+01
 3.797936    9.623E+01
 3.798524    9.057E+01
 3.799112    8.679E+01
 3.799699    8.491E+01
 3.800287    7.925E+01
 3.800680    7.358E+01
 3.801267    7.170E+01
 3.801455    9.623E+01
 3.801648    1.057E+02
 3.801653    8.868E+01
 3.801841    1.132E+02
 3.802231    1.170E+02
 3.802621    1.208E+02
 3.803006    1.396E+02
 3.803007    1.358E+02
 3.803593    1.377E+02
 3.803795    1.151E+02
 3.803993    1.075E+02
 3.804191    1.000E+02
 3.804388    9.434E+01
 3.805172    8.868E+01
 3.805955    8.679E+01
 3.806738    8.302E+01
 3.806935    7.736E+01
 3.807524    6.792E+01
 3.807718    7.358E+01
 3.808500    7.358E+01
 3.808888    8.302E+01
 3.809283    7.170E+01
 3.809481    6.415E+01
 3.809678    5.660E+01
 3.810267    5.094E+01
 3.810848    6.604E+01
 3.810850    6.038E+01
 3.811038    8.491E+01
 3.812015    8.679E+01
 3.812603    8.113E+01
 3.813581    8.113E+01
 3.814169    7.547E+01
 3.814756    7.547E+01
 3.815539    7.170E+01
 3.816321    7.170E+01
 3.816909    6.604E+01
 3.817494    7.170E+01
 3.817886    6.792E+01
 3.818471    7.170E+01
 3.818865    6.226E+01
 3.819254    6.981E+01
 3.819842    6.415E+01
 3.820231    7.170E+01
 3.820820    6.226E+01
 3.821013    7.170E+01
 3.821203    9.057E+01
 3.821598    7.547E+01
 3.821602    6.226E+01
 3.821978    1.132E+02
 3.822365    1.264E+02
 3.822952    1.226E+02
 3.823346    1.132E+02
 3.823740    1.057E+02
 3.823937    9.811E+01
 3.824526    9.057E+01
 3.825309    8.679E+01
 3.826091    8.679E+01
 3.826677    8.868E+01
 3.827264    8.679E+01
 3.827462    7.925E+01
 3.828244    7.925E+01
 3.828831    7.736E+01
 3.829418    7.736E+01
 3.830201    7.358E+01
 3.830787    7.547E+01
 3.831373    7.547E+01
 3.831763    8.113E+01
 3.832151    8.868E+01
 3.832546    7.547E+01
 3.832740    8.113E+01
 3.833334    5.660E+01
 3.834117    5.283E+01
 3.834900    5.094E+01
 3.835682    4.906E+01
 3.836076    4.151E+01
 3.836858    3.962E+01
 3.837247    4.717E+01
 3.837634    6.038E+01
 3.837825    7.358E+01
 3.838603    8.679E+01
 3.838997    7.925E+01
 3.839195    6.981E+01
 3.839588    6.415E+01
 3.839985    4.528E+01
 3.840150    4.037E+01
 3.840839    4.587E+01
 3.841353    5.505E+01
 3.841867    6.239E+01
 3.842207    7.339E+01
 3.842374    8.440E+01
 3.842538    9.908E+01
 3.843000    1.411E+02
 3.843043    1.248E+02
 3.843896    1.450E+02
 3.844412    1.505E+02
 3.845102    1.541E+02
 3.845972    1.450E+02
 3.846495    1.394E+02
 3.846845    1.321E+02
 3.847188    1.376E+02
 3.847541    1.248E+02
 3.848056    1.321E+02
 3.848061    1.229E+02
 3.848925    1.248E+02
 3.849277    1.138E+02
 3.849800    1.064E+02
 3.850152    9.725E+01
 3.850667    1.046E+02
 3.851191    9.541E+01
 3.851533    1.028E+02
 3.852053    1.009E+02
 3.852059    8.991E+01
 3.852409    8.257E+01
 3.852925    8.807E+01
 3.853276    7.890E+01
 3.853797    7.523E+01
 3.853957    9.908E+01
 3.853961    9.174E+01
 3.853965    8.440E+01
 3.855192    9.464E+01
 3.856039    8.807E+01
 3.856208    9.541E+01
 3.857074    9.358E+01
 3.857079    8.440E+01
 3.857939    9.358E+01
 3.858000    8.618E+01
 3.858978    9.174E+01
 3.858981    8.624E+01
 3.859674    8.440E+01
 3.860016    9.174E+01
 3.860538    8.624E+01
 3.861054    9.174E+01
 3.861751    8.257E+01
 3.861917    9.541E+01
 3.861940    1.097E+02
 3.862783    9.358E+01
 3.863306    8.624E+01
 3.863995    9.174E+01
 3.864519    8.257E+01
 3.865214    7.890E+01
 3.866080    7.706E+01
 3.866945    7.706E+01
 3.867982    7.890E+01
 3.868505    7.156E+01
 3.869192    8.073E+01
 3.870233    7.523E+01
 3.871000    7.876E+01
 3.871000    7.826E+01
 3.871448    6.789E+01
 3.872311    7.156E+01
 3.873000    7.480E+01
 3.873351    6.789E+01
 3.874044    6.606E+01
 3.874565    6.239E+01
 3.875258    6.055E+01
 3.875606    5.688E+01
 3.876299    5.505E+01
 3.876646    5.321E+01
 3.877167    5.138E+01
 3.877689    4.587E+01
 3.878205    5.138E+01
 3.878383    4.220E+01
 3.878897    5.138E+01
 3.878901    4.404E+01
 3.879588    5.321E+01
 3.879753    6.606E+01
 3.879963    7.843E+01
 3.880146    8.824E+01
 3.880331    9.412E+01
 3.880585    1.248E+02
 3.880589    1.174E+02
 3.880754    1.321E+02
 3.881096    1.376E+02
 3.881997    1.470E+02
 3.882475    1.468E+02
 3.882997    1.413E+02
 3.883346    1.358E+02
 3.883524    1.284E+02
 3.883701    1.211E+02
 3.884223    1.156E+02
 3.884916    1.138E+02
 3.885609    1.119E+02
 3.886131    1.064E+02
 3.886828    9.908E+01
 3.887523    9.358E+01
 3.888388    9.358E+01
 3.889081    9.174E+01
 3.889422    1.009E+02
 3.889603    8.624E+01
 3.890117    9.541E+01
 3.890288    6.169E+01
 3.891040    5.768E+01
 3.891417    5.372E+01
 3.891980    5.366E+01
 3.892546    4.574E+01
 3.893299    3.977E+01
 3.894461    6.239E+01
 3.894590    9.074E+01
 3.894807    6.239E+01
 3.894963    9.660E+01
 3.895716    9.063E+01
 3.895906    8.472E+01
 3.896659    7.875E+01
 3.897225    7.083E+01
 3.897412    7.278E+01
 3.897978    6.486E+01
 3.898727    6.872E+01
 3.898917    6.280E+01
 3.899294    5.883E+01
 3.900427    4.103E+01
 3.900618    3.512E+01
 3.901369    3.308E+01
 3.901740    4.287E+01
 3.902256    4.404E+01
 3.902288    7.623E+01
 3.902458    1.175E+02
 3.902820    1.489E+02
 3.903569    1.527E+02
 3.904139    1.350E+02
 3.904330    1.271E+02
 3.904522    1.173E+02
 3.905280    9.951E+01
 3.906217    1.014E+02
 3.906413    8.171E+01
 3.907353    7.769E+01
 3.908106    7.172E+01
 3.909046    6.573E+01
 3.909046    6.573E+01
 3.909988    5.778E+01
 3.910740    5.377E+01
 3.911116    5.177E+01
 3.911310    3.799E+01
 3.911868    4.776E+01
 3.912245    4.380E+01
 3.912805    5.160E+01
 3.913369    4.762E+01
 3.913923    6.721E+01
 3.913929    5.542E+01
 3.914289    8.880E+01
 3.914649    1.261E+02
 3.915201    1.496E+02
 3.915758    1.633E+02
 3.916697    1.613E+02
 3.917076    1.534E+02
 3.917643    1.435E+02
 3.918037    1.002E+02
 3.919162    1.001E+02
 3.919346    1.099E+02
 3.920099    1.039E+02
 3.920102    9.608E+01
 3.920854    9.208E+01
 3.921228    9.597E+01
 3.921792    9.199E+01
 3.922165    9.785E+01
 3.923106    8.989E+01
 3.923855    9.375E+01
 3.924432    6.028E+01
 3.924990    7.202E+01
 3.925182    6.217E+01
 3.925929    6.996E+01
 3.926307    6.403E+01
 3.927055    6.788E+01
 3.927807    6.584E+01
 3.928558    6.380E+01
 3.929311    5.783E+01
 3.929500    5.388E+01
 3.930055    7.152E+01
 3.930248    5.971E+01
 3.930435    6.165E+01
 3.931188    5.568E+01
 3.931190    4.979E+01
 3.931940    5.168E+01
 3.932693    4.571E+01
 3.933441    5.153E+01
 3.933444    4.367E+01
 3.934007    4.361E+01
 3.934946    4.155E+01
 3.935130    4.940E+01
 3.935674    9.455E+01
 3.936058    7.289E+01
 3.936261    3.749E+01
 3.937008    4.528E+01
 3.937013    3.349E+01
 3.937565    5.898E+01
 3.938113    9.234E+01
 3.938479    1.139E+02
 3.938658    1.355E+02
 3.939029    1.433E+02
 3.939775    1.551E+02
 3.940711    1.589E+02
 3.941277    1.510E+02
 3.941655    1.451E+02
 3.941658    1.392E+02
 3.942043    1.155E+02
 3.943156    1.449E+02
 3.943715    1.527E+02
 3.943906    1.448E+02
 3.944670    1.153E+02
 3.945416    1.250E+02
 3.945419    1.172E+02
 3.946170    1.151E+02
 3.946733    1.151E+02
 3.947112    1.072E+02
 3.947670    1.189E+02
 3.947860    1.130E+02
 3.948799    1.109E+02
 3.949549    1.109E+02
 3.950485    1.147E+02
 3.950860    1.166E+02
 3.951419    1.244E+02
 3.951598    1.460E+02
 3.951780    1.578E+02
 3.952904    1.616E+02
 3.952931    9.874E+01
 3.953692    7.508E+01
 3.954437    8.680E+01
 3.954620    9.857E+01
 3.955185    9.262E+01
 3.956138    5.715E+01
 3.957079    5.116E+01
 3.957819    7.467E+01
 3.957997    9.824E+01
 3.958936    9.618E+01
 3.959312    9.221E+01
 3.959497    1.001E+02
 3.959876    9.019E+01
 3.961384    7.432E+01
 3.962319    8.012E+01
 3.962880    8.400E+01
 3.963632    8.196E+01
 3.963815    9.177E+01
 3.964576    6.614E+01
 3.965142    6.019E+01
 3.965895    5.422E+01
 3.966074    7.385E+01
 3.967007    8.555E+01
 3.967194    8.750E+01
 3.967377    9.731E+01
 3.968133    8.544E+01
 3.968894    5.982E+01
 3.969453    6.959E+01
 3.969825    7.545E+01
 3.970385    8.326E+01
 3.971128    9.890E+01
 3.971150    4.780E+01
 3.971512    7.921E+01
 3.972442    9.877E+01
 3.972824    8.301E+01
 3.973200    8.101E+01
 3.973951    7.897E+01
 3.974889    7.888E+01
 3.976004    1.043E+02
 3.976008    9.449E+01
 3.976573    9.051E+01
 3.977150    5.704E+01
 3.977527    5.307E+01
 3.978277    5.300E+01
 3.979213    5.683E+01
 3.979780    4.892E+01
 3.980341    5.279E+01
 3.981090    5.665E+01
 3.981842    5.264E+01
 3.982966    5.450E+01
 3.983343    5.053E+01
 3.984093    5.242E+01
 3.984845    4.842E+01
 3.985587    6.800E+01
 3.985596    4.834E+01
 3.985968    5.420E+01
 3.986348    4.434E+01
 3.986914    3.642E+01
 3.987479    3.047E+01
 3.988043    2.845E+01
 3.988228    3.433E+01
 3.988752    1.247E+02
 3.989123    1.345E+02
 3.989906    5.774E+01
 3.990062    1.324E+02
 3.990084    8.131E+01
 3.990626    1.284E+02
 3.990810    1.382E+02
 3.991399    7.725E+01
 3.991779    6.542E+01
 3.992529    6.731E+01
 3.993092    6.529E+01
 3.993290    4.169E+01
 3.993472    5.543E+01
 3.994041    4.161E+01
 3.994215    7.107E+01
 3.994400    7.892E+01
 3.994962    8.083E+01
 3.995147    8.671E+01
 3.995896    8.860E+01
 3.996463    8.068E+01
 3.996845    6.492E+01
 3.996847    5.902E+01
 3.997775    8.252E+01
 3.997963    8.053E+01
 3.998345    6.674E+01
 3.998719    6.866E+01
 3.999098    5.880E+01
 3.999485    3.321E+01
 3.999839    8.231E+01
 4.000220    6.852E+01
 4.000234    3.510E+01
 4.000589    8.224E+01
 4.001340    8.020E+01
 4.001709    9.588E+01
 4.001728    5.068E+01
 4.002478    5.257E+01
 4.003017    1.075E+02
 4.003960    9.566E+01
 4.004339    8.776E+01
 4.005091    8.376E+01
 4.006028    8.563E+01
 4.006776    9.145E+01
 4.007352    5.995E+01
 4.007537    6.583E+01
 4.008291    5.789E+01
 4.008473    7.163E+01
 4.008656    8.341E+01
 4.009217    8.532E+01
 4.010349    7.145E+01
 4.010361    4.393E+01
 4.010917    5.960E+01
 4.010920    5.174E+01
 4.011854    6.147E+01
 4.012603    6.533E+01
 4.013542    6.327E+01
 4.014294    5.926E+01
 4.015043    6.312E+01
 4.015600    7.682E+01
 4.017000    6.869E+01
 4.017304    3.931E+01
 4.018054    4.121E+01
 4.018617    4.115E+01
 4.019367    4.108E+01
 4.019931    3.905E+01
 4.020682    3.701E+01
 4.021246    3.303E+01
 4.021437    2.711E+01
 4.022189    2.311E+01
ENDDATA           1921
ENDSUBENT         1936
SUBENT        E1494010   20070909   20070911   20070909       E047
BIB                  5          6
REACTION   (28-NI-62(P,EL)28-NI-62,,DA)
EN-SEC     ANG is polar angle between beam and proton in
           laboratory system
SAMPLE     Target enrichment is 99.93%.
STATUS     (CURVE) Scanned from Fig.4, p132 in reference
HISTORY    (20060228A) At. Re-digitized
ENDBIB               6
COMMON               1          3
ANG
ADEG
 160.
ENDCOMMON            3
DATA                 2       1736
EN         DATA
MEV        MB/SR
 3.008408    1.308E+02
 3.009094    1.254E+02
 3.009952    1.218E+02
 3.010810    1.199E+02
 3.011497    1.146E+02
 3.012011    1.214E+02
 3.012698    1.213E+02
 3.013556    1.212E+02
 3.014414    1.175E+02
 3.015272    1.174E+02
 3.015958    1.103E+02
 3.016644    1.171E+02
 3.016816    1.032E+02
 3.017502    1.100E+02
 3.017674    1.065E+02
 3.018360    9.249E+01
 3.018532    1.307E+02
 3.019047    1.202E+02
 3.019218    1.341E+02
 3.019561    1.114E+02
 3.019905    9.918E+01
 3.020248    1.408E+02
 3.020763    1.286E+02
 3.021277    1.163E+02
 3.021277    1.042E+02
 3.021621    9.540E+01
 3.021792    1.545E+02
 3.022135    1.023E+02
 3.022479    1.631E+02
 3.022650    1.526E+02
 3.022993    1.351E+02
 3.023851    1.228E+02
 3.024366    1.314E+02
 3.025052    1.087E+02
 3.025052    1.261E+02
 3.025396    1.486E+02
 3.026254    1.450E+02
 3.026940    1.397E+02
 3.027455    1.344E+02
 3.027969    1.221E+02
 3.028656    1.307E+02
 3.028999    1.150E+02
 3.029857    1.009E+02
 3.029857    1.183E+02
 3.030543    9.035E+01
 3.030887    1.077E+02
 3.031230    1.233E+02
 3.032000    1.154E+02
 3.032602    1.108E+02
 3.032946    1.021E+02
 3.032946    1.125E+02
 3.033632    1.089E+02
 3.034318    1.088E+02
 3.035176    1.069E+02
 3.035691    9.987E+01
 3.035863    1.155E+02
 3.036206    1.206E+02
 3.036721    1.119E+02
 3.037579    1.030E+02
 3.037750    1.117E+02
 3.038437    1.098E+02
 3.039123    1.080E+02
 3.039466    1.009E+02
 3.039638    9.222E+01
 3.039981    1.113E+02
 3.040667    1.181E+02
 3.041182    1.128E+02
 3.041868    1.075E+02
 3.042726    1.073E+02
 3.043584    1.072E+02
 3.044099    9.317E+01
 3.044957    9.998E+01
 3.046158    8.412E+01
 3.046158    1.206E+02
 3.047016    1.222E+02
 3.047531    1.186E+02
 3.047874    1.134E+02
 3.048561    1.341E+02
 3.048732    1.254E+02
 3.049075    1.201E+02
 3.049418    1.131E+02
 3.049762    1.043E+02
 3.049762    1.235E+02
 3.049933    1.165E+02
 3.050620    1.181E+02
 3.051134    1.076E+02
 3.051992    9.352E+01
 3.051992    1.109E+02
 3.052850    1.160E+02
 3.053365    1.107E+02
 3.053537    1.054E+02
 3.053708    9.496E+01
 3.053880    7.580E+01
 3.054223    8.096E+01
 3.054738    1.365E+02
 3.054909    1.591E+02
 3.055424    1.538E+02
 3.055767    1.381E+02
 3.056282    1.275E+02
 3.056797    1.361E+02
 3.057483    1.221E+02
 3.058170    1.203E+02
 3.058684    1.167E+02
 3.059371    1.113E+02
 3.059542    9.741E+01
 3.059714    8.173E+01
 3.060057    1.303E+02
 3.060400    1.390E+02
 3.060744    1.302E+02
 3.061258    1.214E+02
 3.061602    1.110E+02
 3.062116    1.109E+02
 3.062288    1.247E+02
 3.062459    1.334E+02
 3.062974    1.211E+02
 3.063832    1.175E+02
 3.064690    1.121E+02
 3.065205    1.034E+02
 3.065891    1.137E+02
 3.065891    8.586E+01
 3.066063    1.449E+02
 3.066921    1.396E+02
 3.066921    1.309E+02
 3.067264    1.221E+02
 3.068122    1.202E+02
 3.068980    1.166E+02
 3.069495    1.096E+02
 3.069838    1.060E+02
 3.070181    1.147E+02
 3.070867    1.111E+02
 3.071725    1.126E+02
 3.072583    1.142E+02
 3.073098    1.072E+02
 3.073785    1.019E+02
 3.074299    9.828E+01
 3.074471    1.052E+02
 3.074814    1.138E+02
 3.075672    1.137E+02
 3.076530    1.101E+02
 3.077388    1.082E+02
 3.078246    1.080E+02
 3.078932    1.062E+02
 3.079276    9.567E+01
 3.079962    1.077E+02
 3.080820    1.041E+02
 3.080991    9.015E+01
 3.081849    1.056E+02
 3.081849    9.348E+01
 3.082193    1.195E+02
 3.082879    1.211E+02
 3.083222    1.037E+02
 3.084252    1.052E+02
 3.084938    9.815E+01
 3.085624    1.067E+02
 3.086654    1.013E+02
 3.087512    1.012E+02
 3.088541    9.751E+01
 3.089399    9.388E+01
 3.090086    9.203E+01
 3.090772    9.538E+01
 3.091287    1.005E+02
 3.091459    1.022E+02
 3.092316    8.815E+01
 3.093346    8.797E+01
 3.094204    8.782E+01
 3.095062    7.202E+01
 3.095234    1.189E+02
 3.095405    8.761E+01
 3.095920    1.084E+02
 3.096606    1.030E+02
 3.097293    1.012E+02
 3.098322    9.927E+01
 3.098494    8.707E+01
 3.099180    1.200E+02
 3.099867    9.552E+01
 3.100038    1.059E+02
 3.100896    1.058E+02
 3.101754    1.021E+02
 3.102612    1.037E+02
 3.104156    8.607E+01
 3.104328    1.086E+02
 3.104671    9.989E+01
 3.105014    9.113E+01
 3.105357    1.015E+02
 3.105872    9.272E+01
 3.106902    8.732E+01
 3.107760    7.152E+01
 3.108618    5.746E+01
 3.108961    1.409E+02
 3.108961    8.522E+01
 3.109647    1.373E+02
 3.110162    1.250E+02
 3.110677    1.162E+02
 3.111535    1.056E+02
 3.112050    1.090E+02
 3.112908    1.002E+02
 3.113594    1.070E+02
 3.114109    9.996E+01
 3.114795    1.103E+02
 3.115996    9.963E+01
 3.116511    1.065E+02
 3.116683    9.603E+01
 3.117541    9.588E+01
 3.118398    9.921E+01
 3.119256    9.036E+01
 3.120286    9.366E+01
 3.120629    1.040E+02
 3.121316    9.869E+01
 3.121830    1.021E+02
 3.122517    9.674E+01
 3.123203    9.662E+01
 3.123546    9.134E+01
 3.123889    9.824E+01
 3.124404    9.119E+01
 3.125091    8.412E+01
 3.125949    8.918E+01
 3.126120    9.958E+01
 3.126806    9.077E+01
 3.127150    8.549E+01
 3.127493    7.152E+01
 3.128008    9.056E+01
 3.128694    1.096E+02
 3.129037    9.038E+01
 3.129724    1.094E+02
 3.130238    1.023E+02
 3.130753    9.529E+01
 3.131611    9.862E+01
 3.131954    9.160E+01
 3.132641    1.002E+02
 3.133670    8.261E+01
 3.134185    8.947E+01
 3.134700    9.286E+01
 3.135214    8.755E+01
 3.136072    8.914E+01
 3.136587    9.600E+01
 3.137102    9.069E+01
 3.137788    8.710E+01
 3.138646    9.564E+01
 3.139676    9.372E+01
 3.140191    1.093E+02
 3.140705    1.109E+02
 3.141392    9.342E+01
 3.142078    9.503E+01
 3.142765    8.970E+01
 3.143279    9.482E+01
 3.143966    8.949E+01
 3.144480    8.939E+01
 3.145167    9.449E+01
 3.146025    9.260E+01
 3.146883    1.133E+02
 3.147569    1.271E+02
 3.148084    1.253E+02
 3.148084    1.131E+02
 3.148770    1.025E+02
 3.149285    1.025E+02
 3.149457    9.373E+01
 3.150143    9.535E+01
 3.151001    9.520E+01
 3.151516    9.337E+01
 3.152202    8.977E+01
 3.153060    9.136E+01
 3.153746    9.298E+01
 3.154604    9.109E+01
 3.155119    8.752E+01
 3.155806    9.261E+01
 3.156320    9.252E+01
 3.156663    7.855E+01
 3.157178    9.411E+01
 3.158036    9.222E+01
 3.158723    8.862E+01
 3.159409    8.850E+01
 3.160267    8.661E+01
 3.160439    7.789E+01
 3.160610    7.090E+01
 3.160953    1.126E+02
 3.161296    1.056E+02
 3.161468    9.857E+01
 3.162154    1.002E+02
 3.162841    9.485E+01
 3.163699    8.601E+01
 3.164042    7.725E+01
 3.164557    8.412E+01
 3.164900    8.580E+01
 3.165415    8.918E+01
 3.165929    9.431E+01
 3.166273    9.772E+01
 3.166959    9.239E+01
 3.167131    8.714E+01
 3.167645    9.053E+01
 3.168503    1.008E+02
 3.169018    9.550E+01
 3.169361    9.023E+01
 3.170219    9.703E+01
 3.170391    7.266E+01
 3.170734    9.172E+01
 3.171420    8.812E+01
 3.172107    8.279E+01
 3.172793    8.093E+01
 3.173480    8.950E+01
 3.173823    8.249E+01
 3.174681    8.060E+01
 3.174681    8.581E+01
 3.175710    8.389E+01
 3.176397    8.029E+01
 3.176740    7.328E+01
 3.177255    5.754E+01
 3.177769    7.831E+01
 3.178284    1.199E+02
 3.178456    1.147E+02
 3.178627    1.008E+02
 3.179485    1.024E+02
 3.180000    8.835E+01
 3.181030    8.643E+01
 3.181716    8.979E+01
 3.182402    9.662E+01
 3.183260    8.952E+01
 3.183775    8.247E+01
 3.184461    8.930E+01
 3.184976    8.574E+01
 3.185148    8.571E+01
 3.185834    8.732E+01
 3.185834    8.558E+01
 3.186520    8.894E+01
 3.187378    8.705E+01
 3.188065    8.693E+01
 3.188408    7.818E+01
 3.188751    6.942E+01
 3.188923    6.418E+01
 3.189609    1.058E+02
 3.190124    1.057E+02
 3.190124    9.178E+01
 3.190523    1.293E+02
 3.191212    1.259E+02
 3.191557    1.190E+02
 3.192245    1.155E+02
 3.192933    1.190E+02
 3.193449    1.224E+02
 3.194138    1.121E+02
 3.194827    1.103E+02
 3.195687    1.121E+02
 3.196375    1.138E+02
 3.196892    1.069E+02
 3.197408    1.103E+02
 3.197926    9.828E+01
 3.198439    1.259E+02
 3.199300    1.241E+02
 3.199989    1.190E+02
 3.200505    1.207E+02
 3.201366    1.069E+02
 3.202055    1.000E+02
 3.202743    1.103E+02
 3.203259    1.138E+02
 3.204119    1.172E+02
 3.204292    1.103E+02
 3.204635    1.172E+02
 3.205324    1.121E+02
 3.206185    1.086E+02
 3.206873    1.034E+02
 3.207388    1.172E+02
 3.208000    1.197E+02
 3.208765    1.190E+02
 3.209110    1.103E+02
 3.209799    1.069E+02
 3.210488    9.828E+01
 3.210659    1.121E+02
 3.211521    9.138E+01
 3.211691    1.086E+02
 3.212207    1.155E+02
 3.212724    1.086E+02
 3.213412    1.138E+02
 3.214444    1.155E+02
 3.215477    1.103E+02
 3.216165    1.121E+02
 3.217000    1.120E+02
 3.217000    1.119E+02
 3.217714    1.121E+02
 3.218574    1.121E+02
 3.219435    1.086E+02
 3.220295    1.121E+02
 3.220640    1.052E+02
 3.221328    1.103E+02
 3.222188    1.086E+02
 3.223394    1.017E+02
 3.223739    9.138E+01
 3.224000    1.096E+02
 3.224596    1.241E+02
 3.224597    1.138E+02
 3.225629    1.207E+02
 3.226490    1.121E+02
 3.226661    1.224E+02
 3.227350    1.155E+02
 3.228211    1.155E+02
 3.228556    1.069E+02
 3.229000    1.138E+02
 3.229000    1.155E+02
 3.229416    1.052E+02
 3.230104    1.121E+02
 3.230621    1.052E+02
 3.231000    1.143E+02
 3.231000    1.133E+02
 3.231825    1.155E+02
 3.232513    1.121E+02
 3.233030    1.103E+02
 3.233546    1.121E+02
 3.234406    1.138E+02
 3.234579    1.052E+02
 3.234924    9.828E+01
 3.235268    9.310E+01
 3.235614    7.759E+01
 3.235957    9.483E+01
 3.236000    1.354E+02
 3.236472    1.069E+02
 3.236987    1.155E+02
 3.237504    1.052E+02
 3.237676    1.103E+02
 3.238365    1.052E+02
 3.238882    9.828E+01
 3.239398    1.000E+02
 3.239743    8.621E+01
 3.239916    7.759E+01
 3.239917    6.724E+01
 3.240433    7.069E+01
 3.240602    1.000E+02
 3.240943    1.328E+02
 3.241805    1.224E+02
 3.241975    1.362E+02
 3.242149    1.224E+02
 3.242839    1.069E+02
 3.243010    1.138E+02
 3.243696    1.397E+02
 3.243696    1.345E+02
 3.244213    1.293E+02
 3.244902    1.293E+02
 3.245246    1.224E+02
 3.246000    1.176E+02
 3.246968    1.103E+02
 3.247139    1.207E+02
 3.247827    1.241E+02
 3.248516    1.172E+02
 3.249032    1.241E+02
 3.249722    1.052E+02
 3.250238    1.086E+02
 3.251099    1.086E+02
 3.252000    1.092E+02
 3.252000    1.092E+02
 3.252991    1.086E+02
 3.254712    1.086E+02
 3.255229    1.034E+02
 3.255573    1.086E+02
 3.256434    1.052E+02
 3.256949    1.103E+02
 3.257293    1.103E+02
 3.257982    1.086E+02
 3.258499    1.034E+02
 3.259187    1.000E+02
 3.260220    9.828E+01
 3.260736    1.034E+02
 3.261251    1.190E+02
 3.261939    1.224E+02
 3.261939    1.138E+02
 3.262800    1.069E+02
 3.263144    1.121E+02
 3.263661    1.052E+02
 3.264005    1.069E+02
 3.264693    1.086E+02
 3.265381    1.138E+02
 3.265898    1.069E+02
 3.266415    1.017E+02
 3.267104    9.655E+01
 3.267964    9.655E+01
 3.268481    8.793E+01
 3.269855    1.155E+02
 3.270000    1.017E+02
 3.270717    9.828E+01
 3.271406    9.483E+01
 3.271750    9.828E+01
 3.272438    9.310E+01
 3.273471    9.138E+01
 3.274678    7.241E+01
 3.274850    6.552E+01
 3.275361    1.207E+02
 3.275879    1.086E+02
 3.276224    9.655E+01
 3.276565    1.293E+02
 3.276570    8.103E+01
 3.277000    1.428E+02
 3.277597    1.310E+02
 3.277770    1.224E+02
 3.277943    1.155E+02
 3.278976    1.138E+02
 3.279664    1.103E+02
 3.280523    1.293E+02
 3.280525    1.086E+02
 3.281385    1.121E+02
 3.281730    1.052E+02
 3.282000    1.430E+02
 3.282075    9.655E+01
 3.282416    1.310E+02
 3.282933    1.224E+02
 3.283450    1.172E+02
 3.284138    1.190E+02
 3.284998    1.155E+02
 3.285688    1.052E+02
 3.286720    1.034E+02
 3.286893    9.483E+01
 3.287924    1.190E+02
 3.288441    1.103E+02
 3.289473    1.121E+02
 3.290850    1.052E+02
 3.291368    9.483E+01
 3.291539    1.034E+02
 3.292226    1.138E+02
 3.292571    1.052E+02
 3.293431    1.103E+02
 3.294120    1.034E+02
 3.294466    8.621E+01
 3.294637    1.000E+02
 3.295496    1.121E+02
 3.296185    1.034E+02
 3.296874    9.483E+01
 3.297391    8.448E+01
 3.297909    7.586E+01
 3.298418    1.517E+02
 3.298934    1.448E+02
 3.298936    1.293E+02
 3.299453    1.224E+02
 3.300142    1.155E+02
 3.300657    1.241E+02
 3.301518    1.259E+02
 3.302000    1.037E+02
 3.303000    1.160E+02
 3.303000    1.026E+02
 3.303755    1.172E+02
 3.304272    1.172E+02
 3.304273    1.000E+02
 3.305305    1.138E+02
 3.305820    1.207E+02
 3.305821    1.103E+02
 3.306509    1.155E+02
 3.306855    1.000E+02
 3.308000    9.901E+01
 3.308574    1.121E+02
 3.309091    1.052E+02
 3.309951    1.103E+02
 3.310468    1.069E+02
 3.310639    1.190E+02
 3.311328    1.086E+02
 3.312016    1.086E+02
 3.312706    9.655E+01
 3.314598    1.034E+02
 3.315287    9.655E+01
 3.316147    1.000E+02
 3.316320    9.138E+01
 3.316833    1.259E+02
 3.316837    8.103E+01
 3.317521    1.293E+02
 3.318038    1.172E+02
 3.318383    1.103E+02
 3.319243    1.121E+02
 3.319244    1.069E+02
 3.319761    1.034E+02
 3.320794    9.828E+01
 3.321309    1.086E+02
 3.321653    1.121E+02
 3.322342    1.052E+02
 3.323000    1.107E+02
 3.323029    1.121E+02
 3.323890    1.086E+02
 3.325000    1.077E+02
 3.325611    1.052E+02
 3.326299    1.086E+02
 3.327505    1.000E+02
 3.328193    1.034E+02
 3.328537    1.052E+02
 3.329053    1.000E+02
 3.329572    7.759E+01
 3.329914    1.000E+02
 3.329915    8.621E+01
 3.330947    9.828E+01
 3.331462    1.034E+02
 3.332496    9.310E+01
 3.333012    9.483E+01
 3.333529    8.103E+01
 3.333875    6.724E+01
 3.334557    1.328E+02
 3.335246    1.293E+02
 3.335762    1.310E+02
 3.336107    1.224E+02
 3.336796    1.172E+02
 3.337484    1.121E+02
 3.338172    1.155E+02
 3.338689    1.155E+02
 3.339549    1.138E+02
 3.340065    1.190E+02
 3.340409    1.259E+02
 3.341099    1.000E+02
 3.341443    1.069E+02
 3.342130    1.155E+02
 3.342992    1.069E+02
 3.343508    1.000E+02
 3.344024    1.069E+02
 3.344025    9.483E+01
 3.344712    1.069E+02
 3.345401    1.052E+02
 3.345402    9.828E+01
 3.345745    1.052E+02
 3.346778    1.000E+02
 3.347468    8.793E+01
 3.347982    1.121E+02
 3.348327    1.034E+02
 3.349000    1.028E+02
 3.349359    1.086E+02
 3.349704    9.483E+01
 3.350221    8.793E+01
 3.350221    8.276E+01
 3.350388    1.397E+02
 3.351249    1.293E+02
 3.351423    1.190E+02
 3.352283    1.155E+02
 3.352628    1.069E+02
 3.353488    1.138E+02
 3.354005    1.086E+02
 3.355037    1.069E+02
 3.356070    1.103E+02
 3.356587    1.017E+02
 3.357446    1.086E+02
 3.358136    9.828E+01
 3.359000    1.013E+02
 3.359000    1.012E+02
 3.360000    1.014E+02
 3.360545    9.655E+01
 3.361234    9.310E+01
 3.361921    1.000E+02
 3.362782    1.000E+02
 3.363471    9.310E+01
 3.364331    9.828E+01
 3.365191    1.017E+02
 3.365536    9.655E+01
 3.366053    8.793E+01
 3.366741    8.276E+01
 3.366911    1.052E+02
 3.366912    1.000E+02
 3.367772    1.034E+02
 3.368460    1.086E+02
 3.369492    1.103E+02
 3.369494    9.483E+01
 3.370182    9.828E+01
 3.371042    1.017E+02
 3.371731    9.655E+01
 3.373000    9.627E+01
 3.374000    1.006E+02
 3.375172    9.483E+01
 3.375860    1.000E+02
 3.376549    9.310E+01
 3.377066    8.966E+01
 3.377926    8.966E+01
 3.378443    8.103E+01
 3.379132    7.759E+01
 3.379477    7.241E+01
 3.379650    5.862E+01
 3.379815    1.345E+02
 3.380850    1.103E+02
 3.381538    1.138E+02
 3.382055    9.828E+01
 3.382744    9.483E+01
 3.383433    9.310E+01
 3.383778    8.448E+01
 3.383950    7.759E+01
 3.384295    7.069E+01
 3.384638    8.103E+01
 3.384806    1.241E+02
 3.385668    1.103E+02
 3.386356    1.190E+02
 3.386528    1.103E+02
 3.387561    1.086E+02
 3.387734    9.828E+01
 3.388422    1.052E+02
 3.389283    1.000E+02
 3.389971    1.017E+02
 3.390724    1.064E+02
 3.391584    1.026E+02
 3.392271    1.007E+02
 3.392788    1.043E+02
 3.393647    1.006E+02
 3.394162    8.951E+01
 3.395025    1.151E+02
 3.396227    1.021E+02
 3.396743    1.021E+02
 3.397000    9.476E+01
 3.397000    8.994E+01
 3.397000    8.939E+01
 3.398117    8.726E+01
 3.398461    7.989E+01
 3.398804    7.068E+01
 3.399490    5.593E+01
 3.399664    7.426E+01
 3.399665    8.160E+01
 3.399838    9.075E+01
 3.400000    1.571E+02
 3.400187    1.421E+02
 3.400874    1.365E+02
 3.400876    1.567E+02
 3.401391    1.456E+02
 3.402000    1.359E+02
 3.402765    1.290E+02
 3.403280    1.198E+02
 3.404000    1.147E+02
 3.404000    1.103E+02
 3.404482    1.013E+02
 3.404656    1.178E+02
 3.404999    1.067E+02
 3.405514    9.750E+01
 3.405685    9.015E+01
 3.406027    7.360E+01
 3.406374    9.742E+01
 3.406723    1.469E+02
 3.406894    1.359E+02
 3.407236    1.212E+02
 3.407580    1.175E+02
 3.408000    1.028E+02
 3.408609    8.801E+01
 3.408782    1.008E+02
 3.408959    1.504E+02
 3.409301    1.320E+02
 3.410161    1.319E+02
 3.410332    1.227E+02
 3.411019    1.153E+02
 3.411707    1.152E+02
 3.412567    1.115E+02
 3.413082    1.077E+02
 3.413253    9.854E+01
 3.413942    1.113E+02
 3.414630    1.112E+02
 3.415146    1.112E+02
 3.416006    1.111E+02
 3.416866    1.110E+02
 3.417382    1.073E+02
 3.417897    9.989E+01
 3.418585    1.053E+02
 3.419102    1.108E+02
 3.419273    1.016E+02
 3.420133    1.052E+02
 3.420305    9.964E+01
 3.421165    1.032E+02
 3.421681    1.032E+02
 3.421682    1.105E+02
 3.422540    9.207E+01
 3.422885    1.030E+02
 3.423399    8.831E+01
 3.423401    1.103E+02
 3.423744    9.928E+01
 3.424604    9.553E+01
 3.425119    8.997E+01
 3.425979    8.804E+01
 3.426667    8.981E+01
 3.427184    9.709E+01
 3.428000    1.009E+02
 3.428043    9.150E+01
 3.428903    9.508E+01
 3.429075    8.956E+01
 3.429763    9.316E+01
 3.429934    8.764E+01
 3.430623    9.307E+01
 3.430966    8.569E+01
 3.432170    8.557E+01
 3.432857    7.999E+01
 3.433201    7.445E+01
 3.433544    6.891E+01
 3.434060    6.886E+01
 3.434064    1.074E+02
 3.435092    7.426E+01
 3.435094    8.527E+01
 3.435094    9.260E+01
 3.435607    6.320E+01
 3.436128    1.072E+02
 3.436131    1.420E+02
 3.436819    1.365E+02
 3.436990    1.328E+02
 3.437333    1.217E+02
 3.437504    1.070E+02
 3.438192    1.088E+02
 3.439000    1.073E+02
 3.439739    9.946E+01
 3.439910    9.027E+01
 3.440252    7.189E+01
 3.440595    6.451E+01
 3.440940    7.365E+01
 3.441285    9.013E+01
 3.441974    9.373E+01
 3.442833    8.997E+01
 3.443176    7.709E+01
 3.444036    7.517E+01
 3.444206    6.047E+01
 3.444549    5.126E+01
 3.445237    5.486E+01
 3.445591    1.466E+02
 3.445765    1.649E+02
 3.446280    1.575E+02
 3.446623    1.446E+02
 3.446795    1.501E+02
 3.447310    1.354E+02
 3.447825    1.280E+02
 3.448168    1.169E+02
 3.448684    1.242E+02
 3.449199    1.150E+02
 3.449887    1.094E+02
 3.450402    1.057E+02
 3.451089    9.829E+01
 3.451605    9.273E+01
 3.452465    9.631E+01
 3.452980    9.075E+01
 3.454185    9.796E+01
 3.454700    8.874E+01
 3.455215    7.951E+01
 3.455730    6.661E+01
 3.456073    5.741E+01
 3.456424    1.308E+02
 3.456589    6.286E+01
 3.456938    1.087E+02
 3.457286    1.490E+02
 3.457626    1.086E+02
 3.458316    1.306E+02
 3.458659    1.232E+02
 3.458833    1.378E+02
 3.460034    1.139E+02
 3.460549    1.065E+02
 3.461238    1.101E+02
 3.461753    1.027E+02
 3.462785    1.026E+02
 3.463645    1.025E+02
 3.464504    9.873E+01
 3.465020    9.868E+01
 3.466396    9.670E+01
 3.466398    1.150E+02
 3.466739    8.749E+01
 3.467081    7.645E+01
 3.467598    8.373E+01
 3.468802    8.544E+01
 3.469662    8.352E+01
 3.469833    7.616E+01
 3.470347    5.960E+01
 3.470865    7.238E+01
 3.471034    4.852E+01
 3.471380    6.316E+01
 3.471722    5.028E+01
 3.472245    1.163E+02
 3.472420    1.474E+02
 3.472936    1.401E+02
 3.473106    1.272E+02
 3.474139    1.308E+02
 3.474997    1.215E+02
 3.475339    1.013E+02
 3.475341    1.141E+02
 3.476372    1.048E+02
 3.477058    9.009E+01
 3.477917    8.450E+01
 3.478605    8.443E+01
 3.478776    7.340E+01
 3.478946    5.687E+01
 3.479465    8.250E+01
 3.479467    1.027E+02
 3.479814    1.265E+02
 3.480329    1.191E+02
 3.480671    1.062E+02
 3.481359    1.062E+02
 3.482216    7.671E+01
 3.483079    1.060E+02
 3.483423    1.041E+02
 3.483935    6.920E+01
 3.483938    9.305E+01
 3.484108    8.019E+01
 3.484623    7.279E+01
 3.484802    1.333E+02
 3.485318    1.333E+02
 3.486348    1.203E+02
 3.486691    1.111E+02
 3.487207    1.129E+02
 3.488066    9.996E+01
 3.488925    9.620E+01
 3.489441    8.881E+01
 3.490129    9.424E+01
 3.490989    9.415E+01
 3.491503    7.942E+01
 3.492020    9.037E+01
 3.493051    7.559E+01
 3.493565    5.902E+01
 3.493739    7.552E+01
 3.493915    1.122E+02
 3.494430    1.048E+02
 3.494945    9.924E+01
 3.495288    9.004E+01
 3.496492    8.624E+01
 3.497179    7.883E+01
 3.497694    6.960E+01
 3.498210    7.322E+01
 3.498553    6.401E+01
 3.498900    9.333E+01
 3.499243    8.596E+01
 3.499756    5.471E+01
 3.500273    6.200E+01
 3.500277    1.024E+02
 3.500448    9.134E+01
 3.500790    7.662E+01
 3.501134    7.108E+01
 3.501137    1.041E+02
 3.502341    1.058E+02
 3.502857    1.076E+02
 3.503716    9.283E+01
 3.504060    9.280E+01
 3.504573    7.073E+01
 3.504745    6.704E+01
 3.505607    9.264E+01
 3.506467    9.255E+01
 3.507155    9.064E+01
 3.507670    7.958E+01
 3.507671    8.692E+01
 3.508526    4.647E+01
 3.508873    7.212E+01
 3.509217    7.575E+01
 3.509730    5.001E+01
 3.510076    6.282E+01
 3.510080    9.951E+01
 3.511111    9.757E+01
 3.511627    9.018E+01
 3.511800    1.012E+02
 3.512832    1.011E+02
 3.513519    9.365E+01
 3.513690    8.262E+01
 3.514549    8.070E+01
 3.515237    7.513E+01
 3.515923    6.038E+01
 3.516782    5.111E+01
 3.516953    4.009E+01
 3.516955    6.394E+01
 3.517129    8.410E+01
 3.517647    9.689E+01
 3.517817    8.587E+01
 3.518506    9.497E+01
 3.518678    8.761E+01
 3.518679    1.023E+02
 3.519535    6.184E+01
 3.519881    8.015E+01
 3.520400    1.094E+02
 3.520744    1.168E+02
 3.521088    1.094E+02
 3.521259    1.039E+02
 3.522119    1.038E+02
 3.522979    1.073E+02
 3.523150    9.632E+01
 3.524010    9.623E+01
 3.524354    9.253E+01
 3.525000    8.701E+01
 3.525728    7.954E+01
 3.526245    9.050E+01
 3.527104    8.490E+01
 3.527447    7.019E+01
 3.527791    7.382E+01
 3.528476    4.807E+01
 3.528820    4.069E+01
 3.529162    2.781E+01
 3.529680    4.978E+01
 3.529851    3.141E+01
 3.530026    6.258E+01
 3.530027    7.726E+01
 3.530372    8.823E+01
 3.531062    9.917E+01
 3.531576    8.811E+01
 3.531920    8.073E+01
 3.532263    7.336E+01
 3.532606    6.415E+01
 3.533294    6.408E+01
 3.533980    4.750E+01
 3.533981    5.667E+01
 3.534327    7.682E+01
 3.534673    1.006E+02
 3.535532    9.320E+01
 3.536392    8.578E+01
 3.536735    8.024E+01
 3.537249    6.550E+01
 3.537593    5.997E+01
 3.538279    4.705E+01
 3.538280    5.439E+01
 3.538975    1.204E+02
 3.540008    1.313E+02
 3.540351    1.221E+02
 3.540693    1.018E+02
 3.540693    1.073E+02
 3.541207    8.711E+01
 3.541893    6.869E+01
 3.542239    8.700E+01
 3.542241    1.035E+02
 3.542930    1.108E+02
 3.543272    9.974E+01
 3.543789    1.089E+02
 3.544821    1.069E+02
 3.545681    1.032E+02
 3.546368    9.942E+01
 3.546713    1.104E+02
 3.547401    1.067E+02
 3.547916    9.742E+01
 3.548604    9.919E+01
 3.548946    8.264E+01
 3.549289    6.976E+01
 3.549634    8.624E+01
 3.551012    1.008E+02
 3.551698    8.235E+01
 3.552214    8.414E+01
 3.553075    9.322E+01
 3.553420    1.060E+02
 3.554108    1.060E+02
 3.554795    1.004E+02
 3.555484    1.040E+02
 3.556170    9.290E+01
 3.557031    9.648E+01
 3.558063    9.821E+01
 3.558233    8.535E+01
 3.559437    8.706E+01
 3.559783    9.803E+01
 3.560814    9.792E+01
 3.561845    8.681E+01
 3.562532    7.756E+01
 3.563393    8.481E+01
 3.563908    7.925E+01
 3.564081    8.474E+01
 3.564769    8.834E+01
 3.565284    8.278E+01
 3.565973    8.821E+01
 3.566316    8.084E+01
 3.567005    8.994E+01
 3.567520    8.255E+01
 3.568552    8.061E+01
 3.568894    6.589E+01
 3.569239    7.687E+01
 3.569757    9.516E+01
 3.570445    8.959E+01
 3.571476    8.764E+01
 3.572164    8.941E+01
 3.573024    8.748E+01
 3.573884    8.739E+01
 3.574055    8.004E+01
 3.574915    7.444E+01
 3.575602    7.070E+01
 3.576462    6.695E+01
 3.576806    7.425E+01
 3.577318    3.383E+01
 3.578006    3.560E+01
 3.578010    6.862E+01
 3.578358    1.126E+02
 3.578359    1.200E+02
 3.579043    8.136E+01
 3.579046    1.125E+02
 3.579214    7.216E+01
 3.579217    1.015E+02
 3.579729    6.110E+01
 3.580079    1.234E+02
 3.580253    1.363E+02
 3.580940    1.289E+02
 3.581798    1.141E+02
 3.582000    1.041E+02
 3.582312    9.753E+01
 3.582483    8.650E+01
 3.582998    7.728E+01
 3.583856    6.251E+01
 3.584032    9.552E+01
 3.584034    1.139E+02
 3.584208    1.340E+02
 3.584896    1.340E+02
 3.585755    1.247E+02
 3.586097    1.081E+02
 3.586270    1.155E+02
 3.587301    1.080E+02
 3.588160    1.006E+02
 3.588847    9.502E+01
 3.589364    9.863E+01
 3.590052    1.041E+02
 3.590926    1.232E+02
 3.590926    1.143E+02
 3.591751    1.161E+02
 3.592576    1.161E+02
 3.592576    1.089E+02
 3.593401    1.161E+02
 3.593401    1.036E+02
 3.594390    1.107E+02
 3.595215    1.143E+02
 3.596205    1.321E+02
 3.596535    1.250E+02
 3.596535    1.161E+02
 3.597030    1.143E+02
 3.597525    1.179E+02
 3.598185    1.107E+02
 3.599010    1.161E+02
 3.599340    1.054E+02
 3.600000    1.054E+02
 3.600660    1.054E+02
 3.601320    1.054E+02
 3.602000    1.048E+02
 3.602640    1.071E+02
 3.603300    1.107E+02
 3.603630    1.000E+02
 3.603960    1.179E+02
 3.604290    9.821E+01
 3.605115    9.643E+01
 3.605610    9.107E+01
 3.606269    9.643E+01
 3.606929    9.821E+01
 3.607094    8.929E+01
 3.607754    9.286E+01
 3.608414    8.929E+01
 3.608744    8.036E+01
 3.608909    8.750E+01
 3.608909    7.321E+01
 3.609074    1.036E+02
 3.609734    1.179E+02
 3.610064    1.107E+02
 3.610394    1.036E+02
 3.611054    1.036E+02
 3.611714    1.018E+02
 3.612539    1.018E+02
 3.613529    1.036E+02
 3.613859    9.821E+01
 3.614684    9.286E+01
 3.615344    1.000E+02
 3.616000    9.828E+01
 3.616829    9.643E+01
 3.617489    9.464E+01
 3.618148    8.393E+01
 3.618313    9.464E+01
 3.619303    9.643E+01
 3.619468    8.393E+01
 3.619468    1.196E+02
 3.620000    9.954E+01
 3.620000    1.291E+02
 3.621118    1.143E+02
 3.621943    1.125E+02
 3.622603    1.054E+02
 3.623593    1.089E+02
 3.624000    1.022E+02
 3.624748    1.071E+02
 3.625408    1.089E+02
 3.627000    8.899E+01
 3.627000    8.504E+01
 3.627718    9.464E+01
 3.627718    1.054E+02
 3.628543    9.643E+01
 3.629368    9.821E+01
 3.630192    8.214E+01
 3.631017    8.393E+01
 3.631182    1.107E+02
 3.632007    1.036E+02
 3.632997    9.643E+01
 3.633822    9.464E+01
 3.634317    8.929E+01
 3.635472    7.679E+01
 3.635967    8.929E+01
 3.636627    1.161E+02
 3.637287    1.000E+02
 3.638112    9.286E+01
 3.638937    8.750E+01
 3.639762    8.393E+01
 3.640422    7.321E+01
 3.640752    8.214E+01
 3.641082    9.821E+01
 3.641577    8.929E+01
 3.642401    8.571E+01
 3.642896    7.500E+01
 3.643886    7.143E+01
 3.644711    6.607E+01
 3.645000    5.503E+01
 3.645866    4.286E+01
 3.646031    1.054E+02
 3.646196    5.536E+01
 3.647021    1.375E+02
 3.647351    1.304E+02
 3.647516    1.107E+02
 3.647681    1.054E+02
 3.648176    1.107E+02
 3.648671    1.054E+02
 3.649331    8.571E+01
 3.649496    7.500E+01
 3.650156    7.857E+01
 3.650651    6.126E+01
 3.650651    1.018E+02
 3.651476    1.304E+02
 3.651806    1.179E+02
 3.652466    1.107E+02
 3.653000    1.037E+02
 3.653456    9.643E+01
 3.654445    9.643E+01
 3.655105    9.464E+01
 3.656000    9.341E+01
 3.656590    9.286E+01
 3.657085    1.000E+02
 3.657745    9.286E+01
 3.658240    8.929E+01
 3.659000    9.228E+01
 3.660000    9.219E+01
 3.660000    9.166E+01
 3.660000    9.159E+01
 3.661000    9.152E+01
 3.661540    8.571E+01
 3.662365    8.214E+01
 3.663000    8.631E+01
 3.663685    8.929E+01
 3.664180    8.750E+01
 3.664840    8.929E+01
 3.665665    8.571E+01
 3.666324    7.857E+01
 3.666819    8.036E+01
 3.667479    7.679E+01
 3.668304    7.321E+01
 3.668469    6.071E+01
 3.668964    7.857E+01
 3.669129    1.089E+02
 3.669789    1.036E+02
 3.670284    9.821E+01
 3.671274    1.018E+02
 3.672429    9.464E+01
 3.673089    1.000E+02
 3.673584    8.929E+01
 3.674244    9.464E+01
 3.674904    9.464E+01
 3.675399    9.821E+01
 3.676059    9.286E+01
 3.676554    8.571E+01
 3.677000    9.348E+01
 3.677709    9.643E+01
 3.678203    8.929E+01
 3.678533    1.018E+02
 3.679523    9.286E+01
 3.680348    9.286E+01
 3.681173    9.464E+01
 3.682163    9.464E+01
 3.682493    8.393E+01
 3.683483    1.107E+02
 3.683648    9.821E+01
 3.683813    7.857E+01
 3.684638    8.036E+01
 3.684968    9.286E+01
 3.685793    9.286E+01
 3.686783    9.821E+01
 3.687608    9.464E+01
 3.688268    8.750E+01
 3.688763    7.679E+01
 3.689258    9.286E+01
 3.690082    8.571E+01
 3.690412    7.321E+01
 3.691072    8.571E+01
 3.692062    8.393E+01
 3.692722    6.429E+01
 3.692887    7.679E+01
 3.692887    8.750E+01
 3.693217    9.464E+01
 3.694042    9.286E+01
 3.695032    9.107E+01
 3.695197    1.000E+02
 3.695857    8.571E+01
 3.696352    7.679E+01
 3.697177    8.036E+01
 3.697177    7.679E+01
 3.698000    7.992E+01
 3.698827    8.571E+01
 3.699157    7.679E+01
 3.699982    7.143E+01
 3.700477    7.143E+01
 3.700642    9.107E+01
 3.701632    9.643E+01
 3.701962    8.750E+01
 3.702951    8.393E+01
 3.704436    9.286E+01
 3.704931    7.143E+01
 3.705756    9.107E+01
 3.706251    7.321E+01
 3.706251    8.393E+01
 3.706416    6.250E+01
 3.707736    9.821E+01
 3.708066    8.214E+01
 3.708231    9.107E+01
 3.708891    7.857E+01
 3.709000    6.956E+01
 3.709716    6.964E+01
 3.710211    8.750E+01
 3.710706    7.387E+01
 3.711696    7.568E+01
 3.712191    5.766E+01
 3.712851    4.685E+01
 3.713000    5.712E+01
 3.713346    7.748E+01
 3.713346    1.676E+02
 3.713511    1.568E+02
 3.713511    1.387E+02
 3.714005    1.405E+02
 3.714170    1.297E+02
 3.714830    1.153E+02
 3.715490    1.297E+02
 3.715820    1.153E+02
 3.715985    9.730E+01
 3.716315    1.063E+02
 3.717140    1.009E+02
 3.717305    9.369E+01
 3.718130    9.189E+01
 3.718460    8.649E+01
 3.719285    8.468E+01
 3.719945    7.748E+01
 3.720110    8.649E+01
 3.720605    6.847E+01
 3.720935    7.928E+01
 3.721760    7.748E+01
 3.722255    6.667E+01
 3.722255    7.748E+01
 3.722750    6.847E+01
 3.722915    5.766E+01
 3.723245    4.685E+01
 3.723905    1.207E+02
 3.724070    8.288E+01
 3.724730    1.243E+02
 3.724895    1.153E+02
 3.725555    1.045E+02
 3.725555    9.009E+01
 3.726544    9.009E+01
 3.727204    8.468E+01
 3.727534    7.207E+01
 3.728029    7.568E+01
 3.728029    1.099E+02
 3.728689    1.135E+02
 3.728854    9.369E+01
 3.729514    1.009E+02
 3.730174    9.009E+01
 3.730999    8.468E+01
 3.731329    9.910E+01
 3.731824    8.829E+01
 3.732154    7.568E+01
 3.733144    7.568E+01
 3.733969    7.928E+01
 3.734464    7.387E+01
 3.735289    7.387E+01
 3.736114    7.207E+01
 3.736774    6.667E+01
 3.737104    5.586E+01
 3.737269    7.387E+01
 3.738258    7.027E+01
 3.738753    4.685E+01
 3.739248    7.568E+01
 3.739578    7.207E+01
 3.739908    1.063E+02
 3.739908    1.189E+02
 3.740403    9.009E+01
 3.740898    8.288E+01
 3.741228    7.748E+01
 3.741228    9.369E+01
 3.741723    6.126E+01
 3.741888    7.027E+01
 3.742218    9.910E+01
 3.742383    8.649E+01
 3.742878    7.568E+01
 3.743208    6.306E+01
 3.743538    1.423E+02
 3.743703    1.063E+02
 3.744033    6.306E+01
 3.744528    1.441E+02
 3.745023    1.279E+02
 3.745518    1.243E+02
 3.745848    1.117E+02
 3.746343    1.189E+02
 3.746673    1.063E+02
 3.747333    9.910E+01
 3.747828    9.369E+01
 3.747993    7.748E+01
 3.748158    1.027E+02
 3.748653    9.009E+01
 3.748983    1.009E+02
 3.749478    9.009E+01
 3.750302    8.829E+01
 3.751127    8.829E+01
 3.751952    7.568E+01
 3.751952    8.468E+01
 3.752282    7.928E+01
 3.753272    8.288E+01
 3.753767    7.748E+01
 3.754097    7.027E+01
 3.755087    1.063E+02
 3.755417    9.730E+01
 3.755747    9.009E+01
 3.756077    8.288E+01
 3.756407    9.550E+01
 3.758222    9.009E+01
 3.759047    8.829E+01
 3.759542    7.928E+01
 3.760037    8.829E+01
 3.760532    7.568E+01
 3.760697    8.829E+01
 3.761357    8.288E+01
 3.762181    8.288E+01
 3.762841    9.189E+01
 3.763336    7.568E+01
 3.764161    8.649E+01
 3.764326    7.568E+01
 3.764656    6.847E+01
 3.765316    7.027E+01
 3.766000    6.691E+01
 3.766306    5.586E+01
 3.766801    5.045E+01
 3.767296    9.910E+01
 3.767461    1.171E+02
 3.767626    1.117E+02
 3.767956    8.108E+01
 3.768121    9.730E+01
 3.768616    8.288E+01
 3.768616    1.063E+02
 3.768781    9.369E+01
 3.769441    1.297E+02
 3.769441    1.207E+02
 3.769771    1.117E+02
 3.770266    1.027E+02
 3.770596    8.649E+01
 3.771256    8.468E+01
 3.771421    1.009E+02
 3.772246    8.288E+01
 3.773071    1.009E+02
 3.773236    8.468E+01
 3.774390    9.910E+01
 3.774555    8.829E+01
 3.775380    9.009E+01
 3.775875    8.288E+01
 3.776205    6.847E+01
 3.776370    5.766E+01
 3.777000    1.357E+02
 3.777195    1.153E+02
 3.778515    1.045E+02
 3.779010    8.829E+01
 3.779340    1.279E+02
 3.779505    1.171E+02
 3.780000    1.099E+02
 3.780495    9.910E+01
 3.781320    9.910E+01
 3.782145    9.910E+01
 3.782970    1.027E+02
 3.783465    9.550E+01
 3.784125    8.649E+01
 3.784290    1.081E+02
 3.784620    6.667E+01
 3.784950    9.189E+01
 3.784950    1.207E+02
 3.785280    1.117E+02
 3.785445    1.027E+02
 3.786269    1.009E+02
 3.787094    9.730E+01
 3.787754    9.910E+01
 3.788414    9.910E+01
 3.788744    9.189E+01
 3.789569    9.550E+01
 3.789724    8.718E+01
 3.790718    8.718E+01
 3.791878    8.205E+01
 3.792210    8.376E+01
 3.792873    8.889E+01
 3.793702    8.376E+01
 3.794199    1.026E+02
 3.794696    1.060E+02
 3.795359    8.718E+01
 3.795691    5.299E+01
 3.796000    9.112E+01
 3.796000    8.379E+01
 3.796188    5.983E+01
 3.796519    1.094E+02
 3.797348    1.179E+02
 3.797348    9.915E+01
 3.798011    1.128E+02
 3.798011    9.402E+01
 3.798343    1.197E+02
 3.799006    8.547E+01
 3.799503    9.573E+01
 3.799669    8.034E+01
 3.799834    8.889E+01
 3.800331    8.205E+01
 3.800829    7.521E+01
 3.801492    9.744E+01
 3.801989    9.402E+01
 3.802155    8.718E+01
 3.802983    7.350E+01
 3.803812    8.718E+01
 3.804475    8.034E+01
 3.804475    9.402E+01
 3.804807    7.692E+01
 3.804807    9.231E+01
 3.805470    9.915E+01
 3.805635    9.060E+01
 3.806298    9.573E+01
 3.806630    8.889E+01
 3.807293    8.034E+01
 3.808000    8.827E+01
 3.808453    8.547E+01
 3.808785    7.863E+01
 3.809116    7.863E+01
 3.809448    8.205E+01
 3.809945    8.889E+01
 3.810276    8.376E+01
 3.810442    7.521E+01
 3.811271    7.350E+01
 3.811271    6.325E+01
 3.811934    1.385E+02
 3.812000    7.681E+01
 3.812431    1.350E+02
 3.812762    9.573E+01
 3.812762    7.179E+01
 3.812762    8.034E+01
 3.813260    6.325E+01
 3.813591    7.521E+01
 3.813757    1.077E+02
 3.814000    8.974E+01
 3.814420    1.128E+02
 3.815000    8.177E+01
 3.815000    8.631E+01
 3.815083    1.077E+02
 3.815580    9.060E+01
 3.816077    9.060E+01
 3.816575    8.889E+01
 3.817238    8.376E+01
 3.817901    8.376E+01
 3.818398    8.205E+01
 3.818895    7.521E+01
 3.819392    8.889E+01
 3.820055    8.034E+01
 3.820387    9.060E+01
 3.821050    7.863E+01
 3.821547    7.179E+01
 3.822044    6.838E+01
 3.822210    5.983E+01
 3.822707    4.957E+01
 3.822873    6.154E+01
 3.823204    1.231E+02
 3.823536    1.402E+02
 3.824033    1.248E+02
 3.824696    1.128E+02
 3.825028    1.043E+02
 3.825359    9.915E+01
 3.825856    1.077E+02
 3.826188    9.573E+01
 3.826851    7.521E+01
 3.827000    9.406E+01
 3.827017    8.718E+01
 3.827680    8.889E+01
 3.828177    9.231E+01
 3.828508    8.547E+01
 3.828840    8.205E+01
 3.829337    8.718E+01
 3.830000    9.230E+01
 3.830166    8.718E+01
 3.830663    8.376E+01
 3.831492    8.205E+01
 3.831989    8.889E+01
 3.832155    7.863E+01
 3.832652    7.521E+01
 3.832983    8.376E+01
 3.833149    7.692E+01
 3.834000    7.204E+01
 3.835000    6.828E+01
 3.835000    6.008E+01
 3.836000    9.044E+01
 3.836630    8.718E+01
 3.836961    9.744E+01
 3.837293    8.889E+01
 3.837624    7.692E+01
 3.838287    9.915E+01
 3.838287    8.889E+01
 3.838950    8.718E+01
 3.840000    8.946E+01
 3.840110    9.573E+01
 3.840773    8.547E+01
 3.842000    8.998E+01
 3.842000    7.767E+01
 3.842762    7.692E+01
 3.843591    7.009E+01
 3.843591    7.692E+01
 3.843757    6.325E+01
 3.844254    6.838E+01
 3.844751    8.376E+01
 3.845083    7.692E+01
 3.846000    7.973E+01
 3.846740    8.034E+01
 3.847072    7.179E+01
 3.847569    6.496E+01
 3.848000    8.775E+01
 3.848895    8.889E+01
 3.849061    1.026E+02
 3.849392    8.034E+01
 3.849558    8.889E+01
 3.850552    5.983E+01
 3.851215    6.496E+01
 3.851878    1.060E+02
 3.851878    7.863E+01
 3.852376    8.889E+01
 3.852541    7.863E+01
 3.853204    6.667E+01
 3.853370    8.034E+01
 3.853867    8.034E+01
 3.853867    8.718E+01
 3.853867    9.573E+01
 3.854530    9.060E+01
 3.854696    8.376E+01
 3.855028    1.179E+02
 3.855525    1.060E+02
 3.856851    1.026E+02
 3.857348    8.889E+01
 3.858177    1.026E+02
 3.858674    9.231E+01
 3.858840    9.744E+01
 3.859337    9.915E+01
 3.860000    9.915E+01
 3.860497    9.231E+01
 3.860829    8.547E+01
 3.861492    7.179E+01
 3.861492    8.718E+01
 3.862155    8.889E+01
 3.862983    8.889E+01
 3.863646    9.060E+01
 3.864641    9.573E+01
 3.864972    8.889E+01
 3.865304    8.718E+01
 3.865635    9.060E+01
 3.866133    8.718E+01
 3.866133    8.376E+01
 3.866961    8.376E+01
 3.867127    8.889E+01
 3.867790    8.376E+01
 3.868619    8.205E+01
 3.869282    7.521E+01
 3.870110    7.863E+01
 3.870442    8.205E+01
 3.871271    8.205E+01
 3.871436    6.838E+01
 3.871934    7.521E+01
 3.872099    8.205E+01
 3.872762    6.667E+01
 3.873094    5.983E+01
 3.873425    5.641E+01
 3.873923    7.521E+01
 3.873923    6.496E+01
 3.874586    8.718E+01
 3.875083    9.573E+01
 3.875249    8.205E+01
 3.875912    7.692E+01
 3.876906    6.325E+01
 3.876906    8.889E+01
 3.876906    7.350E+01
 3.877072    1.179E+02
 3.877569    1.060E+02
 3.878232    1.026E+02
 3.878232    9.402E+01
 3.879061    9.402E+01
 3.879227    7.692E+01
 3.880055    7.179E+01
 3.880552    6.496E+01
 3.880884    5.983E+01
 3.880884    1.282E+02
 3.881050    9.915E+01
 3.882044    1.333E+02
 3.882376    1.179E+02
 3.883536    1.248E+02
 3.884033    1.128E+02
 3.884365    1.214E+02
 3.884862    9.573E+01
 3.885000    8.443E+01
 3.885856    9.402E+01
 3.886354    8.718E+01
 3.886851    7.863E+01
 3.887514    1.179E+02
 3.887514    1.043E+02
 3.888343    1.043E+02
 3.889000    9.474E+01
 3.889669    9.573E+01
 3.889834    8.547E+01
 3.890331    9.915E+01
 3.890331    8.718E+01
 3.890663    7.179E+01
 3.891160    6.496E+01
 3.891657    5.812E+01
 3.891989    7.179E+01
 3.892155    4.615E+01
 3.892818    1.128E+02
 3.893149    1.231E+02
 3.893812    1.145E+02
 3.894144    9.744E+01
 3.894807    1.009E+02
 3.895635    9.915E+01
 3.895635    9.060E+01
 3.895801    1.043E+02
 3.896298    8.889E+01
 3.896961    9.402E+01
 3.897459    8.718E+01
 3.897956    8.205E+01
 3.898453    6.496E+01
 3.898785    7.179E+01
 3.899448    1.060E+02
 3.900110    1.060E+02
 3.900110    9.744E+01
 3.900442    8.889E+01
 3.900773    7.350E+01
 3.901271    8.205E+01
 3.901602    9.744E+01
 3.902597    1.077E+02
 3.903094    9.915E+01
 3.903425    1.128E+02
 3.903923    1.009E+02
 3.904586    8.547E+01
 3.904917    1.043E+02
 3.905746    1.179E+02
 3.906575    1.179E+02
 3.906740    1.060E+02
 3.907238    9.744E+01
 3.907238    1.077E+02
 3.907901    9.060E+01
 3.908398    8.205E+01
 3.908564    1.111E+02
 3.909558    1.214E+02
 3.910221    1.265E+02
 3.910387    1.077E+02
 3.911000    9.179E+01
 3.911547    9.744E+01
 3.911547    8.718E+01
 3.912376    9.060E+01
 3.913000    8.965E+01
 3.913370    9.060E+01
 3.914033    8.718E+01
 3.914530    9.402E+01
 3.914862    9.744E+01
 3.915525    8.376E+01
 3.916022    7.692E+01
 3.916022    8.889E+01
 3.916685    1.043E+02
 3.917017    9.060E+01
 3.917680    1.043E+02
 3.918011    9.060E+01
 3.918674    8.718E+01
 3.919006    7.350E+01
 3.919171    9.573E+01
 3.919503    1.128E+02
ENDDATA           1738
ENDSUBENT         1753
SUBENT        E1494011   20240503   20240505   20240505       E143
BIB                  6         11
REACTION  1(28-NI-60(P,TOT),,WID)
          2(28-NI-60(P,0),,J)
          3(28-NI-60(P,0),,L)
MISC-COL   (MISC) Reduced width calculated from Gamma(p) using
                  penetrabilities generated by Coulomb wave
                  functions
SAMPLE     (28-NI-60,ENR=0.9883)
ERR-ANALYS (DATA-ERR) No information on source of uncertainties
STATUS     (TABLE,,E.Arai+,J,NP/A,256,127,1976) Table 2
HISTORY    (20240319A) MA: REACTION/2,3: SF3 -> 0; STATUS:
                       modified.
ENDBIB              11
NOCOMMON             0          0
DATA                 6         36
EN-RES     DATA      1DATA-ERR  1DATA      2DATA      3MISC
MEV        EV         EV         NO-DIM     NO-DIM     KEV
     3.1030        40.                   0.5         1.      0.474
     3.1705       250.                   0.5         1.      2.579
     3.1998        35.                   0.5         1.      0.341
     3.2562        30.                   1.5         1.      0.262
     3.3269        50.                   0.5         1.      0.383
     3.3488        40.                   0.5         1.      0.294
     3.3705        40.                   0.5         1.      0.283
     3.3917        40.                   0.5         1.      0.273
     3.3988        20.                   1.5         1.      0.135
     3.4210        15.                   0.5         1.     0.0972
     3.4227        40.                   0.5         1.      0.258
     3.4300        40.                   0.5         1.      0.255
     3.4793        40.                   0.5         1.      0.235
     3.5077        40.                   0.5         1.      0.224
     3.5302        40.                   0.5         1.      0.216
     3.5482        20.                   1.5         1.      0.105
     3.5660        40.                   0.5         1.      0.204
     3.6203        60.                   0.5         1.      0.281
     3.6239        40.                   0.5         1.      0.187
     3.6755      109.4       10.3        0.5         1.      0.472
     3.6872       56.4        7.9        0.5         1.      0.239
     3.7090        80.                   1.5         1.      0.329
     3.7170        60.                   1.5         1.      0.244
     3.7200       11.1        0.7        4.5         5.      8.009
     3.7293        7.1        0.5        4.5         5.      5.017
     3.7298      154.8        5.7        0.5         1.      0.617
     3.7344        6.7        0.5        4.5         5.      4.681
     3.7391     1222.0       54.0        0.5         1.      4.807
     3.7494      536.5       35.6        0.5         1.      2.080
     3.7594      110.0        7.0        1.5         1.      0.420
     3.8541       19.1        3.3        1.5         1.     0.0641
     3.8949        80.                   1.5         1.      0.254
     3.9573        70.                   0.5         1.      0.205
     3.9971        40.                   0.5         1.      0.112
     3.9999       160.                   0.5         1.      0.445
     4.0084        60.                   0.5         1.      0.165
ENDDATA             38
ENDSUBENT           54
SUBENT        E1494012   20240503   20240505   20240505       E143
BIB                  6         11
REACTION  1(28-NI-62(P,TOT),,WID)
          2(28-NI-62(P,0),,J)
          3(28-NI-62(P,0),,L)
MISC-COL   (MISC) Reduced width calculated from Gamma(p) using
                  penetrabilities generated by Coulomb wave
                  functions
SAMPLE     (28-NI-62,ENR=0.9993)
ERR-ANALYS (DATA-ERR) No information on source of uncertainties
STATUS     (TABLE,,E.Arai+,J,NP/A,256,127,1976) Table 3
HISTORY    (20240319A) MA: REACTION/2,3: SF3 -> 0; STATUS:
                       modified.
ENDBIB              11
NOCOMMON             0          0
DATA                 6         49
EN-RES     DATA      1DATA-ERR  1DATA      2DATA      3MISC
MEV        EV         EV         NO-DIM     NO-DIM     KEV
     2.9935       20.0        6.0        1.5         1.      0.360
     3.0357       24.9        3.8        1.5         1.      0.409
     3.0377        5.1        3.5        1.5         1.      0.083
     3.0443       16.8        3.9        1.5         1.      0.271
     3.0460       73.4        4.8        1.5         1.      1.177
     3.0496       15.1        4.0        1.5         1.      0.240
     3.0520       21.1        3.6        1.5         1.      0.334
     3.0598       70.9        4.3        1.5         1.      1.103
     3.0618       19.2        3.4        1.5         1.      0.298
     3.1328        30.                   0.5         1.      0.400
     3.2020        30.                   0.5         1.      0.347
     3.2072        30.                   0.5         1.      0.344
     3.2932        10.                   1.5         1.      0.097
     3.2942        12.                   1.5         1.      0.116
     3.2950        63.                   0.5         1.      0.609
     3.3202        16.                   0.5         1.      0.147
     3.3526        40.                   0.5         1.      0.348
     3.4407        66.                   0.5         1.      0.490
     3.4710       68.8        7.0        0.5         1.      0.485
     3.4824       82.1       11.6        0.5         1.      0.568
     3.5000      170.4       15.2        0.5         1.      1.145
     3.5008       66.3       13.5        0.5         1.      0.445
     3.5048       85.6       11.1        0.5         1.      0.570
     3.5088      104.2       10.0        0.5         1.      0.690
     3.5097      191.0       12.7        0.5         1.      1.263
     3.5166      207.0       13.0        0.5         1.      1.353
     3.5196      125.4       10.6        0.5         1.      0.815
     3.5293      160.0       12.9        0.5         1.      1.024
     3.5302      511.5       18.9        0.5         1.      3.268
     3.5326       50.9        8.2        0.5         1.      0.324
     3.5422       41.0        5.2        1.5         1.      0.257
     3.5496       30.6        6.9        0.5         1.      0.189
     3.5532       50.1        7.9        0.5         1.      0.308
     3.5660        25.                   0.5         1.      0.151
     3.6178        35.                   0.5         1.      0.194
     3.7482        40.                   0.5         1.      0.183
     3.7552         4.                   4.5         5.
     3.7600       32.1        7.1        0.5         1.      0.144
     3.7613       12.5        4.4        1.5         1.      0.056
     3.7681       45.5        6.2        0.5         1.      0.202
     3.7875         4.                   4.5         5.
     3.7913         4.                   4.5         5.
     3.7957         4.                   4.5         5.
     3.7981       26.5        3.2        1.5         1.      0.113
     3.8053       21.7        3.9        1.5         1.      0.091
     3.8053         4.                   4.5         5.
     3.8274       23.4        4.1        1.5         1.      0.095
     3.8545       72.0        7.3        0.5         1.      0.283
     3.8614       81.7        7.3        0.5         1.      0.318
ENDDATA             51
ENDSUBENT           67
ENDENTRY            12
