ENTRY            67035     850401              20050926       0000
SUBENT        67035001     850401              20050926       0000
BIB                 10         15
INSTITUTE  (2ZZZGEL)
REFERENCE  (C,78HARWELL,,701,7809)
AUTHOR     (P.STAVELOZ,E.CORNELIS,L.MEWISSEN,F.POORTMANS,
            G.ROHR,R.SHELLEY,T.VAN DER VEEN)
TITLE      NEUTRON RESONANCE PARAMETERS OF PD-105 AND PD-108.
FACILITY   (LINAC) CBNM LINAC,EURATOM,GEEL
METHOD     (TOF) TIME OF FLIGHT
DETECTOR   (SCIN) HELIUM-3 GAS SCINTILLATORS FOR TRANSMISSION
            AND SCATTERING.
           LIQUID DEUTERATED BENZENE DETECTOR USED FOR CAPTURE
            MEASUREMENTS.
ERR-ANALYS QUOTED ERRORS DUE TO STATISTICS. 4% SYSTEMATIC
            UNCERTAINTY NOT INCLUDED.
STATUS     (PRELM)
HISTORY    (790531C)
ENDBIB              15
NOCOMMON             0          0
ENDSUBENT           18
SUBENT        67035003     850401              20050926       0000
BIB                  3         10
REACTION  1(46-PD-108(N,0),,EN)
          2(46-PD-108(N,EL),,WID,,2G)
          3(46-PD-108(N,G),,WID)
          4(46-PD-108(N,0),,L)
ANALYSIS   (MLA) TRANSMISSION DATA WAS ANALYZED WITH MULTILEVEL
            BREIT-WIGNER FITTING ROUTINE
           (AREA) CAPTURE DATA WAS ANALYZED WITH A MODIFIED
            TACASI AREA ANALYSIS.
CORRECTION CAPTURE DATA WAS CORRECTED FOR DOPPLER AND RESOLUTION
            EFFECTS, AND MULTIPLE SCATTERING.
ENDBIB              10
NOCOMMON             0          0
DATA                 6         61
DATA      1DATA      2DATA-ERR  2DATA      3DATA-ERR  3DATA      4
EV         MILLI-EV   MILLI-EV   MILLI-EV   MILLI-EV   NO-DIM
 5.3200E+01 1.1700E+02 8.0000E+00 9.1500E+01 3.0000E-01
 9.0900E+01 1.8370E+02 7.0000E-01
 1.1280E+02 2.3000E+00 3.0000E-02
 1.5000E+02 1.6000E-01 2.0000E-02                       1.0000E+00
 3.0350E+02 3.9100E+00 4.0000E-02
 4.1180E+02 8.0000E-01 4.0000E-02
 4.2780E+02 4.0250E+02 4.1000E+00 7.7100E+01 3.0000E-01
 4.8130E+02 6.1000E-01 5.0000E-02
 5.4550E+02 5.9000E+00 8.0000E-02
 6.3660E+02 4.6210E+02 6.4000E+01 7.6200E+01 4.0000E-01
 6.4320E+02 2.1300E+00 7.0000E-02
 7.9940E+02 7.1700E+00 1.2000E-01
 8.4540E+02 1.5500E+00 1.1000E-01                       1.0000E+00
 9.0620E+02 5.8100E+02 1.2000E+01
 9.5690E+02 1.0180E+03 1.5000E+01
 9.6240E+02 4.7100E+01 4.0000E-01
 1.0849E+03 1.1000E+01 5.0000E+00                       1.0000E+00
 1.2159E+03 4.1800E+02 1.3000E+01
 1.3633E+03 2.4000E+01 3.0000E+00                       1.0000E+00
 1.4375E+03 1.3900E+02 7.0000E+00
 1.4800E+03 5.0000E+00 1.5000E+00
 1.5273E+03 2.0000E+00 1.7000E+00
 1.6575E+03 1.5580E+03 2.3000E+01 7.8000E+01 6.0000E+00
 1.7156E+03 7.6500E+01 9.0000E+00
 2.0084E+03 1.0000E+01 3.0000E+00
 2.0152E+03 8.1300E+02 2.3000E+01 7.6700E+01 5.0000E+00
 2.1250E+03 8.0000E+00 3.0000E+00
 2.2960E+03 5.0000E+01 7.0000E+00                       1.0000E+00
 2.4570E+03
 2.5046E+03 8.2300E+02 3.0000E+01 6.8300E+01 5.7000E+00
 2.5296E+03 4.0300E+01 1.7000E+00                       1.0000E+00
 2.6653E+03
 2.7467E+03 5.2700E+02 3.0000E+01 7.0000E+01 7.0000E+00
 2.8310E+03 4.3400E+01 6.4000E+00
 2.8769E+03 4.5300E+01 6.7000E+00                       1.0000E+00
 2.9209E+03 3.7200E+01 9.3000E+00
 3.0631E+03 2.8300E+02 3.0000E+01 7.7300E+01 8.7000E+00
 3.1380E+03 9.8000E+01 2.7000E+01
 3.1690E+03 1.2070E+03 4.4000E+01
 3.2284E+03 6.0000E+00 5.0000E+00
 3.2715E+03 1.1900E+02 3.2000E+01
 3.2995E+03 2.2000E+02 3.2000E+01 9.7000E+01 1.2000E+01
 3.5555E+03 3.3500E+01 1.1000E+01
 3.6264E+03 1.1700E+03 5.5000E+01 7.8600E+01 9.0000E+00
 3.7348E+03 1.0400E+01 6.0000E+00
 3.8337E+03
 3.8854E+03 1.0900E+01 7.0000E+00                       1.0000E+00
 4.0105E+03
 4.0997E+03
 4.3949E+03 3.2280E+03 9.9000E+01 8.1700E+01 1.4500E+01
 4.4240E+03
 4.4940E+03 2.3500E+02 5.8000E+01 7.5300E+01 1.4000E+01
 4.5627E+03
 4.6570E+03
 4.7016E+03 7.8000E+02 8.0000E+01 8.4000E+01 1.0000E+01
 4.7248E+03
 4.8159E+03                                             1.0000E+00
 4.8428E+03 2.0700E+02 6.5000E+01 7.5700E+01 1.7500E+01
 4.9819E+03
 5.0509E+03                                             1.0000E+00
 5.0871E+03 1.8760E+03 1.0200E+02 7.9700E+01 1.4500E+01
ENDDATA             63
ENDSUBENT           78
ENDENTRY             2
