ENTRY            21065   19801103              20050926       0000
SUBENT        21065001   19801103              20050926       0000
BIB                 12         20
INSTITUTE  (2UK HAR)
REFERENCE  (J,JNE,3,28,56)
           (R,NRDC-81,,55)
AUTHOR     (N.J.PATTENDEN)
TITLE      -THE SLOW NEUTRON TOTAL CROSS SECTION OF U-233 -.
FACILITY   (CHOPS) SLOW CHOPPER.
           (SPECC) CRYSTAL SPECTROMETER.
INC-SOURCE (REAC ) BEPO REACTOR.
SAMPLE     .OXIDE SAMPLE, U0(X) WHERE X ESTIMATED AS 2.05 TO 2.10.
            METAL SAMPLE, AS DISC IN COPPER CONTAINER, ISOTOPIC
            ANALYSIS SHOWED 0.33 PC U-234, 0.04 PC U-238 AND LESS
            THAN 0.02 PC U-235. THICKNESS 0.004732 ATOMS/B.
METHOD     (TOF  ) TIME OF FLIGHT.
DETECTOR   (SCIN ) NO DETAILS.
STATUS     (NDD  )
HISTORY    (790822T)
           (790918E)
           (800206A) SAMPLE AND ERR-ANALYSIS TEXT CHANGED.
           (800213E)
ERR-ANALYS .STANDARD ERRORS QUOTED FOR EACH SAMPLE DATA.
ENDBIB              20
NOCOMMON             0          0
ENDSUBENT           23
SUBENT        21065002   19800213              20050926       0000
BIB                  4          4
REACTION   (92-U-233(N,TOT),,SIG)
COMMENT    .SLOW CHOPPER DATA.
STATUS     (NDD  )
HISTORY    (800206A) ERROR COLUMN ADDED.
ENDBIB               4
COMMON               1          3
DATA-ERR
B
 3.0000E+00
ENDCOMMON            3
DATA                 2        264
EN         DATA
MEV        B
 1.5680E-09 2.4040E+03
 1.7210E-09 2.2060E+03
 1.8990E-09 2.1340E+03
 2.0910E-09 2.1640E+03
 2.1070E-09 2.1000E+03
 2.2070E-09 2.0680E+03
 2.3320E-09 1.9970E+03
 2.3480E-09 1.9520E+03
 2.4680E-09 1.9440E+03
 2.6130E-09 1.8360E+03
 2.6360E-09 1.8510E+03
 2.7760E-09 1.8200E+03
 2.8580E-09 1.6890E+03
 3.0440E-09 1.8140E+03
 3.2440E-09 1.6420E+03
 3.4640E-09 1.5630E+03
 3.7130E-09 1.6170E+03
 3.9900E-09 1.6370E+03
 4.1040E-09 1.4920E+03
 4.4260E-09 1.4280E+03
 4.7800E-09 1.4210E+03
 5.1880E-09 1.3410E+03
 5.6520E-09 1.3290E+03
 6.1770E-09 1.1830E+03
 8.0340E-09 1.0900E+03
 8.4690E-09 1.0490E+03
 8.9370E-09 1.0110E+03
 9.4460E-09 1.0390E+03
 9.9990E-09 9.7000E+02
 1.0600E-08 9.6000E+02
 1.0910E-08 9.4800E+02
 1.1600E-08 9.3500E+02
 1.2360E-08 8.7300E+02
 1.3190E-08 8.7700E+02
 1.4110E-08 8.4500E+02
 1.5140E-08 8.1800E+02
 1.5690E-08 8.1500E+02
 1.6890E-08 7.5800E+02
 1.8240E-08 7.1500E+02
 1.9750E-08 7.3300E+02
 2.1450E-08 6.9700E+02
 2.3390E-08 6.4300E+02
 2.4480E-08 6.0600E+02
 2.4570E-08 6.1000E+02
 2.6850E-08 5.5800E+02
 2.6960E-08 5.6800E+02
 2.9580E-08 5.5300E+02
 2.9700E-08 5.4800E+02
 3.1680E-08 6.0000E+02
 3.1740E-08 5.2700E+02
 3.2770E-08 5.2800E+02
 3.2900E-08 5.1800E+02
 3.3360E-08 5.9200E+02
 3.3450E-08 5.0700E+02
 3.5200E-08 5.7200E+02
 3.5280E-08 5.0400E+02
 3.5900E-08 5.4000E+02
 3.6480E-08 4.8600E+02
 3.6650E-08 4.7200E+02
 3.7180E-08 5.5300E+02
 3.7280E-08 4.8500E+02
 3.8800E-08 4.9100E+02
 3.9100E-08 5.0700E+02
 3.9350E-08 4.8400E+02
 3.9440E-08 4.8500E+02
 4.0700E-08 4.8100E+02
 4.0860E-08 4.7600E+02
 4.1070E-08 4.5300E+02
 4.1720E-08 5.2700E+02
 4.1810E-08 4.6200E+02
 4.2500E-08 5.2300E+02
 4.2600E-08 4.7200E+02
 4.3870E-08 4.7800E+02
 4.4700E-08 4.6300E+02
 4.5950E-08 5.3100E+02
 4.6660E-08 4.5200E+02
 4.6900E-08 4.4400E+02
 4.8320E-08 4.7900E+02
 4.9300E-08 4.3600E+02
 4.9700E-08 4.3800E+02
 5.0850E-08 4.1600E+02
 5.1000E-08 4.3300E+02
 5.1500E-08 4.7400E+02
 5.3080E-08 4.1600E+02
 5.3620E-08 3.5100E+02
 5.3700E-08 4.1800E+02
 5.6600E-08 4.0900E+02
 5.6630E-08 3.9240E+02
 5.6810E-08 4.0300E+02
 5.9890E-08 4.1700E+02
 5.9900E-08 3.9100E+02
 6.0910E-08 3.9700E+02
 6.3300E-08 3.8100E+02
 6.5150E-08 3.7260E+02
 6.7230E-08 3.3920E+02
 6.7300E-08 3.7500E+02
 7.0100E-08 3.7300E+02
 7.0260E-08 3.6580E+02
 7.1450E-08 3.6940E+02
 7.1500E-08 3.6600E+02
 7.2700E-08 3.6020E+02
 7.4200E-08 3.7800E+02
 7.4700E-08 3.5600E+02
 7.5930E-08 3.5840E+02
 7.6000E-08 3.4860E+02
 7.6110E-08 3.4480E+02
 7.7000E-08 3.7160E+02
 7.7700E-08 3.5080E+02
 7.9000E-08 3.5500E+02
 7.9600E-08 3.4500E+02
 8.0500E-08 3.3950E+02
 8.1150E-08 3.3660E+02
 8.2000E-08 3.5160E+02
 8.2200E-08 3.3400E+02
 8.2380E-08 3.1440E+02
 8.4200E-08 3.3180E+02
 8.5000E-08 3.3700E+02
 8.5800E-08 3.5240E+02
 8.6810E-08 3.4120E+02
 8.7000E-08 3.4800E+02
 8.8000E-08 3.3480E+02
 8.9620E-08 3.1600E+02
 9.0000E-08 3.2600E+02
 9.1000E-08 3.2300E+02
 9.2000E-08 3.0860E+02
 9.3050E-08 3.3500E+02
 9.4000E-08 3.1080E+02
 9.6000E-08 3.1500E+02
 9.7800E-08 3.0900E+02
 9.7950E-08 3.1160E+02
 9.8000E-08 3.0140E+02
 1.0000E-07 3.0760E+02
 1.0130E-07 3.0280E+02
 1.0200E-07 3.0260E+02
 1.0220E-07 3.1200E+02
 1.0500E-07 2.9480E+02
 1.0700E-07 2.9260E+02
 1.0800E-07 2.9120E+02
 1.1000E-07 3.0140E+02
 1.1040E-07 3.9200E+02
 1.1140E-07 2.9520E+02
 1.1600E-07 2.9060E+02
 1.1900E-07 2.9220E+02
 1.1940E-07 2.8150E+02
 1.2290E-07 2.8340E+02
 1.2500E-07 2.7920E+02
 1.2960E-07 2.7100E+02
 1.3000E-07 2.7680E+02
 1.3600E-07 2.6880E+02
 1.3640E-07 2.6080E+02
 1.4100E-07 2.5760E+02
 1.4100E-07 2.7700E+02
 1.4800E-07 2.6240E+02
 1.5230E-07 2.5460E+02
 1.5300E-07 2.6040E+02
 1.5400E-07 2.6400E+02
 1.6000E-07 2.6000E+02
 1.6250E-07 2.5780E+02
 1.6700E-07 2.5460E+02
 1.7090E-07 2.7980E+02
 1.7700E-07 2.4580E+02
 1.7900E-07 2.5700E+02
 1.8400E-07 2.3660E+02
 1.9500E-07 2.3480E+02
 1.9800E-07 2.4520E+02
 2.0400E-07 2.4260E+02
 2.1600E-07 2.3260E+02
 2.2000E-07 2.4040E+02
 2.4000E-07 2.2200E+02
 2.4600E-07 2.3540E+02
 2.5500E-07 2.2260E+02
 2.7200E-07 2.1280E+02
 2.7600E-07 1.9930E+02
 3.0400E-07 2.0060E+02
 3.5000E-07 1.7160E+02
 4.0500E-07 1.8730E+02
 4.6500E-07 1.6980E+02
 5.5500E-07 1.6380E+02
 6.6000E-07 1.5090E+02
 8.1000E-07 1.4920E+02
 1.0000E-06 1.7100E+02
 1.2300E-06 2.1460E+02
 1.2600E-06 2.4740E+02
 1.2900E-06 2.7020E+02
 1.3100E-06 2.8220E+02
 1.3700E-06 3.1280E+02
 1.4100E-06 3.5940E+02
 1.4700E-06 3.9140E+02
 1.4900E-06 4.7200E+02
 1.5400E-06 4.4900E+02
 1.5700E-06 5.5000E+02
 1.6200E-06 5.7100E+02
 1.6600E-06 7.2300E+02
 1.7100E-06 7.8100E+02
 1.7600E-06 1.0630E+03
 1.8100E-06 9.0400E+02
 1.8600E-06 7.2800E+02
 1.8600E-06 8.0500E+02
 1.8600E-06 9.1300E+02
 1.9000E-06 6.4700E+02
 1.9500E-06 5.4300E+02
 1.9600E-06 6.5400E+02
 1.9700E-06 6.0000E+02
 1.9800E-06 4.4200E+02
 2.0100E-06 4.1100E+02
 2.0600E-06 3.6420E+02
 2.0600E-06 4.6100E+02
 2.0800E-06 3.8740E+02
 2.1100E-06 3.9000E+02
 2.1600E-06 4.6300E+02
 2.2100E-06 5.2600E+02
 2.2100E-06 6.1400E+02
 2.2800E-06 4.6800E+02
 2.2900E-06 6.0700E+02
 2.3500E-06 3.2380E+02
 2.3500E-06 4.8800E+02
 2.3500E-06 5.0200E+02
 2.3700E-06 2.5140E+02
 2.4200E-06 1.9480E+02
 2.4700E-06 1.5260E+02
 2.5000E-06 1.7670E+02
 2.5400E-06 1.1030E+02
 2.6800E-06 8.6000E+01
 2.9400E-06 8.0900E+01
 3.2400E-06 1.2010E+02
 3.3800E-06 1.4220E+02
 3.5800E-06 1.6600E+02
 3.6200E-06 1.7100E+02
 3.6900E-06 1.9900E+02
 3.7200E-06 1.6530E+02
 3.7900E-06 1.3240E+02
 3.8100E-06 1.3690E+02
 3.9000E-06 1.0660E+02
 4.0000E-06 8.7700E+01
 4.1600E-06 9.0200E+01
 4.3700E-06 1.0510E+02
 4.6500E-06 1.1440E+02
 4.6600E-06 1.4120E+02
 4.7500E-06 1.2470E+02
 4.8500E-06 1.6160E+02
 5.0200E-06 1.1070E+02
 5.0200E-06 1.2470E+02
 5.2000E-06 1.0350E+02
 5.4300E-06 1.0130E+02
 5.7000E-06 1.2470E+02
 6.0500E-06 1.4100E+02
 6.3000E-06 1.8790E+02
 6.4200E-06 2.0520E+02
 6.5700E-06 1.9330E+02
 6.5800E-06 2.5760E+02
 6.6000E-06 2.7340E+02
 6.8500E-06 1.8990E+02
 7.1000E-06 2.1400E+02
 7.1500E-06 1.4810E+02
 7.4500E-06 1.1730E+02
 7.8000E-06 6.9000E+01
 8.6000E-06 7.2800E+01
 9.0000E-06 7.9000E+01
 9.5000E-06 1.2120E+02
 9.7000E-06 1.3300E+02
 1.0200E-05 1.4800E+02
 1.0200E-05 1.6180E+02
 1.0750E-05 2.0240E+02
 1.1400E-05 1.8500E+02
ENDDATA            266
ENDSUBENT          279
SUBENT        21065003   19790918              20050926       0000
BIB                  2          2
REACTION   (92-U-233(N,TOT),,SIG)
STATUS     (NDD  )
ENDBIB               2
NOCOMMON             0          0
DATA                 3          1
EN         DATA       DATA-ERR
EV         B          B
 2.5300E-02 5.9000E+02 1.5000E+01
ENDDATA              3
ENDSUBENT           10
SUBENT        21065004   19800213              20050926       0000
BIB                  4          4
REACTION   (92-U-233(N,TOT),,SIG) TOTAL CROSS SECTION.
COMMENT    .CRYSTAL SPECTROMETER DATA.
STATUS     (NDD  ) DATA FROM NRDC-81.
HISTORY    (800206T)
ENDBIB               4
COMMON               1          3
DATA-ERR
B
 3.0000E+00
ENDCOMMON            3
DATA                 2         99
EN         DATA
MEV        B
 3.7000E-05 7.3600E+01
 3.7200E-05 7.5100E+01
 3.7400E-05 6.7400E+01
 3.7600E-05 5.1000E+01
 3.7800E-05 5.4700E+01
 3.8000E-05 4.8600E+01
 3.8200E-05 3.7100E+01
 3.8400E-05 2.2100E+01
 3.8600E-05 2.0500E+01
 3.9000E-05 3.3300E+01
 3.9300E-05 3.6500E+01
 3.9500E-05 4.6800E+01
 3.9700E-05 5.4500E+01
 3.9900E-05 5.9700E+01
 4.0200E-05 5.7000E+01
 4.0400E-05 6.1400E+01
 4.0600E-05 5.0500E+01
 4.0800E-05 5.6700E+01
 4.1000E-05 4.9200E+01
 4.1300E-05 4.9900E+01
 4.1600E-05 3.5000E+01
 4.1800E-05 3.6300E+01
 4.2000E-05 2.6800E+01
 4.2300E-05 5.5000E+01
 4.2500E-05 5.8900E+01
 4.2700E-05 5.5900E+01
 4.3000E-05 2.5200E+01
 4.3000E-05 3.5000E+01
 4.3200E-05 2.7000E+01
 4.3500E-05 3.5800E+01
 4.3800E-05 2.3900E+01
 4.4000E-05 3.8600E+01
 4.4300E-05 2.6800E+01
 4.4500E-05 2.0000E+01
 4.4700E-05 3.1100E+01
 4.5300E-05 2.2900E+01
 4.5600E-05 2.7000E+01
 4.5900E-05 4.4200E+01
 4.6200E-05 4.3900E+01
 4.6500E-05 3.9800E+01
 4.6700E-05 3.9800E+01
 4.7000E-05 3.6800E+01
 4.7300E-05 3.4600E+01
 4.7500E-05 4.2100E+01
 4.7800E-05 4.4700E+01
 4.8100E-05 5.3100E+01
 4.8500E-05 7.0000E+01
 4.8900E-05 1.0190E+02
 4.9100E-05 1.0570E+02
 4.9400E-05 6.8300E+01
 4.9800E-05 3.7700E+01
 5.0000E-05 3.4800E+01
 5.0300E-05 3.8400E+01
 5.0700E-05 3.4800E+01
 5.1000E-05 4.2100E+01
 5.1300E-05 2.0000E+01
 5.1700E-05 4.1900E+01
 5.2000E-05 2.1600E+01
 5.2300E-05 2.3100E+01
 5.2600E-05 5.3500E+01
 5.3000E-05 5.0200E+01
 5.3400E-05 6.2900E+01
 5.3800E-05 7.0900E+01
 5.4000E-05 9.6500E+01
 5.4400E-05 9.2900E+01
 5.4900E-05 9.9600E+01
 5.5100E-05 8.9100E+01
 5.5400E-05 7.9000E+01
 5.5600E-05 9.4500E+01
 5.6100E-05 9.8500E+01
 5.6500E-05 1.2080E+02
 5.6900E-05 1.1340E+02
 5.7400E-05 9.7900E+01
 5.7700E-05 9.9900E+01
 5.8100E-05 7.7600E+01
 5.8500E-05 7.7100E+01
 5.8800E-05 6.4800E+01
 5.9200E-05 3.4300E+01
 5.9600E-05 2.2300E+01
 6.0100E-05 2.4400E+01
 6.0600E-05 3.4800E+01
 6.1000E-05 5.3100E+01
 6.1400E-05 7.3000E+01
 6.1900E-05 6.7100E+01
 6.2300E-05 6.5100E+01
 6.2600E-05 5.8900E+01
 6.3200E-05 4.8800E+01
 6.3600E-05 4.9400E+01
 6.4100E-05 6.6000E+01
 6.4600E-05 7.4800E+01
 6.5000E-05 7.1300E+01
 6.5300E-05 6.3700E+01
 6.5900E-05 4.1600E+01
 6.6400E-05 3.9300E+01
 6.6900E-05 2.8900E+01
 6.7400E-05 3.0000E+01
 6.7900E-05 3.4600E+01
 6.8300E-05 4.4400E+01
 6.8900E-05 1.3670E+02
ENDDATA            101
ENDSUBENT          114
ENDENTRY             4
