ENTRY            40616   20030523   20040112
SUBENT        40616001   20030523   20040112
BIB                 11         29
TITLE       Fission Cross-Sections Measurement For U-233 and U-235
            In the Energy Range  0.1 - 100 KeV and Cross-Section
            Ratio Measurement  U-233/U-235  Up to  2. MeV
AUTHOR     (T.A.MOSTOVAYA, V.I.MOSTOVOY, S.A.BIRYUKOV,
           A.A.OSOCHNIKOV, A.V.TSVETKOV)
INSTITUTE  (4RUSKUR)
REFERENCE  (C,80KIEV,3,30,198009)  Data For U-233, U-235 Cross-
                                 Sections.  Graph For U-235/U-233
           (R,IAE-2627,1976)       Experimental Details
PART-DET  A(FF)
          B(N)
DETECTOR  A(IOCH)   Ionization Chamber, Resolution  20 Nsec
          B(HE3SP)  He-3 Counters 'CM-12'
FACILITY   (LINAC)  Electron Linear Accelerator 'FAKEL'- Torch
                    Electron Energy is 60 MeV, Pulse Duration =
                    50 Nsec, Current = 1.2 Amperes,
                    Pulse Frequency  460 and 690  Hz
METHOD     (TOF)    Flight Base Until Ioniz.Chamber is  26 cm
CORRECTION  Recycling Neutrons were Eliminated by the Borous-10
            Plate  0.15 Gramm/cm2 Thickness, Neutron
            Background  was Measured by Neans of the Black
            Resonance Filters (AG, CO, MN) And was Found to be
            Less Than  1.5 Percent For Energies Higher Than 10 KeV
ERR-ANALYS (DATA-ERR)  Not Specified
HISTORY    (19811210C) Compiled at the Center - CJD
           (19821010U)
           (20021128A) Date is Corrected
           (20030523A) CORRECTED AT CJD - SAN 005 DELETED
                       SAN 003 CORRECTED
ENDBIB              29
NOCOMMON
ENDSUBENT           32
SUBENT        40616002   20021128   20030502
BIB                  4          5
REACTION   (92-U-235(N,F),,SIG,,AV) Averaged on the Energy Range
MONITOR    (92-U-235(N,F),,SIG,,AV) Averaged  on the 0.2 - 1.0 KeV
                                    Energy Range
SAMPLE      Oxide U-O(8), Enrichment 99 Percent,Mass 0.8 Gram
STATUS     (DEP,40616004)
ENDBIB               5
COMMON               3          3
EN-NRM-MIN EN-NRM-MAX MONIT
KEV        KEV        B
        0.2         1.     13.704
ENDCOMMON            3
DATA                 4         26
EN-MIN     EN-MAX     DATA       DATA-ERR
KEV        KEV        B          B
        0.1        0.2      21.88       .04
        0.2        0.3      20.87       .04
        0.3        0.4      12.97       .04
        0.4        0.5      14.04       .06
        0.5        0.6      15.33       .06
        0.6        0.7      11.7        .06
        0.7        0.8      11.3        .06
        0.8        0.9      8.37        .05
        0.9        1.       7.6         .05
        1.         2.       7.33        .02
        2.         3.       5.29        .02
        3.         4.       4.85        .03
        4.         5.       4.34        .03
        5.         6.       3.94        .03
        6.         7.       3.45        .03
        7.         8.       3.28        .02
        8.         9.       3.          .02
        9.        10.       3.09        .02
       10.        20.       2.49        .01
       20.        30.       2.09        .01
       40.        50.       1.84        .01
       50.        60.       1.82        .01
       60.        70.       1.74        .01
       70.        80.       1.67        .01
       80.        90.       1.6         .02
       90.       100.       1.51        .01
ENDDATA             28
ENDSUBENT           42
SUBENT        40616003   20030523   20040112
BIB                  5          6
REACTION   (92-U-233(N,F),,SIG,,AV) Averaged on the Energy Intervl
SAMPLE       Oxide U-O8, Enrichment 97 Percent
MONITOR    (92-U-235(N,F),,RI,,LIM)
MONIT-REF  (,R.GWIN+,J,NSE,59,79,1976)
STATUS     (DEP,40616004)
           .FROM TABLE 2 OF MAIN REFERENCE
ENDBIB               6
COMMON               3          3
EN-NRM-MIN EN-NRM-MAX MONIT
EV         EV         B
      166.9     1223.3      32.95
ENDCOMMON            3
DATA                 4          9
EN-MIN     EN-MAX     DATA       DATA-ERR
KEV        KEV        B          B
         5.        10.       4.32        .04
        10.        20.       3.15        .03
        20.        30.       2.95        .03
        40.        50.       2.54        .04
        50.        60.       2.33        .04
        60.        70.       2.28        .04
        70.        80.       2.23        .05
        80.        90.       2.24        .05
        90.       100.       2.28        .05
ENDDATA             11
ENDSUBENT           26
SUBENT        40616004   20021128   20030502
BIB                  1          1
REACTION   (92-U-235(N,F),,SIG)
ENDBIB               1
NOCOMMON
DATA                 4       4000
EN         EN-ERR     DATA       DATA-ERR
EV         EV         B          PER-CENT
20271.333     72.2690   2.178E+00     2.648
20199.258               2.174E+00     2.695
20127.565               2.198E+00     2.588
20056.254               2.256E+00     2.691
19985.321               2.305E+00     2.796
19914.764               2.633E+00     2.850
19844.580               2.323E+00     2.748
19774.766               2.230E+00     2.763
19705.320               2.276E+00     2.765
19636.239               2.664E+00     2.824
19567.521               2.171E+00     2.939
19499.162               2.107E+00     2.923
19431.162               1.988E+00     2.821
19363.516               2.098E+00     2.741
19296.223               2.545E+00     2.566
19229.281               2.274E+00     2.556
19162.686               2.329E+00     2.659
19096.436               2.481E+00     2.652
19030.529               2.420E+00     2.650
18964.963               2.403E+00     2.686
18899.736               2.405E+00     2.755
18834.844               2.441E+00     2.834
18770.286               2.322E+00     2.674
18706.059               2.365E+00     2.579
18642.161               2.506E+00     2.706
18578.590               2.475E+00     2.721
18515.344               2.447E+00     2.720
18452.420               2.437E+00     2.611
18389.816               2.379E+00     2.786
18327.530               2.402E+00     2.752
18265.561               2.408E+00     2.855
18203.905               2.432E+00     2.851
18142.560               2.330E+00     2.811
18081.526               2.444E+00     2.953
18020.798               2.527E+00     2.817
17960.377               2.146E+00     2.582
17900.258               2.317E+00     2.830
17840.441               2.972E+00     2.892
17780.923               2.518E+00     2.887
17721.703               2.369E+00     2.836
17662.778               2.688E+00     2.937
17604.146               2.353E+00     3.020
17545.806               2.133E+00     2.939
17487.755               2.286E+00     3.052
17429.992               2.885E+00     2.947
17372.515               2.050E+00     2.859
17315.321               2.132E+00     2.940
17258.410               2.318E+00     2.908
17201.778               2.515E+00     2.619
17145.425               2.400E+00     2.797
17089.349               2.470E+00     2.847
17033.547               2.352E+00     2.976
16978.017               2.299E+00     2.928
16922.759               2.384E+00     2.947
16867.771               2.376E+00     2.698
16813.050               2.391E+00     2.761
16758.594               2.398E+00     2.885
16704.403               2.389E+00     2.928
16650.474               2.372E+00     2.980
16596.806               2.104E+00     2.912
16543.398               2.246E+00     2.894
16490.246               2.352E+00     2.775
16437.350               2.331E+00     2.835
16384.709               2.511E+00     2.946
16332.319               2.635E+00     2.881
16280.181               2.492E+00     2.884
16228.292               2.352E+00     2.931
16176.651               2.494E+00     2.819
16125.255               2.557E+00     2.719
16074.105               2.802E+00     2.910
16023.197               2.557E+00     2.987
15972.531               2.303E+00     3.021
15922.104               2.301E+00     3.062
15871.916               2.394E+00     2.949
15821.965               2.372E+00     3.008
15772.250               2.420E+00     2.959
15722.768               2.417E+00     3.048
15673.519               2.635E+00     2.987
15624.501               2.570E+00     3.005
15575.712               2.176E+00     3.112
15527.152               2.395E+00     3.046
15478.819               2.679E+00     2.993
15430.710               2.450E+00     2.896
15382.826               2.436         3.075
15335.164               2.335E+00     3.116
15287.724               2.294E+00     3.121
15240.503               2.158E+00     3.000
15193.500               2.097E+00     2.725
15146.715               2.561E+00     2.962
15100.146               2.282E+00     2.959
15053.791               2.652E+00     2.687
15007.649               2.620E+00     2.722
14961.719               2.686E+00     2.759
14915.999               2.624E+00     2.921
14870.489               2.596E+00     2.923
14825.186               2.743E+00     2.628
14780.091               3.190E+00     2.742
14735.200               3.058E+00     2.976
14690.514               2.924E+00     3.025
14646.031     44.3820   2.635E+00     2.934
14601.750               2.690E+00     2.932
14557.669               2.645E+00     2.912
14513.788               3.100E+00     3.025
14470.104               2.748E+00     3.042
14426.618               2.473E+00     2.953
14383.327               2.656E+00     2.939
14340.231               2.895E+00     2.964
14297.328               2.596E+00     3.042
14254.618               2.306E+00     3.043
14212.098               2.414E+00     3.126
14169.769               2.461E+00     3.087
14127.628               2.361E+00     2.929
14085.676               3.260E+00     2.939
14043.909               2.769E+00     2.989
14002.328               2.705E+00     2.940
13960.932               2.614E+00     2.907
13919.719               2.679E+00     3.034
13878.688               2.617E+00     3.139
13837.838               2.458E+00     3.129
13797.169               2.633E+00     2.934
13756.678               2.527E+00     2.810
13716.365               2.603E+00     3.018
13676.230               2.623E+00     2.984
13636.270               2.504E+00     2.955
13596.485               2.546E+00     2.989
13556.874               2.718E+00     3.013
13517.436               2.465E+00     2.908
13478.169               2.631E+00     2.875
13439.074               2.618E+00     2.890
13400.148               2.891E+00     2.963
13361.391               2.820E+00     2.694
13322.802               2.871E+00     2.897
13284.380               2.886E+00     2.968
13246.124               3.113E+00     2.992
13208.034               3.314E+00     2.766
13170.107               3.235E+00     3.053
13132.343               2.899E+00     3.100
13094.741               2.774E+00     2.958
13057.301               2.619E+00     3.052
13020.021               2.771E+00     3.078
12982.900               2.731E+00     3.131
12945.938               2.438E+00     3.115
12909.134               2.548E+00     3.070
12872.486               2.629E+00     3.041
12835.994               2.459E+00     3.201
12799.658               2.326E+00     3.277
12763.475               2.356E+00     3.177
12727.445               3.000E+00     3.075
12691.568               2.563E+00     2.982
12655.842               2.702E+00     3.070
12620.267               2.488E+00     3.314
12584.842               2.434E+00     3.063
12549.565               2.581E+00     3.118
12514.437               2.601E+00     3.299
12479.456               2.598E+00     3.193
12444.622               2.416E+00     3.137
12409.933               2.245E+00     3.191
12375.389               2.383E+00     3.227
12340.989               2.320E+00     3.259
12306.732               2.443E+00     3.213
12272.618               2.478E+00     3.092
12238.645               2.452E+00     3.051
12204.813               2.635E+00     3.071
12171.121               2.668E+00     3.042
12137.569               2.625E+00     2.952
12104.155               2.701E+00     2.928
12070.879               3.280E+00     3.061
12037.740               3.036E+00     2.988
12004.737               2.777E+00     3.236
11971.870               2.469E+00     3.285
11939.138               2.475E+00     3.165
11906.539               2.838E+00     3.047
11874.074               2.993E+00     3.090
11841.742               2.801E+00     3.246
11809.541               2.549E+00     3.197
11777.472               2.486E+00     3.206
11745.533               2.568E+00     3.365
11713.724               2.553E+00     3.358
11682.044               2.329E+00     3.325
11650.492               2.335E+00     3.242
11619.068               2.643E+00     3.225
11587.771               3.424E+00     3.225
11556.600               2.993E+00     2.816
11525.554               2.812E+00     3.296
11494.634               2.826E+00     2.824
11463.838               2.784E+00     3.268
11433.165               3.037E+00     3.154
11402.616               2.657E+00     2.915
11372.189               3.027E+00     3.060
11341.883               3.026E+00     3.115
11311.698               2.680E+00     3.174
11281.634               2.713E+00     3.173
11251.689               2.903E+00     3.244
11221.864               2.805E+00     3.175
11192.157               2.985E+00     3.227
11162.567               2.879E+00     3.079
11133.095               2.705E+00     3.112
11103.740               3.013E+00     3.281
11074.500               3.496E+00     3.130
11045.376     29.0670   2.911E+00     3.028
11016.366               2.937E+00     3.209
10987.471               3.131E+00     3.303
10958.689               2.792E+00     3.239
10930.020               2.559E+00     3.250
10901.463               2.926E+00     3.298
10873.018               2.697E+00     3.274
10844.685               2.954E+00     3.285
10816.462               2.634E+00     3.267
10788.349               2.830E+00     3.100
10760.345               2.886E+00     3.042
10732.451               2.970E+00     3.132
10704.664               2.824E+00     3.227
10676.986               3.017E+00     3.299
10649.415               2.815E+00     3.281
10621.950               2.672E+00     3.291
10594.591               3.846E+00     3.048
10567.338               3.296E+00     2.814
10540.190               3.030E+00     3.252
10513.147               3.239E+00     3.206
10486.207               2.856E+00     3.285
10459.371               2.779E+00     3.415
10432.638               2.792E+00     3.289
10406.007               2.593E+00     3.247
10379.478               2.721E+00     3.311
10353.050               2.820E+00     3.289
10326.723               2.810E+00     3.290
10300.497               2.833E+00     3.258
10274.370               2.960E+00     3.328
10248.342               2.676E+00     3.306
10222.414               2.780E+00     3.202
10196.583               2.890E+00     3.148
10170.850               3.220E+00     3.192
10145.215               2.805E+00     3.045
10119.676               2.872E+00     3.251
10094.234               3.273E+00     3.495
10068.888               2.970E+00     3.343
10043.636               2.959E+00     3.239
10018.480               3.120E+00     3.069
 9993.418               3.170E+00     3.191
 9968.450               2.940E+00     3.387
 9943.576               2.966E+00     3.177
 9918.794               2.960E+00     3.322
 9894.105               3.173E+00     3.245
 9869.508               2.975E+00     3.238
 9845.003               3.032E+00     3.179
 9820.589               3.207E+00     3.127
 9796.265               3.236E+00     3.180
 9772.032               3.038E+00     3.303
 9747.889               3.101E+00     3.099
 9723.835               3.478E+00     2.972
 9699.870               4.165E+00     3.116
 9675.993               3.065E+00     3.271
 9652.204               2.706E+00     3.265
 9628.504               2.928E+00     3.197
 9604.890               2.869E+00     3.239
 9581.363               2.715E+00     3.285
 9557.922               3.109E+00     3.173
 9534.567               3.414E+00     3.077
 9511.298               2.834E+00     3.012
 9488.114               2.871E+00     3.126
 9465.014               2.805E+00     3.182
 9441.999               3.441E+00     3.274
 9419.068               3.683E+00     3.229
 9396.220               3.634E+00     3.358
 9373.455               3.366E+00     3.447
 9350.773               3.332E+00     3.335
 9328.173               3.234E+00     3.044
 9305.654               3.046E+00     3.182
 9283.217               3.418E+00     2.990
 9260.862               3.557E+00     3.249
 9238.587               3.117E+00     3.260
 9216.392               3.095E+00     3.205
 9194.277               3.395E+00     3.198
 9172.241               3.546E+00     3.059
 9150.285               3.476E+00     3.171
 9128.408               3.249E+00     3.365
 9106.608               3.220E+00     3.377
 9084.887               3.122E+00     3.323
 9063.244               2.874E+00     3.505
 9041.677               2.774E+00     3.733
 9020.188               2.774E+00     3.398
 8998.775               3.131E+00     3.545
 8977.438               3.025E+00     3.698
 8956.177               3.281E+00     3.327
 8934.992               3.353E+00     3.602
 8913.881               2.544E+00     3.452
 8892.845               2.423E+00     3.609
 8871.884               2.840E+00     3.266
 8850.997               2.706E+00     3.274
 8830.183               2.829E+00     3.260
 8809.443               2.966E+00     3.253
 8788.775               3.299E+00     3.048
 8768.181               3.459E+00     3.123
 8747.658               3.704E+00     3.206
 8727.208               3.502E+00     3.253
 8706.829               3.817E+00     3.276
 8686.522               3.252E+00     3.277
 8666.285               3.566E+00     3.318
 8646.119               3.435E+00     3.105
 8626.024     20.0610   3.199E+00     3.117
 8605.998               3.648E+00     3.357
 8586.042               3.254E+00     3.246
 8566.156               2.944E+00     3.277
 8546.338               3.294E+00     3.412
 8526.589               3.066E+00     3.300
 8506.908               3.128E+00     3.356
 8487.296               3.265E+00     3.343
 8467.751               3.234E+00     3.292
 8448.274               3.125E+00     3.340
 8428.864               3.318E+00     3.325
 8409.520               3.157E+00     3.517
 8390.244               2.899E+00     3.442
 8371.033               2.893E+00     3.267
 8351.888               2.994E+00     3.082
 8332.809               3.394E+00     3.552
 8313.795               2.917E+00     3.573
 8294.846               3.245E+00     3.639
 8275.962               2.947E+00     3.380
 8257.143               3.648E+00     3.840
 8238.387               2.967E+00     3.602
 8219.695               2.551E+00     3.583
 8201.067               2.576E+00     3.846
 8182.502               2.687E+00     3.512
 8164.000               2.864E+00     3.647
 8145.561               2.979E+00     3.440
 8127.184               2.989E+00     3.374
 8108.869               3.137E+00     3.307
 8090.616               3.135E+00     3.489
 8072.425               3.183E+00     3.509
 8054.295               2.942E+00     3.647
 8036.225               2.381E+00     3.788
 8018.217               2.567E+00     3.441
 8000.269               3.145E+00     3.644
 7982.381               3.093E+00     3.589
 7964.554               2.703E+00     3.536
 7946.786               2.983E+00     3.641
 7929.077               3.030E+00     3.380
 7911.427               2.937E+00     3.407
 7893.836               3.183E+00     3.501
 7876.304               3.263E+00     3.565
 7858.831               3.037E+00     3.604
 7841.415               2.958E+00     3.444
 7824.057               3.145E+00     3.256
 7806.757               3.359E+00     3.279
 7789.514               3.419E+00     3.515
 7772.328               3.053E+00     3.453
 7755.199               2.741E+00     3.449
 7738.126               2.929E+00     3.565
 7721.110               2.786E+00     3.461
 7704.150               2.960E+00     3.464
 7687.245               3.493E+00     3.386
 7670.397               3.229E+00     3.274
 7653.603               3.566E+00     3.490
 7636.865               3.254E+00     3.678
 7620.181               2.870E+00     3.618
 7603.552               2.778E+00     3.680
 7586.978               2.821E+00     3.686
 7570.458               3.480E+00     3.465
 7553.991               3.480E+00     3.373
 7537.578               3.749E+00     3.223
 7521.219               3.564E+00     3.304
 7504.913               3.460E+00     3.624
 7488.660               2.862E+00     3.678
 7472.459               3.191E+00     3.597
 7456.311               3.276E+00     3.177
 7440.215               3.355E+00     3.275
 7424.172               3.167E+00     3.087
 7408.180               3.490E+00     3.130
 7392.240               3.225E+00     3.209
 7376.351               3.473E+00     3.432
 7360.514               3.257E+00     3.389
 7344.727               3.553E+00     3.712
 7328.991               3.431E+00     3.663
 7313.306               3.076E+00     3.411
 7297.671               3.123E+00     3.585
 7282.086               2.979E+00     3.538
 7266.550               3.097E+00     3.418
 7251.065               2.869E+00     3.104
 7235.629               3.455E+00     3.274
 7220.242               3.467E+00     3.422
 7204.904               3.068E+00     3.524
 7189.615               2.888E+00     3.577
 7174.375               2.896E+00     3.595
 7159.183               3.019E+00     3.548
 7144.040               3.361E+00     3.234
 7128.944               3.213E+00     3.299
 7113.896               3.750E+00     3.341
 7098.896               3.967E+00     3.272
 7083.943               3.586E+00     3.160
 7069.037               4.103E+00     3.182
 7054.178               3.855E+00     3.322
 7039.366               3.704E+00     3.407
 7024.601               4.371E+00     3.570
 7009.882               3.875E+00     3.462
 6995.209               3.441E+00     3.233
 6980.583               3.578E+00     3.197
 6966.002               3.976E+00     3.180
 6951.467               3.678E+00     3.059
 6936.977               3.842E+00     3.057
 6922.532     14.4220   3.827E+00     3.393
 6908.133               3.413E+00     3.399
 6893.778               3.409E+00     3.450
 6879.468               3.363E+00     3.576
 6865.203               3.200E+00     3.660
 6850.982               2.885E+00     3.546
 6836.805               3.207E+00     3.234
 6822.672               3.552E+00     3.338
 6808.583               3.349E+00     3.411
 6794.537               3.290E+00     3.451
 6780.535               3.231E+00     3.678
 6766.576               3.146E+00     3.635
 6752.660               3.292E+00     3.710
 6738.787               3.186E+00     3.654
 6724.957               3.071E+00     3.758
 6711.169               2.849E+00     3.706
 6697.424               3.031E+00     3.713
 6683.721               2.606E+00     3.687
 6670.060               2.987E+00     3.656
 6656.440               3.218E+00     3.407
 6642.863               3.236E+00     3.858
 6629.327               3.064E+00     3.542
 6615.832               3.703E+00     3.435
 6602.378               3.446E+00     3.509
 6588.966               3.869E+00     3.789
 6575.594               3.382E+00     3.737
 6562.263               3.001E+00     3.565
 6548.972               3.364E+00     3.579
 6535.722               3.113E+00     3.586
 6522.511               3.562E+00     3.571
 6509.341               3.395E+00     3.617
 6496.211               3.202E+00     3.344
 6483.120               3.405E+00     3.634
 6470.069               3.415E+00     3.618
 6457.058               3.244E+00     3.435
 6444.085               3.451E+00     3.340
 6431.152               3.972E+00     3.344
 6418.257               3.932E+00     3.494
 6405.401               3.742E+00     3.535
 6392.584               3.457E+00     3.537
 6379.805               3.382E+00     3.445
 6367.065               3.432E+00     3.441
 6354.362               3.896E+00     3.375
 6341.698               3.632E+00     3.387
 6329.071               3.740E+00     3.586
 6316.482               3.233E+00     3.660
 6303.931               3.231E+00     3.795
 6291.417               3.235E+00     3.703
 6278.940               3.022E+00     3.813
 6266.500               3.090E+00     3.923
 6254.098               2.975E+00     3.759
 6241.732               2.998E+00     3.465
 6229.402               3.969E+00     3.367
 6217.109               3.742E+00     3.752
 6204.853               3.185E+00     3.872
 6192.633               3.032E+00     3.876
 6180.448               3.799E+00     3.967
 6168.300               3.727E+00     4.030
 6156.188               3.421E+00     3.781
 6144.111               2.884E+00     3.733
 6132.069               2.790E+00     3.804
 6120.063               3.023E+00     3.698
 6108.093               2.889E+00     3.615
 6096.157               3.093E+00     3.736
 6084.256               3.161E+00     3.251
 6072.390               3.189E+00     3.340
 6060.559               3.639E+00     3.495
 6048.762               3.549E+00     3.666
 6037.000               3.604E+00     3.729
 6025.272               3.390E+00     3.602
 6013.578               3.233E+00     3.553
 6001.918               3.804E+00     3.462
 5990.292               3.724E+00     3.729
 5978.700               4.093E+00     3.925
 5967.141               3.564E+00     3.708
 5955.616               3.964E+00     4.148
 5944.124               4.137E+00     5.219
 5932.666               3.307E+00     6.139
 5921.240               3.065E+00     6.401
 5909.848               4.802E+00     5.378
 5898.488               6.138E+00     4.312
 5887.161               7.489E+00     4.130
 5875.867               5.365E+00     3.902
 5864.605               4.091E+00     3.657
 5853.375               3.727E+00     3.564
 5842.178               4.009E+00     3.389
 5831.013               4.407E+00     3.474
 5819.880               3.967E+00     3.594
 5808.778               4.304E+00     3.548
 5797.709               4.916E+00     3.460
 5786.671               4.728E+00     3.386
 5775.664               4.576E+00     3.499
 5764.689               3.877E+00     3.584
 5753.745               3.480E+00     3.551
 5742.833               3.455E+00     3.577
 5731.951               3.471E+00     3.728
 5721.100               3.451E+00     3.710
 5710.280               3.504E+00     3.433
 5699.491               3.663E+00     3.583
 5688.732               3.314E+00     3.766
 5678.003     10.7130   3.116E+00     3.850
 5667.305               3.084E+00     3.540
 5656.637               3.707E+00     3.394
 5646.000               4.029E+00     3.510
 5635.392               3.774E+00     3.497
 5624.814               3.527E+00     3.546
 5614.266               3.448E+00     3.438
 5603.747               3.535E+00     3.150
 5593.258               4.073E+00     3.357
 5582.798               4.228E+00     3.024
 5572.368               4.334E+00     3.248
 5561.967               4.383E+00     3.299
 5551.595               4.411E+00     3.278
 5541.252               4.453E+00     3.349
 5530.938               4.410E+00     3.230
 5520.653               4.706E+00     3.315
 5510.396               4.748E+00     3.385
 5500.168               4.265E+00     3.521
 5489.968               4.006E+00     3.719
 5479.797               4.140E+00     3.550
 5469.654               4.377E+00     3.613
 5459.539               4.229E+00     3.709
 5449.452               4.112E+00     3.527
 5439.393               3.667E+00     3.341
 5429.362               4.956E+00     3.553
 5419.358               3.901E+00     3.559
 5409.383               3.590E+00     3.452
 5399.434               3.855E+00     3.440
 5389.513               3.927E+00     3.541
 5379.620               3.731E+00     3.350
 5369.754               3.821E+00     3.446
 5359.914               4.158E+00     3.449
 5350.102               3.875E+00     3.379
 5340.317               4.090E+00     3.378
 5330.558               4.065E+00     3.502
 5320.827               4.097E+00     3.686
 5311.121               3.998E+00     3.509
 5301.443               3.962E+00     3.372
 5291.791               4.135E+00     3.509
 5282.165               3.821E+00     3.447
 5272.565               3.479E+00     3.369
 5262.992               3.588E+00     3.664
 5253.445               3.622E+00     3.603
 5243.923               3.670E+00     3.512
 5234.428               3.956E+00     3.844
 5224.958               3.656E+00     3.631
 5215.514               3.481E+00     3.621
 5206.095               3.585E+00     3.630
 5196.702               3.960E+00     3.765
 5187.334               3.618E+00     3.700
 5177.992               3.191E+00     3.537
 5168.675               3.427E+00     3.866
 5159.383               3.394E+00     3.702
 5150.116               3.890E+00     3.380
 5140.874               4.030E+00     3.353
 5131.657               3.786E+00     3.573
 5122.464               3.700E+00     3.604
 5113.297               3.680E+00     3.585
 5104.153               4.019E+00     3.585
 5095.035               4.614E+00     3.926
 5085.941               4.398E+00     3.744
 5076.871               4.012E+00     3.409
 5067.825               4.030E+00     3.414
 5058.804               3.988E+00     2.964
 5049.806               4.565E+00     3.398
 5040.833               4.395E+00     3.569
 5031.883               3.971E+00     3.567
 5022.957               4.154E+00     3.561
 5014.055               4.240E+00     3.416
 5005.177               4.566E+00     3.527
 4996.322               4.145E+00     3.841
 4987.491               3.358E+00     3.621
 4978.683               3.805E+00     3.945
 4969.898               3.473E+00     4.093
 4961.137               3.097E+00     4.069
 4952.399               3.299E+00     4.006
 4943.683               2.745E+00     4.157
 4934.991               3.041E+00     3.891
 4926.322               3.500E+00     3.617
 4917.675               3.863E+00     3.409
 4909.052               4.236E+00     3.284
 4900.451               4.519E+00     3.354
 4891.872               4.406E+00     3.483
 4883.316               4.055E+00     3.585
 4874.783               4.167E+00     3.763
 4866.272               4.582         3.979
 4857.783               4.283E+00     3.843
 4849.316               4.515E+00     3.678
 4840.871               4.034E+00     3.849
 4832.449               3.605E+00     3.954
 4824.048               3.376E+00     4.075
 4815.669               3.268E+00     4.053
 4807.312               3.035E+00     3.858
 4798.977               4.219E+00     3.868
 4790.664               4.058E+00     3.720
 4782.372               3.787E+00     3.833
 4774.101               3.607E+00     3.454
 4765.852               3.993E+00     3.783
 4757.625               3.800E+00     3.847
 4749.418               3.817E+00     3.879
 4741.233      8.1745   3.673E+00     4.125
 4733.069               3.599E+00     4.069
 4724.926               3.548E+00     4.041
 4716.804               3.272E+00     3.694
 4708.703               3.676E+00     3.373
 4700.623               4.222E+00     3.587
 4692.564               3.552E+00     3.535
 4684.525               3.744E+00     3.439
 4676.507               3.986E+00     3.679
 4668.510               3.934E+00     3.877
 4660.533               3.552E+00     3.976
 4652.576               3.839E+00     3.942
 4644.640               4.027E+00     3.472
 4636.724               4.347E+00     3.567
 4628.829               4.113E+00     3.872
 4620.953               3.775E+00     3.643
 4613.098               3.822E+00     3.683
 4605.262               4.377E+00     3.418
 4597.447               4.509E+00     3.529
 4589.651               4.886E+00     3.626
 4581.875               4.156E+00     3.626
 4574.119               4.284E+00     3.807
 4566.383               3.999E+00     3.757
 4558.666               4.387E+00     3.686
 4550.969               4.206E+00     3.635
 4543.291               3.975E+00     3.600
 4535.633               4.226E+00     3.653
 4527.994               5.175E+00     3.650
 4520.374               5.228E+00     3.370
 4512.774               5.071E+00     3.183
 4505.193               5.231E+00     3.267
 4497.630               5.217E+00     3.398
 4490.087               4.901E+00     3.463
 4482.563               4.632E+00     3.545
 4475.058               4.246E+00     3.516
 4467.571               4.740E+00     3.375
 4460.103               5.275E+00     3.157
 4452.654               5.549E+00     3.136
 4445.224               4.982E+00     3.667
 4437.812               4.473E+00     3.918
 4430.419               4.208E+00     3.973
 4423.044               4.041E+00     3.953
 4415.688               4.320E+00     3.801
 4408.349               4.571E+00     3.668
 4401.030               4.714E+00     3.549
 4393.728               4.673E+00     3.289
 4386.445               5.506E+00     3.247
 4379.179               5.056E+00     3.429
 4371.932               4.445E+00     3.430
 4364.703               4.595E+00     3.566
 4357.491               4.495E+00     3.680
 4350.298               4.303E+00     3.756
 4343.122               4.847E+00     3.626
 4335.964               5.101E+00     3.557
 4328.824               4.709E+00     3.245
 4321.701               5.146E+00     3.389
 4314.596               4.583E+00     3.527
 4307.508               4.286E+00     3.410
 4300.438               4.480E+00     3.388
 4293.385               4.704E+00     3.449
 4286.350               4.745E+00     3.428
 4279.332               5.057E+00     3.209
 4272.331               5.722E+00     3.386
 4265.347               6.092E+00     3.167
 4258.380               5.788E+00     3.141
 4251.430               5.826E+00     3.423
 4244.498               4.894E+00     3.559
 4237.582               5.251E+00     3.502
 4230.683               4.947E+00     3.339
 4223.801               5.344E+00     3.443
 4216.936               5.240E+00     3.476
 4210.088               4.957E+00     3.535
 4203.256               4.401E+00     3.572
 4196.441               4.577E+00     3.627
 4189.642               4.625E+00     3.744
 4182.860               4.396E+00     3.986
 4176.094               4.514E+00     4.007
 4169.345               4.370E+00     4.068
 4162.612               4.344E+00     4.202
 4155.896               4.073E+00     4.090
 4149.195               3.846E+00     3.809
 4142.511               4.490E+00     3.702
 4135.843               4.266E+00     4.063
 4129.191               3.885E+00     3.894
 4122.555               3.839E+00     3.738
 4115.935               4.702E+00     3.723
 4109.331               4.394E+00     3.837
 4102.743               4.343E+00     3.728
 4096.171               4.326E+00     3.580
 4089.614               4.575E+00     4.079
 4083.074               4.256E+00     3.561
 4076.549               4.070E+00     3.579
 4070.039               4.275E+00     3.726
 4063.545               4.213E+00     4.028
 4057.067               4.101E+00     3.843
 4050.604               4.259E+00     3.433
 4044.157               5.339E+00     3.563
 4037.725               4.855E+00     3.688
 4031.308               4.441E+00     3.652
 4024.906               4.256E+00     3.677
 4018.520      6.3780   3.741E+00     3.861
 4012.149               4.155E+00     3.333
 4005.793               4.563E+00     3.948
 3999.452               4.215E+00     4.168
 3993.127               4.387E+00     3.820
 3986.816               4.338E+00     3.534
 3980.520               4.648E+00     3.267
 3974.239               5.504E+00     3.395
 3967.973               5.281E+00     3.360
 3961.722               5.283E+00     3.394
 3955.485               5.526E+00     3.560
 3949.264               5.335E+00     3.743
 3943.057               5.502E+00     3.770
 3936.864               5.445E+00     3.785
 3930.686               5.166E+00     3.937
 3924.523               5.303E+00     3.896
 3918.374               4.825E+00     4.050
 3912.240               4.157E+00     4.098
 3906.119               4.172E+00     4.026
 3900.014               3.958E+00     4.053
 3893.922               4.261E+00     4.064
 3887.845               4.081E+00     3.798
 3881.782               3.694E+00     3.863
 3875.734               3.472E+00     3.972
 3869.699               3.761E+00     3.804
 3863.678               3.713E+00     3.697
 3857.672               4.096E+00     3.505
 3851.679               4.856E+00     3.265
 3845.701               5.114E+00     3.305
 3839.736               5.037E+00     3.607
 3833.785               5.443E+00     3.591
 3827.848               5.408E+00     3.594
 3821.925               5.111E+00     3.463
 3816.016               5.207E+00     3.377
 3810.120               5.595E+00     3.698
 3804.238               5.071E+00     3.692
 3798.370               4.758E+00     3.651
 3792.515               5.073E+00     3.622
 3786.673               5.413E+00     3.553
 3780.845               5.257E+00     3.515
 3775.031               4.662E+00     3.560
 3769.230               4.517E+00     3.712
 3763.442               4.751E+00     3.581
 3757.668               4.932E+00     3.641
 3751.907               4.628E+00     3.794
 3746.159               4.572E+00     3.761
 3740.424               4.628E+00     4.072
 3734.703               4.388E+00     3.869
 3728.994               4.141E+00     4.156
 3723.299               3.976E+00     3.722
 3717.617               4.390E+00     3.824
 3711.948               4.093E+00     3.755
 3706.291               4.208E+00     3.909
 3700.648               4.250E+00     3.680
 3695.017               4.495E+00     3.523
 3689.400               4.940E+00     3.841
 3683.795               4.356E+00     3.972
 3678.203               4.339E+00     4.065
 3672.623               4.037E+00     3.966
 3667.057               3.734E+00     4.038
 3661.503               3.966E+00     3.467
 3655.961               4.458E+00     3.551
 3650.432               4.638E+00     3.827
 3644.916               4.087E+00     4.012
 3639.412               4.356E+00     4.114
 3633.921               4.512E+00     3.735
 3628.442               5.018E+00     3.695
 3622.975               4.386E+00     3.678
 3617.521               4.660E+00     3.553
 3612.079               4.995E+00     3.495
 3606.649               4.925E+00     3.554
 3601.232               4.702E+00     3.710
 3595.827               4.883E+00     3.690
 3590.434               5.256E+00     3.515
 3585.053               5.399E+00     3.499
 3579.684               4.862E+00     3.735
 3574.327               4.671E+00     4.084
 3568.982      5.3388   4.560E+00     4.115
 3560.991     10.6420   4.712E+00     2.745
 3550.374               4.412E+00     2.532
 3539.803               4.365E+00     2.645
 3529.280               4.740E+00     2.622
 3518.804               4.946E+00     2.604
 3508.374               6.152E+00     2.323
 3497.991               5.388E+00     2.529
 3487.653               5.161E+00     2.500
 3477.362               4.960E+00     2.619
 3467.115               4.902E+00     2.669
 3456.914               4.774E+00     3.107
 3446.758               3.942E+00     3.142
 3436.647               4.016E+00     2.953
 3426.580               4.485E+00     2.530
 3416.557               4.632E+00     2.501
 3406.578               5.140E+00     2.479
 3396.643               5.639E+00     2.648
 3386.751               4.687E+00     2.958
 3376.903               3.762E+00     3.198
 3367.097               3.595E+00     3.038
 3357.334               3.789E+00     2.908
 3347.613               4.179E+00     2.643
 3337.935      9.6577   4.905E+00     2.682
 3328.298               4.358E+00     2.685
 3318.703               5.088E+00     2.489
 3309.149               6.293E+00     2.171
 3299.637               7.186E+00     2.262
 3290.165               7.036E+00     2.445
 3280.735               6.259E+00     2.598
 3271.345               5.314E+00     2.809
 3261.995               5.035E+00     2.783
 3252.685               5.048E+00     2.677
 3243.414               5.303E+00     2.643
 3234.184               5.849E+00     2.584
 3224.993               5.515E+00     2.773
 3215.841               4.135E+00     3.126
 3206.727               4.355E+00     2.804
 3197.653               4.531E+00     2.593
 3188.617               4.894E+00     2.731
 3179.619               4.463E+00     3.159
 3170.659               3.760E+00     3.319
 3161.737               4.207E+00     2.727
 3152.853               4.513E+00     2.672
 3144.006               4.751E+00     2.619
 3135.196               5.581E+00     2.543
 3126.423               4.894E+00     2.769
 3117.687               4.703E+00     3.014
 3108.988               4.607E+00     2.781
 3100.325               4.563E+00     2.649
 3091.698               4.903E+00     2.876
 3083.107               5.157E+00     2.569
 3074.551               5.507E+00     2.504
 3066.032               5.619E+00     2.676
 3057.547               5.275E+00     2.942
 3049.098               5.131E+00     2.701
 3040.684               5.590E+00     2.512
 3032.305               5.255E+00     2.633
 3023.960               5.085E+00     2.592
 3015.649               6.014E+00     2.304
 3007.373               5.945E+00     2.541
 2999.131               5.258E+00     2.816
 2990.923               5.050E+00     3.013
 2982.748               5.229E+00     2.914
 2974.607               4.635E+00     3.166
 2966.499               4.058E+00     3.236
 2958.424               3.991E+00     3.106
 2950.382               3.982E+00     3.154
 2942.373               4.090E+00     2.976
 2934.396               5.103E+00     2.532
 2926.452               5.978E+00     2.440
 2918.540               5.772E+00     2.731
 2910.660               5.027E+00     2.867
 2902.812               5.002E+00     2.948
 2894.995               4.429E+00     3.031
 2887.211               4.781E+00     2.728
 2879.457               5.419E+00     2.619
 2871.735               5.641E+00     2.538
 2864.043               6.160E+00     2.571
 2856.383               5.415E+00     2.757
 2848.753               6.157E+00     2.790
 2841.154               5.235E+00     2.786
 2833.585               4.898E+00     3.011
 2826.047               4.237E+00     3.121
 2818.538               4.472E+00     2.922
 2811.059               4.585E+00     2.980
 2803.610               4.432E+00     2.971
 2796.191               5.074E+00     2.775
 2788.801               5.399E+00     2.753
 2781.440               5.218E+00     2.691
 2774.108               6.128E+00     2.421
 2766.806               6.544E+00     2.296
 2759.532               6.295E+00     2.604
 2752.287               5.740E+00     2.591
 2745.070               6.024E+00     2.497
 2737.881               6.266E+00     2.530
 2730.721               6.281E+00     2.806
 2723.589               5.500E+00     3.047
 2716.485               4.679E+00     3.375
 2709.408               3.773E+00     3.497
 2702.359               3.270E+00     3.681
 2695.338               3.585E+00     3.540
 2688.344               3.796E+00     3.119
 2681.377               3.963E+00     3.292
 2674.437               4.598E+00     3.057
 2667.524               5.046E+00     2.699
 2660.638               4.515E+00     2.957
 2653.779               4.466E+00     2.983
 2646.945               4.544E+00     2.951
 2640.139               4.605E+00     2.924
 2633.358               4.320E+00     3.015
 2626.604               4.468E+00     2.908
 2619.876               5.050E+00     2.739
 2613.173               6.332E+00     2.562
 2606.496               6.838E+00     2.722
 2599.845               5.318E+00     3.221
 2593.219               4.827E+00     3.204
 2586.618               4.584E+00     2.892
 2580.043               4.688E+00     2.849
 2573.492               5.801E+00     2.552
 2566.967               7.101E+00     2.424
 2560.466               7.043E+00     2.528
 2553.990               6.608E+00     2.740
 2547.538      6.4393   6.768E+00     2.418
 2541.111               8.140E+00     2.438
 2534.708               5.839E+00     2.833
 2528.330               5.304E+00     3.061
 2521.975               5.428E+00     3.016
 2515.645               5.485E+00     2.896
 2509.338               4.928E+00     2.926
 2503.055               5.007E+00     2.924
 2496.795               5.901E+00     2.980
 2490.559               5.447E+00     2.869
 2484.346               6.096E+00     2.539
 2478.156               6.336E+00     2.647
 2471.990               5.632E+00     2.856
 2465.846               5.086E+00     3.217
 2459.726               5.143E+00     3.142
 2453.628               5.550E+00     2.647
 2447.553               6.209E+00     2.473
 2441.500               7.156E+00     2.447
 2435.470               7.437E+00     2.503
 2429.462               6.241E+00     2.785
 2423.476               5.801E+00     2.805
 2417.512               5.628E+00     2.752
 2411.571               5.923E+00     2.830
 2405.651               5.227E+00     2.738
 2399.753               4.970E+00     3.112
 2393.876               4.882E+00     3.393
 2388.022               4.458E+00     3.437
 2382.188               3.902E+00     3.596
 2376.376               3.395E+00     3.620
 2370.586               3.307E+00     3.733
 2364.816               4.305E+00     2.963
 2359.067               5.274E+00     2.624
 2353.340               6.662E+00     2.370
 2347.633               7.582E+00     2.432
 2341.947               7.619E+00     2.369
 2336.281               7.299E+00     2.494
 2330.637               6.137E+00     2.847
 2325.012               4.984E+00     3.341
 2319.408               4.974E+00     3.003
 2313.824               5.347E+00     2.949
 2308.260               5.222E+00     3.048
 2302.717               5.038E+00     3.085
 2297.193               4.937E+00     3.185
 2291.689               5.293E+00     3.118
 2286.205               5.283E+00     2.803
 2280.740               5.874E+00     2.625
 2275.295               5.643E+00     2.874
 2269.870               4.903E+00     3.158
 2264.464               5.508E+00     2.898
 2259.077               5.746E+00     2.683
 2253.709               5.774E+00     2.656
 2248.361               5.905E+00     2.842
 2243.031               5.098E+00     2.979
 2237.721               5.073E+00     3.009
 2232.429               4.949E+00     3.068
 2227.156               5.432E+00     2.821
 2221.902               5.895E+00     2.667
 2216.666               6.241E+00     2.640
 2211.449               6.449E+00     2.710
 2206.250               6.242E+00     2.898
 2201.070               6.440E+00     2.995
 2195.907               5.177E+00     3.215
 2190.763               5.041E+00     3.065
 2185.637               5.263E+00     2.848
 2180.529               5.746E+00     2.752
 2175.439               5.199E+00     2.988
 2170.366               4.701E+00     3.256
 2165.312               5.515E+00     3.070
 2160.275               5.059E+00     3.077
 2155.255               4.640E+00     3.172
 2150.253               5.453E+00     2.923
 2145.268               6.187E+00     2.704
 2140.301               5.938E+00     2.754
 2135.351               6.367E+00     2.663
 2130.418               6.542E+00     2.795
 2125.502               5.998E+00     2.965
 2120.603               5.944E+00     3.165
 2115.721               5.062E+00     3.656
 2110.856               4.315E+00     3.754
 2106.008               4.044E+00     3.622
 2101.176               4.052E+00     3.421
 2096.361               5.065E+00     2.828
 2091.562               5.430E+00     2.767
 2086.780               6.029E+00     2.622
 2082.015               5.966E+00     2.773
 2077.265               5.661E+00     3.072
 2072.532               5.657E+00     2.837
 2067.815               5.450E+00     2.909
 2063.114               5.363E+00     3.086
 2058.429               5.795E+00     3.002
 2053.760               6.323E+00     2.742
 2049.107               6.524E+00     2.828
 2044.470               5.624E+00     3.095
 2039.848               5.320E+00     3.360
 2035.242               4.580E+00     3.663
 2030.652               4.092E+00     3.768
 2026.077               3.662E+00     3.973
 2021.518               2.928E+00     3.960
 2016.974               3.040E+00     3.689
 2012.445               3.702E+00     3.308
 2007.932      4.5059   4.445E+00     3.027
 2003.433               6.027E+00     2.870
 1998.950               6.013E+00     2.743
 1994.482               6.235E+00     2.817
 1990.029               5.820E+00     2.951
 1985.590               5.892E+00     3.037
 1981.167               6.242E+00     2.788
 1976.758               7.183E+00     2.689
 1972.364               6.517E+00     2.892
 1967.985               7.566E+00     2.566
 1963.620               8.368E+00     2.511
 1959.270               7.763E+00     2.665
 1954.934               7.483E+00     2.741
 1950.612               6.842E+00     2.730
 1946.305               5.448E+00     3.051
 1942.012               6.299E+00     2.666
 1937.733               7.846E+00     2.451
 1933.469               7.314E+00     2.668
 1929.218               7.105E+00     2.710
 1924.982               7.089E+00     2.844
 1920.759               7.309E+00     2.794
 1916.550               7.957E+00     2.316
 1912.355               6.673E+00     2.888
 1908.174               6.315E+00     3.082
 1904.007               6.317E+00     3.005
 1899.853               5.294E+00     3.330
 1895.713               5.140E+00     3.371
 1891.586               5.238E+00     3.183
 1887.473               5.694E+00     2.998
 1883.373               6.084E+00     2.727
 1879.286               5.930E+00     3.036
 1875.213               5.236E+00     3.212
 1871.153               5.811E+00     3.022
 1867.106               5.707E+00     3.158
 1863.072               5.486E+00     3.063
 1859.052               6.341E+00     2.770
 1855.044               6.946E+00     2.736
 1851.049               7.361E+00     2.542
 1847.067               7.165E+00     2.626
 1843.098               6.631E+00     2.887
 1839.142               6.272E+00     2.854
 1835.199               6.535         2.946
 1831.268               5.366         3.127
 1827.350               5.802         3.111
 1823.444               6.356         2.802
 1819.551               7.202         2.623
 1815.670               7.463         2.835
 1811.802               6.097         3.241
 1807.946               5.171         3.261
 1804.102               5.206         3.181
 1800.271               5.080         3.164
 1796.452               5.945         2.876
 1792.645               6.982         2.815
 1788.850               6.245         3.072
 1785.067               6.056         3.118
 1781.296               6.839         2.938
 1777.537               7.853         2.659
 1773.790               7.296         2.655
 1770.054               6.123         2.887
 1766.331               5.944         3.335
 1762.619               6.447         3.039
 1758.919               6.724         2.762
 1755.231               6.209         3.067
 1751.554               6.561         3.106
 1747.889               6.441         2.814
 1744.235               6.643         2.776
 1740.592               5.929         3.058
 1736.961               6.288         3.093
 1733.342               6.833         2.998
 1729.733               6.820         2.911
 1726.136               6.878         2.735
 1722.551               6.836         2.932
 1718.976               6.106         2.996
 1715.412               5.578         3.131
 1711.860               4.677         3.488
 1708.318               4.560         3.420
 1704.788               5.335         3.280
 1701.268               6.666         2.777
 1697.759               7.594         2.516
 1694.262               7.669         2.837
 1690.775               6.678         3.125
 1687.298               7.546         2.759
 1683.833               8.618         2.478
 1680.378               9.213         2.414
 1676.934               8.593         2.728
 1673.500               8.360         2.698
 1670.077               8.266         2.72
 1666.664               8.590         2.626
 1663.262               8.503         2.652
 1659.870               7.145         2.980
 1656.488               6.993         3.113
 1653.117               6.697         3.017
 1649.756               6.691         2.872
 1646.406               7.621         2.690
 1643.065               7.269         2.779
 1639.735               6.330         3.129
 1636.415               6.665         3.187
 1633.105               7.433         2.981
 1629.805               7.946         2.767
 1626.515               7.483         2.747
 1623.235      3.2751   7.344         3.007
 1619.964               6.713         3.008
 1616.704               6.605         3.129
 1613.454               4.555         3.644
 1610.213               4.403         3.697
 1606.982               5.236         3.311
 1603.761               5.431         3.102
 1600.549               5.428         3.206
 1597.347               6.004         3.243
 1594.155               8.413         2.499
 1590.972               8.708         2.501
 1587.799               7.927         2.916
 1584.635               6.278         3.343
 1581.481               6.473         3.150
 1578.336               6.928         2.850
 1575.200               7.296         2.685
 1572.074               6.995         2.925
 1568.957               8.544         2.625
 1565.850               7.633         2.702
 1562.751               6.873         3.100
 1559.662               5.969         3.390
 1556.582               4.925         3.708
 1553.511               5.321         3.352
 1550.449               6.276         2.917
 1547.396               6.625         2.821
 1544.353               6.252         3.234
 1541.318               6.455         3.009
 1538.292               6.081         3.230
 1535.275               6.602         3.054
 1532.267               7.067         2.839
 1529.267               6.519         3.019
 1526.277               7.110         3.095
 1523.295               6.314         3.306
 1520.322               5.668         3.660
 1517.358               4.406         4.055
 1514.402               4.465         3.891
 1511.455               5.308         3.538
 1508.516               5.136         3.264
 1505.587               5.675         3.118
 1502.665               5.958         3.123
 1499.752               5.633         3.262
 1496.848               4.813         3.332
 1493.952               4.886         3.343
 1491.064               4.225         3.718
 1488.185               4.173         4.054
 1485.314               4.488         3.747
 1482.452               4.595         3.521
 1479.597               5.044         3.494
 1476.751               4.518         3.616
 1473.913               4.430         4.224
 1471.084               4.412         3.911
 1468.262               4.359         3.542
 1465.449               6.677         2.947
 1462.643               7.255         2.854
 1459.846               6.966         2.960
 1457.057               7.386         2.849
 1454.275               7.642         3.004
 1451.502               8.815         2.691
 1448.736              10.575         2.345
 1445.979              10.179         2.568
 1443.229               9.175         2.627
 1440.487               7.028         3.205
 1437.753               5.533         3.883
 1435.027               5.450         4.077
 1432.309               8.787         2.663
 1429.598              10.542         2.301
 1426.895              10.246         2.510
 1424.199               9.625         2.760
 1421.511               9.625         2.762
 1418.831              10.215         2.606
 1416.158               8.500         2.879
 1413.493               7.348         3.130
 1410.836               7.296         3.190
 1408.186               7.136         3.165
 1405.543               7.104         3.031
 1402.908               6.672         2.972
 1400.280               6.145         3.299
 1397.660               6.681         3.230
 1395.046               6.603         3.031
 1392.441               6.369         3.174
 1389.842               8.189         2.818
 1387.251               9.701         2.547
 1384.667              10.446         2.524
 1382.090              10.417         2.502
 1379.521              10.306         2.630
 1376.958               8.891         2.978
 1374.403               7.323         3.229
 1371.855               7.616         3.098
 1369.314               8.024         2.959
 1366.780               7.208         3.112
 1364.253               7.757         3.093
 1361.733               8.759         2.659
 1359.220               9.237         2.506
 1356.714               7.416         2.790
 1354.215               7.071         3.313
 1351.722               6.946         3.315
 1349.237               8.803         2.750
 1346.758               9.922         2.491
 1344.287              10.883         2.493
 1341.822              10.555         2.591
 1339.364      2.4547   8.936         2.910
 1336.912               7.649         2.962
 1334.468               8.352         3.002
 1332.030               9.175         2.772
 1329.598               7.908         2.893
 1327.174               7.423         3.161
 1324.756               8.363         3.170
 1322.344               9.404         2.717
 1319.939               8.404         2.867
 1317.541               7.251         3.116
 1315.149               6.618         3.317
 1312.764               5.811         3.725
 1310.385               5.070         3.904
 1308.013               5.963         3.125
 1305.647               7.146         2.766
 1303.288               7.317         2.882
 1300.935               8.108         3.005
 1298.588              10.191         2.781
 1296.248              10.507         2.587
 1293.913               9.525         2.854
 1291.586               9.193         2.833
 1289.264               7.194         3.209
 1286.949               5.772         3.695
 1284.640               6.176         3.436
 1282.337               6.993         3.206
 1280.041               7.513         3.082
 1277.750               7.167         3.109
 1275.466               8.293         2.833
 1273.188               9.724         2.544
 1270.916               9.773         2.568
 1268.650               8.540         2.835
 1266.390               6.507         3.406
 1264.136               6.621         3.625
 1261.888               7.495         3.227
 1259.646               6.914         3.172
 1257.410               6.742         3.313
 1255.180               6.514         3.321
 1252.956               6.462         3.276
 1250.738               6.447         3.134
 1248.526               6.863         3.051
 1246.319               7.056         3.130
 1244.119               6.535         3.198
 1241.924               6.340         3.308
 1239.735               7.678         3.086
 1237.552               7.284         3.023
 1235.375               7.261         3.184
 1233.203               7.927         3.025
 1231.037               7.339         2.986
 1228.877               7.379         2.915
 1226.722               7.365         3.195
 1224.574               8.171         3.040
 1222.430               8.125         2.944
 1220.293               7.346         3.124
 1218.161               7.178         3.308
 1216.034               8.524         3.390
 1213.913              10.470         2.461
 1211.798               9.386         2.595
 1209.688               7.672         3.418
 1207.584               7.310         3.543
 1205.485               6.638         3.595
 1203.392               7.225         3.481
 1201.304               8.486E+00     2.812
 1199.221               9.983E+00     2.600
 1197.144               1.043E+01     2.634
 1195.073               8.399E+00     3.065
 1193.006               8.278E+00     3.216
 1190.945               7.589E+00     3.361
 1188.890               7.986E+00     3.160
 1186.840               8.677E+00     3.000
 1184.795               8.586E+00     2.936
 1182.755               9.052E+00     2.835
 1180.720               8.738E+00     2.806
 1178.691               6.756E+00     3.199
 1176.667               7.630E+00     3.200
 1174.648               9.288E+00     2.881
 1172.635               1.078E+01     2.653
 1170.626               1.211E+01     2.480
 1168.623               1.181E+01     2.528
 1166.625               1.322E+01     2.436
 1164.632               1.725E+01     2.152
 1162.644               1.885E+01     2.075
 1160.661               1.716E+01     2.165
 1158.684               1.464E+01     2.346
 1156.711               1.300E+01     2.705
 1154.743               9.620E+00     3.184
 1152.781               7.865E+00     3.619
 1150.823               6.387E+00     3.963
 1148.870               7.537E+00     3.608
 1146.923               8.643E+00     3.009
 1144.980               1.000E+01     2.750
 1143.042               9.374E+00     2.765
 1141.109               9.290E+00     2.858
 1139.181               1.077E+01     2.736
 1137.258               1.170E+01     2.605
 1135.340               1.050E+01     2.710
 1133.427               1.144E+01     2.666
 1131.518               1.346E+01     2.263
 1129.614               1.048E+01     2.712
 1127.715               8.766E+00     3.024
 1125.821               8.320E+00     3.191
 1123.932      1.8870   7.812E+00     3.171
 1122.047               6.951E+00     3.241
 1120.167               7.518E+00     3.707
 1118.292               7.118E+00     3.068
 1116.421               8.226E+00     3.113
 1114.556               6.758E+00     3.454
 1112.695               5.924E+00     3.765
 1110.838               5.925E+00     3.826
 1108.986               5.886E+00     3.811
 1107.139               5.900E+00     3.756
 1105.296               6.452E+00     3.799
 1103.458               8.288E+00     3.180
 1101.625               1.083E+01     2.686
 1099.796               1.028E+01     2.664
 1097.972               9.471E+00     2.935
 1096.152               9.195E+00     3.145
 1094.337               9.560E+00     3.058
 1092.526               9.673E+00     3.014
 1090.720               9.296E+00     3.056
 1088.918               1.019E+01     2.842
 1087.121               9.375E+00     3.048
 1085.328               8.995E+00     3.260
 1083.540               9.929E+00     2.925
 1081.756               1.060E+01     2.767
 1079.976               1.121E+01     2.774
 1078.201               1.333E+01     2.548
 1076.430               1.611E+01     2.278
 1074.663               1.561E+01     2.293
 1072.901               1.201E+01     2.639
 1071.143               9.678E+00     3.191
 1069.390               9.100E+00     3.393
 1067.641               9.567E+00     2.972
 1065.896               8.427E+00     2.894
 1064.155               7.376E+00     3.281
 1062.419               7.813E+00     3.142
 1060.687               8.837E+00     3.036
 1058.959               8.171E+00     3.217
 1057.235               7.482E+00     3.545
 1055.516               9.458E+00     3.144
 1053.800               9.795E+00     2.866
 1052.089               9.345E+00     2.867
 1050.382               8.438E+00     3.101
 1048.680               8.251E+00     3.064
 1046.981               8.182E+00     3.349
 1045.286               7.819E+00     3.392
 1043.596               8.968E+00     2.736
 1041.910               7.446E+00     3.070
 1040.227               5.896E+00     3.573
 1038.549               4.574E+00     4.286
 1036.875               4.376E+00     4.829
 1035.205               4.987E+00     4.557
 1033.539               5.969E+00     3.682
 1031.877               7.018E+00     2.845
 1030.219               6.416E+00     3.385
 1028.565               5.708E+00     4.005
 1026.915               5.433E+00     4.297
 1025.269               5.767E+00     3.497
 1023.627               6.438E+00     3.280
 1021.989               6.353E+00     3.542
 1020.354               6.600E+00     3.546
 1018.724               6.059E+00     3.636
 1017.098               5.708E+00     3.767
 1015.475               5.927E+00     3.777
 1013.856               7.114E+00     3.286
 1012.242               6.696E+00     3.246
 1010.631               6.801E+00     3.433
 1009.024               6.654E+00     3.720
 1007.420               7.426E+00     3.343
 1005.821               9.453E+00     2.826
 1004.225               8.782E+00     2.926
 1002.633               8.516E+00     3.236
 1001.045               9.774E+00     2.978
  999.461               1.013E+01     2.890
  997.881               8.782E+00     3.181
  996.304               6.546E+00     3.713
  994.731               5.179E+00     4.443
  993.161               5.171E+00     4.457
  991.596               5.732E+00     3.824
  990.034               5.146E+00     3.634
  988.476               4.919E+00     3.899
  986.921               5.628E+00     3.905
  985.370               7.380E+00     3.360
  983.823               7.274E+00     3.111
  982.279               7.526E+00     3.149
  980.739               8.449E+00     3.043
  979.203               8.790E+00     2.963
  977.670               9.311E+00     2.919
  976.141               8.111E+00     3.023
  974.616               8.408E+00     3.235
  973.094               7.190E+00     3.445
  971.575               6.619E+00     3.457
  970.060               5.836E+00     3.563
  968.549               5.205E+00     3.979
  967.041               5.225E+00     3.897
  965.537               4.933E+00     3.805
  964.036               4.475E+00     3.914
  962.539               4.938E+00     4.649
  961.045               4.801E+00     4.524
  959.555               5.119E+00     4.194
  958.068               6.950E+00     3.444
  956.584      1.4817   7.704E+00     2.949
  955.104               6.713E+00     3.265
  953.628               5.937E+00     3.760
  952.155               6.809E+00     3.456
  950.685               8.739E+00     3.141
  949.219               9.278E+00     3.038
  947.756               9.668E+00     2.955
  946.296               9.993E+00     2.829
  944.840               9.544E+00     2.894
  943.387               8.554E+00     3.330
  941.938               9.072E+00     3.187
  940.492               9.594E+00     2.891
  939.049               7.293E+00     3.242
  937.609               5.562E+00     4.122
  936.173               5.025E+00     4.890
  934.740               5.321E+00     4.368
  933.311               5.740E+00     3.766
  931.884               6.386E+00     3.614
  930.461               7.611E+00     3.415
  929.042               7.905E+00     3.210
  927.625               7.730E+00     3.294
  926.212               9.101E+00     3.357
  924.802               1.164E+01     3.051
  923.395               1.348E+01     2.648
  921.991               1.353E+01     2.561
  920.591               1.068E+01     2.791
  919.194               9.541E+00     3.044
  917.799               8.446E+00     3.413
  916.409               8.859E+00     3.368
  915.021               9.407E+00     2.962
  913.636               8.991E+00     2.970
  912.255               7.682E+00     3.460
  910.876               7.600E+00     3.902
  909.501               8.037E+00     3.462
  908.129               7.636E+00     3.492
  906.760               7.624E+00     3.574
  905.394               7.657E+00     3.330
  904.031               7.749E+00     3.199
  902.672               9.027E+00     3.061
  901.315               1.038E+01     3.065
  899.961               7.981E+00     3.163
  898.611               1.028E+01     3.075
  897.263               1.250E+01     2.847
  895.919               1.343E+01     2.518
  894.577               1.208E+01     2.518
  893.239               9.815E+00     3.391
  891.903               7.806E+00     3.726
  890.571               5.943E+00     3.931
  889.241               4.675E+00     4.107
  887.915               4.104E+00     5.178
  886.591               5.072E+00     4.201
  885.270               6.161E+00     3.785
  883.953               8.362E+00     3.110
  882.638               1.065E+01     2.811
  881.326               9.956E+00     2.886
  880.017               9.875E+00     3.028
  878.711               9.936E+00     3.152
  877.408               7.399E+00     3.541
  876.108               7.278E+00     3.814
  874.811               7.156E+00     3.555
  873.517               6.800E+00     3.405
  872.225               5.445E+00     3.872
  870.936               5.619E+00     4.488
  869.651               5.977E+00     4.595
  868.368               9.356E+00     3.312
  867.088               1.069E+01     2.771
  865.810               1.079E+01     2.772
  864.536               1.161E+01     2.827
  863.264               1.104E+01     2.942
  861.995               1.334E+01     2.810
  860.729               1.602E+01     2.423
  859.466               1.490E+01     2.380
  858.205               1.214E+01     2.759
  856.948               9.264E+00     3.421
  855.693               7.452E+00     4.038
  854.441               4.762E+00     4.427
  853.191               4.842E+00     4.735
  851.944               5.183E+00     4.628
  850.700               5.179E+00     4.280
  849.459               5.344E+00     4.165
  848.221               6.674E+00     3.922
  846.985               9.940E+00     3.066
  845.752               1.062E+01     2.734
  844.521               1.037E+01     2.793
  843.293               9.829E+00     3.337
  842.068               9.055E+00     3.068
  840.846               9.386E+00     3.190
  839.626               7.700E+00     3.485
  838.409               7.472E+00     3.660
  837.194               7.839E+00     3.473
  835.983               7.726E+00     3.155
  834.773               7.769E+00     3.403
  833.567               6.669E+00     3.557
  832.363               5.661E+00     3.896
  831.161               4.524E+00     4.661
  829.963               4.196E+00     4.713
  828.767               4.520E+00     4.600
  827.573               4.801E+00     4.171
  826.382               3.882E+00     4.827
  825.193               4.033E+00     4.781
  824.008      1.1846   4.669E+00     4.400
  822.824               5.741E+00     3.961
  821.643               6.432E+00     3.830
  820.465               5.894E+00     3.815
  819.290               7.099E+00     3.846
  818.116               9.948E+00     3.180
  816.946               9.939E+00     3.004
  815.778               8.560E+00     3.302
  814.612               8.473E+00     3.367
  813.449               8.964E+00     3.247
  812.288               9.510E+00     3.111
  811.130               7.998E+00     3.320
  809.974               6.902E+00     3.754
  808.821               7.459E+00     3.931
  807.670               6.986E+00     3.863
  806.522               8.806E+00     3.319
  805.376               1.089E+01     2.892
  804.232               1.006E+01     2.961
  803.091               1.041E+01     3.034
  801.953               1.179E+01     2.849
  800.817               1.400E+01     2.725
  799.683               1.279E+01     2.694
  798.552               1.142E+01     3.004
  797.423               1.134E+01     3.281
  796.296               1.148E+01     3.266
  795.172               1.306E+01     2.937
  794.050               1.147E+01     2.681
  792.931               1.018E+01     3.170
  791.814               9.923E+00     3.266
  790.699               1.011E+01     3.133
  789.587               9.947E+00     3.204
  788.477               9.175E+00     3.193
  787.369               7.999E+00     3.772
  786.264               8.035E+00     3.826
  785.161               1.225E+01     3.119
  784.060               1.470E+01     2.648
  782.962               1.325E+01     2.478
  781.866               1.144E+01     3.178
  780.772               1.127E+01     3.376
  779.680               1.549E+01     2.865
  778.591               1.748E+01     2.597
  777.504               1.891E+01     2.223
  776.420               1.793E+01     2.319
  775.337               1.395E+01     2.775
  774.257               1.228E+01     3.203
  773.179               9.190E+00     3.498
  772.104               9.185E+00     3.590
  771.030               9.368E+00     3.389
  769.959               8.722E+00     3.473
  768.890               8.060E+00     3.595
  767.824               9.358E+00     3.668
  766.759               8.556E+00     3.592
  765.697               1.173E+01     3.095
  764.637               1.265E+01     2.623
  763.579               1.127E+01     2.760
  762.524               1.093E+01     3.074
  761.470               1.200E+01     2.977
  760.419               1.143E+01     3.052
  759.370               1.293E+01     2.997
  758.323               1.806E+01     2.498
  757.278               1.469E+01     2.476
  756.236               1.217E+01     2.835
  755.195               1.057E+01     3.243
  754.157               1.098E+01     3.432
  753.121               1.087E+01     3.230
  752.087               8.804E+00     3.290
  751.055               8.318E+00     3.626
  750.025               8.407E+00     3.642
  748.997               9.056E+00     3.506
  747.972               8.423E+00     3.580
  746.948               8.938E+00     3.555
  745.927               1.003E+01     3.219
  744.908               1.133E+01     3.115
  743.891               1.021E+01     3.039
  742.876               7.439E+00     3.643
  741.863               6.695E+00     4.158
  740.852               7.781E+00     4.348
  739.843               8.977E+00     3.774
  738.836               9.864E+00     3.092
  737.831               9.414E+00     3.190
  736.828               1.027E+01     3.264
  735.828               9.614E+00     3.609
  734.829               9.428E+00     3.591
  733.833               1.283E+01     3.356
  732.838               1.826E+01     2.690
  731.845               2.157E+01     2.216
  730.855               1.913E+01     2.230
  729.866               1.665E+01     2.532
  728.880               1.531E+01     2.913
  727.895               1.413E+01     2.910
  726.913               1.300E+01     2.930
  725.932               1.018E+01     3.327
  724.954               9.192E+00     3.437
  723.977               1.044E+01     3.478
  723.002               1.138E+01     3.263
  722.030               1.231E+01     3.162
  721.059               1.120E+01     2.977
  720.090               1.139E+01     3.073
  719.124               1.342E+01     3.043
  718.159               1.152E+01     3.110
  717.196       .9618   1.125E+01     3.217
  716.235               1.197E+01     3.098
  715.276               1.155E+01     3.064
  714.319               1.124E+01     3.143
  713.364               9.355E+00     3.218
  712.410               8.272E+00     3.567
  711.459               8.440E+00     3.853
  710.510               9.710E+00     3.852
  709.562               1.119E+01     3.199
  708.616               1.237E+01     2.771
  707.673               1.016E+01     3.026
  706.731               7.122E+00     4.022
  705.791               7.661E+00     4.641
  704.853               8.343E+00     4.084
  703.916               8.868E+00     3.539
  702.982               1.022E+01     3.272
  702.049               1.126E+01     3.113
  701.119               9.846E+00     3.160
  700.190               9.769E+00     3.417
  699.263               1.126E+01     3.293
  698.338               1.178E+01     3.028
  697.414               1.108E+01     3.059
  696.493               1.047E+01     3.218
  695.573               9.753E+00     3.187
  694.655               1.015E+01     3.519
  693.739               1.041E+01     3.498
  692.825               1.351E+01     3.072
  691.913               1.723E+01     2.640
  691.002               1.601E+01     2.534
  690.093               1.372E+01     2.791
  689.186               1.471E+01     3.025
  688.281               1.211E+01     2.954
  687.378               9.209E+00     3.272
  686.476               7.472E+00     4.294
  685.576               7.167E+00     4.591
  684.678               8.425E+00     3.828
  683.781               9.241E+00     3.455
  682.887               1.104E+01     3.516
  681.994               1.375E+01     3.067
  681.103               1.861E+01     2.500
  680.214               1.952E+01     2.428
  679.326               1.722E+01     2.643
  678.440               1.994E+01     2.638
  677.556               2.149E+01     2.434
  676.673               2.247E+01     2.334
  675.793               2.426E+01     2.302
  674.914               2.060E+01     2.368
  674.036               2.152E+01     2.574
  673.161               1.780E+01     2.672
  672.287               1.725E+01     2.739
  671.415               1.523E+01     2.766
  670.544               1.295E+01     2.960
  669.676               1.139E+01     3.274
  668.809               8.736E+00     3.718
  667.943               8.449E+00     3.951
  667.079               1.037E+01     3.644
  666.217               1.444E+01     3.050
  665.357               1.823E+01     2.596
  664.498               1.796E+01     2.477
  663.641               1.305E+01     2.629
  662.786               1.330E+01     2.893
  661.932               1.112E+01     3.083
  661.080               1.058E+01     3.332
  660.230               8.124E+00     3.887
  659.381               8.919E+00     4.153
  658.534               1.040E+01     3.572
  657.688               1.164E+01     3.187
  656.844               1.115E+01     3.133
  656.002               9.732E+00     3.198
  655.161               8.805E+00     3.603
  654.322               7.509E+00     3.910
  653.485               6.188E+00     4.224
  652.649               5.688E+00     4.244
  651.815               6.547E+00     4.094
  650.982               4.922E+00     4.158
  650.151               3.763E+00     6.020
  649.321               4.021E+00     6.645
  648.494               5.548E+00     4.914
  647.667               5.935E+00     4.542
  646.843               7.156E+00     4.742
  646.019               9.500E+00     3.692
  645.198               1.046E+01     3.300
  644.378               1.114E+01     3.766
  643.559               1.083E+01     3.921
  642.742               9.037E+00     4.143
  641.927               8.156E+00     4.441
  641.113               7.712E+00     4.614
  640.301               8.060E+00     4.457
  639.490               8.577E+00     4.106
  638.681               1.014E+01     3.714
  637.874               1.064E+01     3.142
  637.068               8.915E+00     3.848
  636.263               8.667E+00     4.061
  635.460               1.033E+01     3.891
  634.659               1.113E+01     3.482
  633.859               1.016E+01     3.578
  633.060               1.127E+01     3.627
  632.263               1.129E+01     3.382
  631.468               1.219E+01     3.274
  630.674               1.150E+01     3.230
  629.881       .7917   1.174E+01     3.231
  629.090               1.313E+01     3.233
  628.301               1.495E+01     2.988
  627.513               1.448E+01     2.899
  626.726               1.113E+01     3.097
  625.941               1.110E+01     3.273
  625.157               1.024E+01     3.209
  624.375               8.889E+00     3.352
  623.595               7.075E+00     4.003
  622.816               5.214E+00     4.760
  622.038               4.052E+00     4.980
  621.262               3.391E+00     5.482
  620.487               3.941E+00     6.136
  619.713               6.362E+00     5.611
  618.941               1.047E+01     4.076
  618.171               1.374E+01     3.066
  617.402               1.300E+01     2.895
  616.634               1.149E+01     3.173
  615.868               1.149E+01     3.211
  615.103               1.111E+01     3.324
  614.340               1.023E+01     3.366
  613.578               8.478E+00     3.395
  612.818               9.268E+00     3.920
  612.059               1.098E+01     3.566
  611.301               1.419E+01     3.032
  610.545               1.675E+01     2.849
  609.790               1.718E+01     2.620
  609.036               1.740E+01     2.548
  608.284               1.502E+01     2.786
  607.534               1.282E+01     3.024
  606.784               1.175E+01     3.596
  606.036               1.048E+01     3.932
  605.290               1.112E+01     3.833
  604.545               1.441E+01     3.583
  603.801               1.955E+01     2.854
  603.059               2.011E+01     2.398
  602.318               1.882E+01     2.389
  601.578               1.657E+01     2.595
  600.840               1.505E+01     3.005
  600.103               1.411E+01     3.104
  599.367               1.413E+01     3.138
  598.633               1.337E+01     3.102
  597.900               1.254E+01     3.121
  597.169               8.656E+00     3.748
  596.438               8.580E+00     4.440
  595.709               1.214E+01     4.076
  594.982               1.318E+01     3.453
  594.256               1.539E+01     2.966
  593.531               1.411E+01     2.860
  592.807               1.249E+01     3.127
  592.085               1.418E+01     3.414
  591.364               1.665E+01     3.215
  590.645               2.094E+01     2.829
  589.926               2.425E+01     2.423
  589.209               2.403E+01     2.210
  588.494               1.973E+01     2.360
  587.779               1.836E+01     2.798
  587.066               1.650E+01     2.947
  586.355               1.543E+01     3.121
  585.644               1.441E+01     3.198
  584.935               1.682E+01     2.982
  584.227               1.711E+01     2.880
  583.521               1.455E+01     3.010
  582.815               1.299E+01     3.325
  582.111               1.226E+01     3.584
  581.408               9.835E+00     3.938
  580.707               7.973E+00     4.532
  580.007               7.504E+00     4.835
  579.308               8.299E+00     4.808
  578.610               8.538E+00     4.012
  577.914               1.218E+01     3.948
  577.218               1.654E+01     3.062
  576.524               2.124E+01     2.741
  575.832               2.266E+01     2.462
  575.140               2.054E+01     2.537
  574.450               2.051E+01     2.751
  573.761               1.850E+01     2.851
  573.074               2.031E+01     3.031
  572.387               2.699E+01     2.554
  571.702               2.841E+01     2.217
  571.018               2.506E+01     2.260
  570.335               2.549E+01     2.358
  569.653               2.081E+01     2.550
  568.973               1.600E+01     2.874
  568.294               1.579E+01     3.214
  567.616               1.166E+01     3.515
  566.939               1.121E+01     3.767
  566.264               1.140E+01     3.528
  565.590               1.186E+01     3.465
  564.917               1.194E+01     3.306
  564.245               1.181E+01     3.252
  563.574               1.214E+01     3.263
  562.905               1.074E+01     3.414
  562.236               1.034E+01     3.524
  561.569               1.034E+01     3.633
  560.903               1.172E+01     3.615
  560.239               1.344E+01     3.255
  559.575               1.234E+01     3.178
  558.913               1.232E+01     3.348
  558.251               1.389E+01     3.407
  557.591       .6594   1.593E+01     3.060
  556.933               1.931E+01     2.663
  556.275               1.861E+01     2.602
  555.618               1.578E+01     2.715
  554.963               1.260E+01     2.924
  554.309               9.842E+00     3.604
  553.656               6.712E+00     4.562
  553.004               5.206E+00     5.762
  552.353               5.508E+00     5.948
  551.704               7.578E+00     4.909
  551.055               9.555E+00     3.899
  550.408               8.542E+00     3.305
  549.762               6.678E+00     3.685
  549.117               5.862E+00     4.425
  548.473               5.525E+00     5.043
  547.830               5.347E+00     5.359
  547.188               7.193E+00     5.185
  546.548               9.841E+00     4.878
  545.908               1.620E+01     3.602
  545.270               1.794E+01     2.543
  544.633               1.743E+01     2.625
  543.997               1.704E+01     2.936
  543.362               2.082E+01     2.684
  542.728               2.194E+01     2.509
  542.096               2.237E+01     2.567
  541.464               2.109E+01     2.443
  540.834               1.534E+01     2.845
  540.204               1.256E+01     3.459
  539.576               1.238E+01     3.612
  538.949               1.124E+01     3.700
  538.323               1.174E+01     3.771
  537.698               1.587E+01     3.296
  537.074               1.808E+01     2.871
  536.451               1.681E+01     2.778
  535.829               1.531E+01     2.932
  535.208               1.239E+01     3.167
  534.589               1.385E+01     3.520
  533.970               1.160E+01     3.465
  533.353               1.032E+01     3.433
  532.737               8.230E+00     3.834
  532.121               8.179E+00     4.499
  531.507               9.305E+00     4.340
  530.894               1.412E+01     3.806
  530.282               1.768E+01     3.031
  529.671               1.973E+01     2.664
  529.061               1.916E+01     2.574
  528.452               1.821E+01     2.710
  527.844               1.888E+01     2.953
  527.237               1.907E+01     2.834
  526.631               1.585E+01     2.816
  526.026               1.228E+01     3.159
  525.423               9.731E+00     3.715
  524.820               1.011E+01     4.555
  524.218               1.131E+01     4.463
  523.618               1.228E+01     3.484
  523.018               1.185E+01     3.217
  522.420               9.235E+00     3.399
  521.822               7.661E+00     4.230
  521.226               7.987E+00     4.532
  520.630               9.128E+00     4.551
  520.036               1.221E+01     3.895
  519.442               1.775E+01     3.043
  518.850               1.942E+01     2.551
  518.258               1.564E+01     2.768
  517.668               1.158E+01     3.350
  517.078               9.907E+00     3.921
  516.490               7.836E+00     4.931
  515.903               7.543E+00     4.944
  515.316               7.588E+00     4.809
  514.731               1.013E+01     4.626
  514.147               1.369E+01     4.088
  513.563               2.265E+01     3.248
  512.981               3.293E+01     2.346
  512.399               3.482E+01     2.184
  511.819               3.361E+01     2.169
  511.239               3.703E+01     2.148
  510.661               3.825E+01     2.127
  510.084               3.083E+01     2.195
  509.507               2.608E+01     2.380
  508.932               2.104E+01     2.557
  508.357               1.706E+01     2.959
  507.783               1.733E+01     3.373
  507.211               1.751E+01     3.202
  506.639               1.775E+01     2.998
  506.068               1.692E+01     2.935
  505.499               1.658E+01     2.944
  504.930               1.697E+01     2.966
  504.362               1.653E+01     3.121
  503.795               1.585E+01     3.272
  503.230               1.682E+01     3.319
  502.665               2.084E+01     3.013
  502.101               2.262E+01     2.761
  501.538               2.311E+01     2.627
  500.976               2.316E+01     2.616
  500.414               2.284E+01     2.731
  499.854               2.302E+01     2.720
  499.295               2.505E+01     2.544
  498.737               2.217E+01     2.491
  498.179               1.881E+01     2.674
  497.623               1.665E+01     2.890
  497.067       .5550   1.500E+01     3.254
  496.513               1.359E+01     3.711
  495.959               1.381E+01     3.514
  495.406               1.575E+01     3.231
  494.855               1.677E+01     2.926
  494.304               1.404E+01     3.003
  493.754               1.174E+01     3.428
  493.205               1.088E+01     3.861
  492.657               9.759E+00     4.104
  492.109               9.237E+00     4.093
  491.563               9.809E+00     4.068
  491.018               9.606E+00     3.993
  490.473               1.357E+01     4.119
  489.930               1.781E+01     3.371
  489.387               1.748E+01     2.732
  488.845               1.805E+01     2.845
  488.304               1.629E+01     2.693
  487.764               1.387E+01     3.286
  487.225               1.333E+01     3.550
  486.687               1.317E+01     3.915
  486.150               1.267E+01     3.509
  485.613               9.771E+00     3.660
  485.078               1.097E+01     3.843
  484.543               1.217E+01     4.028
  484.009               1.057E+01     3.712
  483.476               1.099E+01     3.416
  482.944               1.237E+01     3.572
  482.413               1.307E+01     3.493
  481.883               1.444E+01     3.439
  481.354               1.910E+01     3.164
  480.825               2.625E+01     2.735
  480.298               2.577E+01     2.403
  479.771               2.237E+01     2.505
  479.245               2.305E+01     2.770
  478.720               2.447E+01     2.633
  478.196               2.105E+01     2.522
  477.672               1.756E+01     2.790
  477.150               1.362E+01     3.329
  476.628               1.275E+01     3.428
  476.108               1.092E+01     3.477
  475.588               9.611E+00     3.833
  475.069               7.572E+00     4.169
  474.551               7.559E+00     4.504
  474.033               7.228E+00     4.858
  473.517               6.816E+00     5.321
  473.001               6.204E+00     5.382
  472.486               7.743E+00     5.110
  471.972               1.102E+01     4.594
  471.459               1.756E+01     3.362
  470.947               1.742E+01     2.643
  470.435               1.379E+01     2.800
  469.925               1.127E+01     3.159
  469.415               1.416E+01     3.574
  468.906               1.500E+00     3.628
  468.398               1.453E+01     3.140
  467.891               1.521E+01     3.228
  467.384               1.299E+01     3.202
  466.878               1.056E+01     3.535
  466.374               1.113E+01     3.999
  465.870               1.106E+01     3.703
  465.366               8.568E+00     3.705
  464.864               7.840E+00     4.203
  464.362               1.043E+01     4.920
  463.862               1.809E+01     3.989
  463.362               2.751E+01     2.926
  462.862               2.705E+01     2.237
  462.364               2.574E+01     2.449
  461.867               2.507E+01     2.764
  461.370               2.584E+01     2.709
  460.874               2.187E+01     2.633
  460.379               1.622E+01     2.794
  459.884               1.494E+01     3.544
  459.391               1.289E+01     4.154
  458.898               1.519E+01     3.654
  458.406               1.437E+01     3.410
  457.915               1.589E+01     3.150
  457.424               1.515E+01     3.095
  456.935               1.095E+01     3.485
  456.446               8.138E+00     4.085
  455.958               7.563E+00     4.655
  455.471               6.987E+00     4.461
  454.984               6.526E+00     4.600
  454.499               6.292E+00     4.927
  454.014               7.512E+00     4.964
  453.530               1.070E+01     4.335
  453.046               1.313E+01     3.535
  452.564               1.137E+01     3.190
  452.082               9.412E+00     3.458
  451.601               7.960E+00     4.237
  451.121               8.743E+00     4.912
  450.641               9.650E+00     5.106
  450.162               1.148E+01     4.581
  449.684               1.311E+01     4.094
  449.207               1.485E+01     3.628
  448.731               1.433E+01     3.392
  448.255               1.399E+01     3.396
  447.780               1.347E+01     3.312
  447.306               1.030E+01     3.300
  446.832               8.209E+00     3.941
  446.360               7.205E+00     4.409
  445.888       .4641   5.716E+00     5.390
  445.416               4.946E+00     5.949
  444.946               4.807E+00     5.593
  444.476               5.613E+00     5.372
  444.007               6.793E+00     5.317
  443.539               6.113E+00     5.014
  443.072               6.791E+00     5.152
  442.605               1.067E+01     5.290
  442.139               1.624E+01     4.231
  441.674               2.230E+01     3.126
  441.209               2.415E+01     2.564
  440.745               2.063E+01     2.785
  440.282               2.436E+01     2.977
  439.820               2.499E+01     2.576
  439.358               2.477E+01     2.475
  438.897               2.170E+01     2.691
  438.437               2.162E+01     2.754
  437.978               1.965E+01     2.759
  437.519               1.533E+01     3.049
  437.061               1.169E+01     3.625
  436.604               1.089E+01     3.866
  436.147               9.010E+00     4.608
  435.691               7.156E+00     5.130
  435.236               8.756E+00     5.066
  434.782               1.280E+01     4.869
  434.328               1.912E+01     3.589
  433.875               2.340E+01     2.928
  433.423               2.885E+01     2.586
  432.971               2.870E+01     2.392
  432.520               2.523E+01     2.369
  432.070               1.883E+01     2.631
  431.621               1.548E+01     3.245
  431.172               1.457E+01     3.718
  430.724               1.646E+01     3.601
  430.276               1.969E+01     3.153
  429.830               1.882E+01     2.846
  429.384               1.835E+01     2.836
  428.938               1.840E+01     2.994
  428.494               1.761E+01     3.109
  428.050               1.566E+01     3.162
  427.607               1.461E+01     3.422
  427.164               1.516E+01     3.485
  426.722               1.479E+01     3.477
  426.281               1.421E+01     3.338
  425.841               1.619E+01     3.492
  425.401               1.695E+01     3.434
  424.962               1.900E+01     3.215
  424.523               1.819E+01     2.950
  424.086               1.835E+01     3.033
  423.648               1.904E+01     3.296
  423.212               2.068E+01     3.057
  422.776               2.164E+01     2.851
  422.341               2.117E+01     2.642
  421.907               1.598E+01     2.645
  421.473               1.391E+01     3.310
  421.040               1.237E+01     3.844
  420.608               1.018E+01     4.506
  420.176               1.039E+01     4.703
  419.745               1.262E+01     4.498
  419.315               1.590E+01     3.704
  418.885               1.577E+01     3.229
  418.456               1.946E+01     3.099
  418.027               2.297E+01     2.985
  417.600               2.275E+01     2.632
  417.173               2.071E+01     2.647
  416.746               1.388E+01     2.913
  416.320               1.158E+01     3.544
  415.895               1.308E+01     4.480
  415.471               1.387E+01     4.321
  415.047               1.501E+01     3.713
  414.624               1.507E+01     3.494
  414.201               1.497E+01     3.369
  413.779               1.441E+01     3.325
  413.358               1.261E+01     3.425
  412.937               1.066E+01     3.568
  412.517               6.678E+00     4.106
  412.098               7.306E+00     5.283
  411.679               6.377E+00     5.361
  411.261               4.744E+00     5.475
  410.844               5.186E+00     6.227
  410.427               5.906E+00     5.810
  410.011               5.237E+00     5.236
  409.596               5.753E+00     5.111
  409.181               4.845E+00     5.323
  408.766               6.900E+00     5.867
  408.353               1.010E+01     5.137
  407.940               1.123E+01     3.986
  407.527               1.121E+01     3.568
  407.116               1.062E+01     3.509
  406.705               1.012E+01     3.832
  406.294               1.090E+01     4.287
  405.884               1.092E+01     4.250
  405.475               1.282E+01     4.040
  405.066               1.673E+01     3.497
  404.658               1.761E+01     2.908
  404.251               1.695E+01     3.041
  403.844               1.485E+01     3.024
  403.438               1.184E+01     3.261
  403.032               9.688E+00     3.950
  402.627               9.355E+00     4.533
  402.223       .4040   1.046E+01     4.537
  401.819               1.171E+01     4.329
  401.416               1.096E+01     3.791
  401.014               1.070E+01     3.737
  400.612               8.670E+00     4.059
  400.210               9.156E+00     4.471
  399.810               8.977E+00     4.627
  399.410               7.737E+00     4.375
  399.010               6.224E+00     4.878
  398.611               5.799E+00     5.696
  398.213               5.168E+00     5.060
  397.815               6.766E+00     6.138
  397.418               6.746E+00     5.745
  397.022               1.009E+01     5.028
  396.626               1.397E+01     4.143
  396.230               1.703E+01     3.431
  395.836               1.758E+01     2.966
  395.441               1.559E+01     2.932
  395.048               1.280E+01     3.144
  394.655               1.058E+01     3.722
  394.262               8.655E+00     4.157
  393.871               8.601E+00     4.832
  393.479               7.913E+00     4.877
  393.089               8.659E+00     4.466
  392.699               1.070E+01     4.474
  392.309               1.312E+01     3.970
  391.920               1.644E+01     3.452
  391.532               1.649E+01     3.023
  391.144               1.578E+01     2.971
  390.757               1.125E+01     3.324
  390.371               8.728E+00     3.913
  389.985               6.640E+00     4.986
  389.599               5.295E+00     5.825
  389.214               4.012E+00     6.661
  388.830               4.443E+00     7.575
  388.446               5.661E+00     6.602
  388.063               8.264E+00     5.334
  387.680               1.205E+01     4.339
  387.298               1.843E+01     3.719
  386.917               2.017E+01     3.163
  386.536               1.846E+01     2.813
  386.156               1.574E+01     2.902
  385.776               1.015E+01     3.331
  385.397               9.115E+00     4.475
  385.018               8.827E+00     5.411
  384.640               8.258E+00     5.326
  384.262               7.203E+00     5.223
  383.885               7.718E+00     5.082
  383.509               9.928E+00     4.977
  383.133               1.274E+01     5.149
  382.757               1.446E+01     3.670
  382.383               1.435E+01     3.291
  382.008               1.236E+01     3.049
  381.635               1.245E+01     3.793
  381.262               1.260E+01     3.726
  380.889               1.402E+01     3.599
  380.517               1.265E+01     3.733
  380.145               1.469E+01     3.963
  379.775               2.137E+01     3.711
  379.404               2.484E+01     3.042
  379.034               2.529E+01     2.689
  378.665               2.025E+01     2.519
  378.296               2.040E+01     2.892
  377.928               1.454E+01     3.373
  377.560               1.542E+01     3.603
  377.193               1.363E+01     3.696
  376.826               1.260E+01     3.585
  376.460               9.241E+00     3.837
  376.095               7.700E+00     4.246
  375.730               6.129E+00     5.120
  375.365               6.167E+00     5.980
  375.001               4.739E+00     6.031
  374.638               4.353E+00     6.379
  374.275               4.285E+00     6.936
  373.912               4.742E+00     6.765
  373.550               5.488E+00     6.403
  373.189               7.473E+00     5.868
  372.828               8.105E+00     4.969
  372.468               8.422E+00     4.440
  372.108               7.512E+00     4.415
  371.749               7.938E+00     4.778
  371.390               8.810E+00     5.086
  371.032               9.659E+00     4.656
  370.674               9.569E+00     4.208
  370.317               1.142E+01     3.923
  369.960               1.322E+01     3.808
  369.604               1.162E+01     3.646
  369.248               1.017E+01     3.598
  368.893               8.414E+00     3.858
  368.539               8.162E+00     4.346
  368.185               8.197E+00     4.554
  367.831               7.119E+00     4.877
  367.478               6.109E+00     5.127
  367.125               6.162E+00     5.246
  366.773               5.736E+00     5.850
  366.422               5.291E+00     5.588
  366.071               8.106E+00     6.518
  365.720               9.031E+00     5.504
  365.370               1.320E+01     4.796
  365.020               1.536E+01     3.809
  364.671       .3487   1.688E+01     3.469
  364.323               1.634E+01     3.130
  363.975               1.554E+01     3.336
  363.627               1.437E+01     3.453
  363.280               1.254E+01     3.575
  362.934               1.083E+01     3.904
  362.588               1.061E+01     3.977
  362.242               1.062E+01     4.688
  361.897               1.115E+01     4.567
  361.552               1.499E+01     4.328
  361.208               1.581E+01     3.777
  360.865               1.454E+01     3.272
  360.521               1.661E+01     3.224
  360.179               1.543E+01     3.411
  359.837               1.348E+01     3.636
  359.495               1.278E+01     3.798
  359.154               1.365E+01     3.927
  358.813               9.713E+00     3.780
  358.473               9.392E+00     4.124
  358.133               7.772E+00     4.859
  357.794               7.358E+00     5.138
  357.455               8.058E+00     5.301
  357.117               7.790E+00     4.765
  356.779               8.371E+00     4.466
  356.442               8.540E+00     4.426
  356.105               1.092E+01     4.156
  355.769               1.249E+01     4.040
  355.433               1.497E+01     3.868
  355.098               1.775E+01     3.647
  354.763               1.799E+01     3.354
  354.428               1.506E+01     3.268
  354.094               1.144E+01     3.549
  353.761               1.033E+01     4.110
  353.428               9.838E+00     4.631
  353.095               1.106E+01     4.577
  352.763               1.400E+01     4.403
  352.431               1.410E+01     3.903
  352.100               1.358E+01     3.506
  351.770               1.411E+01     3.559
  351.439               1.396E+01     3.651
  351.110               1.261E+01     3.693
  350.780               1.210E+01     3.737
  350.451               1.137E+01     3.891
  350.123               1.203E+01     3.798
  349.795               1.249E+01     4.162
  349.468               1.152E+01     4.333
  349.141               1.298E+01     4.617
  348.814               1.098E+01     4.444
  348.488               1.095E+01     4.164
  348.163               1.037E+01     4.648
  347.837               1.140E+01     3.941
  347.513               1.211E+01     4.149
  347.188               1.533E+01     4.203
  346.865               1.988E+01     4.079
  346.541               2.216E+01     3.426
  346.218               1.956E+01     2.899
  345.896               1.428E+01     3.019
  345.574               1.260E+01     3.454
  345.252               1.176E+01     4.233
  344.931               9.403E+00     4.724
  344.611               8.976E+00     5.345
  344.290               1.173E+01     5.397
  343.971               1.702E+01     4.842
  343.651               1.988E+01     3.793
  343.333               2.343E+01     3.082
  343.014               2.284E+01     2.831
  342.696               2.270E+01     2.821
  342.379               2.059E+01     3.043
  342.061               1.703E+01     3.379
  341.745               1.624E+01     3.609
  341.429               1.420E+01     3.704
  341.113               1.227E+01     3.880
  340.797               1.322E+01     4.284
  340.483               1.754E+01     4.361
  340.168               2.361E+01     3.820
  339.854               3.160E+01     3.131
  339.540               3.750E+01     2.636
  339.227               3.489E+01     2.378
  338.915               2.961E+01     2.463
  338.602               2.394E+01     2.796
  338.290               1.796E+01     3.315
  337.979               1.491E+01     3.869
  337.668               1.437E+01     4.162
  337.357               1.134E+01     4.287
  337.047               1.144E+01     4.757
  336.738               1.441E+01     5.380
  336.428               1.716E+01     4.381
  336.119               1.840E+01     3.419
  335.811               1.684E+01     3.214
  335.503               1.503E+01     3.172
  335.195               1.165E+01     3.837
  334.888               1.089E+01     4.386
  334.581               1.041E+01     4.621
  334.275               1.274E+01     5.152
  333.969               1.718E+01     4.733
  333.664               1.925E+01     3.528
  333.359               1.992E+01     3.381
  333.054               2.213E+01     3.263
  332.750               2.157E+01     3.235
  332.446               2.288E+01     3.241
  332.143       .3031   2.238E+01     2.969
  331.840               1.641E+01     3.062
  331.537               1.333E+01     3.343
  331.235               1.273E+01     3.640
  330.933               1.121E+01     4.332
  330.632               1.071E+01     5.210
  330.331               1.143E+01     5.119
  330.030               9.935E+00     4.657
  329.730               1.042E+01     4.301
  329.430               9.737E+00     4.297
  329.131               1.136E+01     4.630
  328.832               1.390E+01     4.542
  328.534               1.419E+01     3.947
  328.236               1.311E+01     3.687
  327.938               9.479E+00     3.836
  327.641               8.740E+00     4.338
  327.344               1.043E+01     5.076
  327.048               1.086E+01     5.433
  326.752               1.006E+01     4.763
  326.456               1.161E+01     4.071
  326.161               1.223E+01     3.941
  325.866               1.618E+01     4.009
  325.571               1.872E+01     3.735
  325.277               1.840E+01     3.396
  324.984               1.971E+01     3.247
  324.690               2.306E+01     3.165
  324.398               2.452E+01     3.186
  324.105               2.809E+01     3.106
  323.813               3.197E+01     2.798
  323.521               3.382E+01     2.576
  323.230               3.641E+01     2.517
  322.939               3.479E+01     2.555
  322.649               3.236E+01     2.582
  322.359               2.780E+01     2.545
  322.069               2.575E+01     2.735
  321.780               2.267E+01     2.856
  321.491               1.725E+01     3.147
  321.202               1.437E+01     3.483
  320.914               1.213E+01     3.814
  320.626               9.942E+00     4.541
  320.339               9.048E+00     4.461
  320.052               8.247E+00     4.906
  319.765               8.751E+00     5.176
  319.479               1.080E+01     5.140
  319.193               1.269E+01     4.240
  318.908               1.248E+01     3.726
  318.623               1.186E+01     3.720
  318.338               1.178E+01     3.888
  318.054               9.533E+00     4.426
  317.770               8.928E+00     4.637
  317.486               9.577E+00     5.162
  317.203               1.092E+01     4.698
  316.920               9.316E+00     4.516
  316.638               9.157E+00     4.321
  316.356               1.028E+01     4.392
  316.074               1.149E+01     4.474
  315.793               1.651E+01     4.361
  315.512               2.157E+01     3.667
  315.232               2.392E+01     3.201
  314.951               2.716E+01     2.866
  314.672               2.607E+01     2.634
  314.392               2.140E+01     2.632
  314.113               1.849E+01     2.789
  313.835               1.638E+01     3.106
  313.556               1.504E+01     3.795
  313.278               1.580E+01     4.332
  313.001               1.558E+01     4.197
  312.724               1.631E+01     3.647
  312.447               1.551E+01     3.284
  312.170               1.525E+01     3.417
  311.894               1.360E+01     3.573
  311.619               1.151E+01     3.760
  311.343               1.083E+01     4.021
  311.068               9.300E+00     4.587
  310.794               9.232E+00     4.535
  310.519               7.900E+00     4.799
  310.245               6.010E+00     5.194
  309.972               5.231E+00     5.767
  309.699               4.376E+00     5.966
  309.426               4.150E+00     6.603
  309.153               4.697E+00     7.860
  308.881               5.594E+00     7.089
  308.610               7.057E+00     6.381
  308.338               8.010E+00     5.470
  308.067               7.284E+00     4.612
  307.797               7.436E+00     5.189
  307.526               7.768E+00     5.142
  307.256               8.909E+00     4.965
  306.987               8.401E+00     4.593
  306.717               7.159E+00     4.650
  306.449               7.254E+00     5.042
  306.180               6.830E+00     4.971
  305.912               6.838E+00     5.207
  305.644               9.149E+00     5.505
  305.377               1.069E+01     5.043
  305.109               1.269E+01     4.352
  304.843               1.440E+01     3.641
  304.576               1.888E+01     3.400
  304.310               1.719E+01     3.347
  304.044               1.432E+01     3.383
  303.779       .2651   1.123E+01     3.461
  303.514               1.011E+01     4.124
  303.249               1.010E+01     4.699
  302.985               1.110E+01     4.900
  302.721               1.083E+01     4.814
  302.457               1.294E+01     4.442
  302.194               1.144E+01     4.175
  301.931               1.174E+01     4.047
  301.669               8.830E+00     4.032
  301.406               8.534E+00     4.485
  301.144               8.450E+00     4.641
  300.883               7.224E+00     4.484
  300.621               8.176E+00     5.025
  300.361               7.706E+00     5.560
  300.100               8.166E+00     5.178
  299.840               7.874E+00     4.709
  299.580               5.793E+00     4.800
  299.320               4.304E+00     5.345
  299.061               6.430E+00     6.060
  298.802               9.636E+00     6.144
  298.544               1.317E+01     5.464
  298.285               1.804E+01     4.367
  298.028               1.939E+01     3.482
  297.770               1.714E+01     3.028
  297.513               1.301E+01     2.896
  297.256               1.276E+01     3.440
  296.999               1.074E+01     4.437
  296.743               9.628E+00     4.590
  296.487               8.973E+00     5.082
  296.232               1.077E+01     4.780
  295.977               1.273E+01     4.388
  295.722               1.408E+01     4.224
  295.467               1.334E+01     3.606
  295.213               1.287E+01     3.702
  294.959               1.105E+01     3.848
  294.705               1.054E+01     4.143
  294.452               8.821E+00     4.422
  294.199               7.096E+00     4.900
  293.947               6.185E+00     5.975
  293.694               5.373E+00     5.813
  293.442               4.879E+00     6.371
  293.191               4.621E+00     6.798
  292.939               4.905E+00     6.802
  292.688               4.893E+00     6.669
  292.438               5.385E+00     6.121
  292.187               6.553E+00     6.354
  291.937               7.429E+00     5.285
  291.688               8.761E+00     5.090
  291.438               9.831E+00     4.503
  291.189               8.074E+00     4.489
  290.941               1.059E+01     4.771
  290.692               1.195E+01     4.970
  290.444               1.406E+01     4.923
  290.196               1.599E+01     4.712
  289.949               2.405E+01     4.203
  289.702               2.739E+01     3.389
  289.455               3.186E+01     2.997
  289.208               3.717E+01     2.765
  288.962               3.798E+01     2.636
  288.716               3.526E+01     2.525
  288.471               2.577E+01     2.449
  288.225               2.375E+01     2.582
  287.981               1.990E+01     2.943
  287.736               1.818E+01     3.506
  287.492               1.984E+01     3.635
  287.248               1.841E+01     3.751
  287.004               1.669E+01     3.613
  286.760               1.718E+01     3.349
  286.517               1.279E+01     3.579
  286.275               1.175E+01     3.902
  286.032               1.208E+01     4.353
  285.790               1.258E+01     4.741
  285.548               1.199E+01     4.919
  285.307               1.091E+01     4.453
  285.065               1.042E+01     4.325
  284.824               8.631E+00     4.403
  284.584               7.463E+00     4.468
  284.344               6.547E+00     5.236
  284.103               6.281E+00     5.472
  283.864               6.067E+00     6.316
  283.624               5.164E+00     7.057
  283.385               4.373E+00     5.794
  283.146               4.275E+00     8.207
  282.908               3.426E+00     9.726
  282.670               2.646E+00     9.340
  282.432               2.784E+00     8.266
  282.194               2.794E+00     8.010
  281.957               3.435E+00     7.907
  281.720               4.402E+00     7.817
  281.483               6.133E+00     7.595
  281.247               8.279E+00     6.122
  281.011               8.803E+00     5.189
  280.775               1.004E+01     4.906
  280.539               1.198E+01     4.611
  280.304               1.647E+01     4.701
  280.069               2.372E+01     4.183
  279.835               2.894E+01     3.428
  279.600               3.217E+01     2.739
  279.366               3.764E+01     2.611
  279.133               3.568E+01     2.595
  278.899       .2332   3.165E+01     2.620
  278.666               2.850E+01     2.674
  278.433               2.292E+01     2.868
  278.201               2.027E+01     3.204
  277.968               1.503E+01     3.572
  277.736               1.570E+01     4.115
  277.505               1.147E+01     4.714
  277.273               1.236E+01     4.914
  277.042               1.821E+01     5.066
  276.811               2.816E+01     4.882
  276.581               4.168E+01     3.669
  276.350               4.727E+01     2.726
  276.120               4.417E+01     2.271
  275.891               3.682E+01     2.167
  275.661               2.865E+01     2.278
  275.432               2.242E+01     2.898
  275.203               1.734E+01     3.719
  274.975               1.551E+01     4.466
  274.747               1.419E+01     4.625
  274.519               1.258E+01     4.359
  274.291               1.188E+01     4.187
  274.064               9.862E+00     4.518
  273.836               9.760E+00     4.319
  273.610               1.207E+01     5.124
  273.383               1.540E+01     4.824
  273.157               1.894E+01     4.477
  272.931               2.422E+01     3.846
  272.705               3.348E+01     3.246
  272.480               4.391E+01     2.973
  272.254               4.902E+01     2.422
  272.030               4.046E+01     2.242
  271.805               3.502E+01     2.242
  271.581               2.771E+01     2.446
  271.357               2.265E+01     3.018
  271.133               2.249E+01     3.673
  270.909               2.546E+01     3.963
  270.686               2.713E+01     3.867
  270.463               2.874E+01     3.493
  270.240               3.078E+01     3.041
  270.018               3.544E+01     2.830
  269.796               3.718E+01     2.759
  269.574               3.589E+01     2.657
  269.353               3.529E+01     2.634
  269.131               3.416E+01     2.639
  268.910               3.448E+01     2.740
  268.690               3.188E+01     2.679
  268.469               2.747E+01     2.716
  268.249               2.658E+01     2.949
  268.029               2.754E+01     3.130
  267.809               2.697E+01     3.172
  267.590               2.414E+01     3.083
  267.371               2.490E+01     3.142
  267.152               2.118E+01     3.396
  266.933               2.090E+01     3.480
  266.715               2.322E+01     3.515
  266.497               2.873E+01     3.614
  266.279               2.979E+01     3.389
  266.062               3.627E+01     3.051
  265.844               3.678E+01     2.758
  265.627               3.389E+01     2.556
  265.411               3.122E+01     2.490
  265.194               2.650E+01     2.610
  264.978               2.252E+01     2.929
  264.762               2.045E+01     3.141
  264.546               1.701E+01     3.757
  264.331               1.481E+01     4.018
  264.116               1.111E+01     4.366
  263.901               7.573E+00     4.579
  263.686               7.887E+00     5.465
  263.472               8.334E+00     6.574
  263.258               8.766E+00     6.093
  263.044               8.897E+00     6.160
  262.831               9.225E+00     5.628
  262.617               1.211E+01     5.766
  262.404               1.586E+01     5.132
  262.191               2.474E+01     4.782
  261.979               3.316E+01     3.873
  261.767               4.236E+01     3.058
  261.555               5.990E+01     2.809
  261.343               7.392E+01     2.500
  261.131               6.985E+01     2.022
  260.920               6.850E+01     1.917
  260.709               6.079E+01     1.989
  260.498               5.549E+01     2.115
  260.288               4.927E+01     2.360
  260.078               3.931E+01     2.462
  259.868               3.734E+01     2.708
  259.658               3.455E+01     2.956
  259.449               2.995E+01     2.931
  259.239               2.611E+01     2.963
  259.030               2.000E+01     3.188
  258.822               1.798E+01     3.525
  258.613               1.366E+01     4.160
  258.405               1.196E+01     4.440
  258.197               1.017E+01     4.471
  257.989               9.759E+00     4.794
  257.782               8.851E+00     4.858
  257.575               8.134E+00     4.971
  257.368               7.457E+00     5.566
  257.161               7.855E+00     6.005
  256.955       .2063   8.176E+00     5.693
  256.748               6.974E+00     5.458
  256.543               7.505E+00     5.472
  256.337               9.281E+00     5.550
  256.131               1.460E+01     5.838
  255.926               1.972E+01     5.238
  255.721               2.405E+01     4.155
  255.516               2.524E+01     3.383
  255.312               2.415E+01     2.987
  255.108               2.014E+01     2.868
  254.904               1.588E+01     3.010
  254.700               1.344E+01     3.627
  254.497               1.313E+01     4.403
  254.293               1.151E+01     4.625
  254.090               1.222E+01     5.222
  253.888               1.856E+01     4.929
  253.685               2.305E+01     4.694
  253.483               2.630E+01     3.772
  253.281               2.796E+01     3.239
  253.079               3.045E+01     2.937
  252.877               3.534E+01     2.821
  252.676               3.821E+01     2.831
  252.475               3.467E+01     2.639
  252.274               3.119E+01     2.659
  252.074               2.998E+01     2.656
  251.873               2.750E+01     2.812
  251.673               2.427E+01     3.025
  251.473               2.364E+01     3.629
  251.274               2.387E+01     3.855
  251.074               2.130E+01     3.418
  250.875               1.789E+01     3.511
  250.676               1.546E+01     3.556
  250.477               1.291E+01     3.902
  250.279               1.101E+01     4.652
  250.081               9.491E+00     5.391
  249.883               7.566E+00     5.319
  249.685               5.545E+00     6.247
  249.488               6.882E+00     6.585
  249.290               1.068E+01     6.284
  249.093               1.560E+01     6.349
  248.896               1.855E+01     5.747
  248.700               2.381E+01     3.989
  248.503               2.568E+01     3.262
  248.307               2.706E+01     2.947
  248.111               2.574E+01     2.867
  247.916               2.618E+01     2.948
  247.720               2.582E+01     3.125
  247.525               2.873E+01     3.114
  247.330               2.490E+01     2.948
  247.136               2.344E+01     2.991
  246.941               1.834E+01     3.219
  246.747               1.611E+01     3.594
  246.553               1.585E+01     3.887
  246.359               1.515E+01     4.360
  246.165               1.656E+01     4.724
  245.972               1.819E+01     4.133
  245.779               1.792E+01     4.011
  245.586               1.828E+01     3.759
  245.393               1.801E+01     3.329
  245.201               2.090E+01     3.597
  245.009               2.297E+01     3.406
  244.817               2.184E+01     3.359
  244.625               1.654E+01     3.328
  244.433               1.643E+01     3.687
  244.242               1.574E+01     4.251
  244.051               1.101E+01     4.195
  243.860               1.132E+01     4.773
  243.669               1.008E+01     4.994
  243.479               1.127E+01     5.682
  243.289               9.622E+00     5.280
  243.099               1.305E+01     4.838
  242.909               1.211E+01     5.311
  242.720               1.478E+01     4.342
  242.530               1.541E+01     4.196
  242.341               1.503E+01     4.179
  242.152               1.522E+01     4.154
  241.964               1.834E+01     3.877
  241.775               1.899E+01     3.865
  241.587               2.248E+01     3.794
  241.399               2.417E+01     3.830
  241.211               3.474E+01     3.572
  241.024               4.244E+01     3.325
  240.836               4.871E+01     2.700
  240.649               5.302E+01     2.447
  240.462               4.476E+01     2.359
  240.276               4.153E+01     2.411
  240.089               3.556E+01     2.577
  239.903               3.188E+01     2.758
  239.717               3.004E+01     2.969
  239.531               3.090E+01     3.214
  239.346               2.808E+01     3.232
  239.160               2.377E+01     3.259
  238.975               2.495E+01     3.247
  238.790               2.371E+01     3.297
  238.605               2.378E+01     3.312
  238.421               2.109E+01     3.322
  238.237               2.144E+01     3.656
  238.052               1.983E+01     3.932
  237.869               1.754E+01     3.865
  237.685               1.608E+01     3.825
  237.501       .1833   1.534E+01     3.989
  237.318               1.287E+01     4.309
  237.135               9.833E+00     4.594
  236.952               8.301E+00     5.609
  236.770               8.891E+00     5.470
  236.587               9.461E+00     5.918
  236.405               9.750E+00     5.670
  236.223               8.617E+00     4.986
  236.042               7.281E+00     4.730
  235.860               6.540E+00     5.428
  235.679               6.282E+00     5.744
  235.497               5.019E+00     6.611
  235.317               4.936E+00     7.360
  235.136               5.140E+00     6.871
  234.955               5.149E+00     6.886
  234.775               5.477E+00     7.467
  234.595               4.997E+00     6.641
  234.415               6.869E+00     7.313
  234.235               8.343E+00     6.937
  234.056               1.127E+01     7.170
  233.877               1.768E+01     5.651
  233.698               2.412E+01     4.467
  233.519               2.572E+01     3.508
  233.340               2.524E+01     3.101
  233.162               3.189E+01     3.056
  232.983               3.193E+01     3.245
  232.805               3.540E+01     3.330
  232.628               3.615E+01     3.078
  232.450               4.003E+01     2.755
  232.272               3.355E+01     2.628
  232.095               3.029E+01     2.747
  231.918               2.932E+01     2.986
  231.741               3.199E+01     3.260
  231.565               3.631E+01     3.550
  231.388               4.034E+01     3.391
  231.212               4.514E+01     2.995
  231.036               5.104E+01     2.682
  230.860               4.905E+01     2.504
  230.685               4.941E+01     2.322
  230.509               4.449E+01     2.342
  230.334               4.000E+01     2.501
  230.159               3.061E+01     2.626
  229.984               2.232E+01     2.921
  229.810               1.913E+01     3.406
  229.635               1.716E+01     4.058
  229.461               1.645E+01     4.758
  229.287               1.497E+01     5.102
  229.113               1.620E+01     4.892
  228.940               2.187E+01     4.620
  228.766               2.290E+01     3.979
  228.593               2.109E+01     3.682
  228.420               1.949E+01     3.416
  228.247               1.559E+01     3.487
  228.074               1.465E+01     3.542
  227.902               1.388E+01     3.823
  227.730               1.130E+01     4.078
  227.558               1.095E+01     4.787
  227.386               1.181E+01     5.014
  227.214               1.378E+01     4.988
  227.043               1.387E+01     5.390
  226.871               1.739E+01     4.710
  226.700               2.038E+01     4.114
  226.529               2.280E+01     3.973
  226.359               2.299E+01     3.491
  226.188               2.265E+01     3.369
  226.018               2.129E+01     3.186
  225.848               2.082E+01     3.147
  225.678               1.969E+01     3.448
  225.508               1.761E+01     3.760
  225.339               1.736E+01     4.134
  225.169               1.931E+01     4.525
  225.000               2.333E+01     4.487
  224.831               2.753E+01     4.010
  224.662               3.443E+01     3.528
  224.494               4.234E+01     3.212
  224.325               4.689E+01     2.867
  224.157               3.800E+01     2.640
  223.989       .1679   3.325E+01     2.520
  223.802       .2515   2.610E+01     2.729
  223.550               2.630E+01     2.831
  223.300               2.823E+01     3.137
  223.049               3.698E+01     2.845
  222.799               3.945E+01     2.463
  222.550               3.080E+01     2.197
  222.301               2.498E+01     2.321
  222.052               2.465E+01     2.893
  221.803               2.738E+01     3.187
  221.556               3.486E+01     2.987
  221.308               4.090E+01     2.445
  221.061               4.205E+01     2.217
  220.814               4.919E+01     2.215
  220.568               5.709E+01     2.200
  220.322               6.132E+01     1.997
  220.077               5.780E+01     1.893
  219.832               4.737E+01     1.885
  219.587               3.496E+01     2.012
  219.343               2.679E+01     2.415
  219.099               2.318E+01     2.893
  218.856               1.807E+01     3.302
  218.613               1.756E+01     3.275
  218.370       .2424   1.380E+01     3.646
  218.128               1.410E+01     3.985
  217.886               1.249E+01     3.979
  217.645               1.245E+01     3.836
  217.404               1.492E+01     3.832
  217.164               1.737E+01     3.871
  216.923               2.113E+01     3.478
  216.684               2.290E+01     2.894
  216.444               1.924E+01     2.759
  216.205               1.737E+01     2.838
  215.967               1.420E+01     3.219
  215.729               1.251E+01     3.718
  215.491               1.137E+01     4.138
  215.253               1.016E+01     4.371
  215.016               1.022E+01     4.332
  214.780               1.374E+01     4.176
  214.544               1.535E+01     3.896
  214.308               1.412E+01     3.858
  214.072               1.755E+01     3.701
  213.837               2.586E+01     3.456
  213.603               3.861E+01     3.006
  213.368               4.803E+01     2.340
  213.134               4.809E+01     2.042
  212.901               3.618E+01     2.048
  212.668               2.751E+01     2.275
  212.435               2.295E+01     2.700
  212.203               1.924E+01     3.051
  211.971               1.434E+01     3.308
  211.739               1.535E+01     3.735
  211.508               1.627E+01     3.958
  211.277               1.830E+01     3.756
  211.046               1.907E+01     3.261
  210.816               1.989E+01     2.962
  210.587               2.069E+01     3.008
  210.357               1.876E+01     2.997
  210.128               1.798E+01     2.895
  209.900               1.406E+01     3.135
  209.672               1.186E+01     3.594
  209.444               9.914E+00     4.319
  209.216               9.129E+00     4.680
  208.989               7.806E+00     4.660
  208.762               6.483E+00     4.885
  208.536               5.038E+00     5.193
  208.310               3.857E+00     5.657
  208.084               4.888E+00     6.446
  207.859               5.783E+00     6.185
  207.634               6.725E+00     6.612
  207.410               9.243E+00     6.178
  207.186               1.818E+01     5.021
  206.962               2.757E+01     4.048
  206.738               2.995E+01     2.936
  206.515               2.840E+01     2.390
  206.292               2.148E+01     2.361
  206.070               1.735E+01     2.690
  205.848               1.382E+01     3.123
  205.626               1.172E+01     3.992
  205.405               1.084E+01     4.237
  205.184               1.003E+01     4.089
  204.964               8.391E+00     4.333
  204.743               7.076E+00     4.716
  204.524               6.202E+00     5.430
  204.304               6.705E+00     5.676
  204.085               9.278E+00     5.306
  203.866               1.435E+01     4.818
  203.648               2.161E+01     4.043
  203.430               2.504E+01     3.036
  203.212               2.248E+01     2.624
  202.994               2.189E+01     2.619
  202.777               1.853E+01     2.845
  202.561               1.337E+01     3.166
  202.344               1.066E+01     3.661
  202.128               1.177E+01     4.290
  201.913               1.295E+01     4.715
  201.697               1.258E+01     4.217
  201.482               1.497E+01     3.557
  201.268               1.178E+01     3.419
  201.053               1.045E+01     3.673
  200.839               1.334E+01     4.479
  200.626               1.780E+01     4.689
  200.413               3.410E+01     4.066
  200.200               5.190E+01     3.015
  199.987               6.312E+01     2.163
  199.775               5.832E+01     1.796
  199.563               4.515E+01     1.858
  199.351               3.799E+01     2.123
  199.140               3.273E+01     2.572
  198.929               3.073E+01     2.945
  198.719               3.500E+01     2.961
  198.508               3.614E+01     2.864
  198.299               3.889E+01     2.509
  198.089               4.000E+01     2.356
  197.880               3.624E+01     2.202
  197.671               3.402E+01     2.425
  197.462               2.961E+01     2.407
  197.254               2.639E+01     2.642
  197.046               2.062E+01     2.718
  196.838               1.775E+01     3.079
  196.631               1.337E+01     3.530
  196.424               1.172E+01     3.902
  196.218               1.139E+01     4.541
  196.011       .2061   1.053E+01     4.321
  195.805               9.330E+00     4.401
  195.600               7.176E+00     4.246
  195.395               6.544E+00     4.742
  195.190               6.197E+00     5.280
  194.985               7.031E+00     5.762
  194.781               7.481E+00     5.787
  194.577               9.194E+00     5.679
  194.373               1.421E+01     5.228
  194.169               1.969E+01     4.096
  193.966               2.491E+01     3.213
  193.764               2.817E+01     2.727
  193.561               2.367E+01     2.556
  193.359               1.838E+01     2.766
  193.157               1.421E+01     3.387
  192.956               1.156E+01     4.154
  192.755               1.218E+01     5.223
  192.554               1.827E+01     5.807
  192.353               3.211E+01     4.598
  192.153               4.643E+01     3.168
  191.953               4.769E+01     2.318
  191.754               4.142E+01     2.074
  191.554               3.105E+01     2.182
  191.355               2.166E+01     2.533
  191.157               1.701E+01     3.088
  190.958               1.360E+01     3.620
  190.760               1.072E+01     4.010
  190.563               8.364E+00     4.489
  190.365               7.962E+00     5.050
  190.168               9.166E+00     5.779
  189.971               9.716E+00     5.371
  189.775               1.607E+01     4.423
  189.579               2.437E+01     4.118
  189.383               2.707E+01     3.295
  189.187               2.752E+01     2.566
  188.992               2.398E+01     2.407
  188.797               1.931E+01     2.635
  188.602               1.261E+01     3.281
  188.408               1.079E+01     4.120
  188.214               8.866E+00     5.244
  188.020               5.754E+00     5.462
  187.826               5.539E+00     6.133
  187.633               5.301E+00     6.874
  187.440               6.396E+00     5.477
  187.248               8.379E+00     5.603
  187.055               9.337E+00     4.549
  186.863               1.012E+01     4.489
  186.672               1.220E+01     4.796
  186.480               1.236E+01     4.514
  186.289               1.070E+01     3.925
  186.098               1.051E+01     4.111
  185.908               9.023E+00     4.397
  185.717               7.974E+00     4.747
  185.527               7.781E+00     4.820
  185.338               5.912E+00     4.955
  185.148               5.140E+00     4.906
  184.959               3.562E+00     5.245
  184.771               2.540E+00     6.188
  184.582               3.148E+00     7.794
  184.394               3.256E+00     8.443
  184.206               3.856E+00     7.919
  184.018               3.721E+00     7.647
  183.831               4.691E+00     6.439
  183.644               5.045E+00     5.378
  183.457               5.926E+00     4.960
  183.271               6.855E+00     5.090
  183.084               8.337E+00     5.025
  182.899               9.319E+00     4.588
  182.713               7.718E+00     4.507
  182.528               8.992E+00     4.731
  182.342               1.221E+01     5.200
  182.158               1.791E+01     4.973
  181.973               2.294E+01     3.947
  181.789               2.493E+01     3.179
  181.605               2.594E+01     2.863
  181.421               2.399E+01     2.796
  181.238               2.047E+01     2.984
  181.055               1.777E+01     3.103
  180.872               1.755E+01     3.402
  180.689               1.649E+01     3.525
  180.507               1.971E+01     3.724
  180.325               2.720E+01     3.735
  180.143               3.313E+01     3.247
  179.962               3.271E+01     2.649
  179.781               2.755E+01     2.465
  179.600               2.121E+01     2.650
  179.419               1.684E+01     3.113
  179.239               1.423E+01     4.067
  179.059               1.341E+01     3.712
  178.879               1.200E+01     4.058
  178.699               1.389E+01     4.360
  178.520               1.660E+01     4.461
  178.341               1.975E+01     3.816
  178.162               2.246E+01     3.312
  177.984               2.219E+01     3.129
  177.805               2.949E+01     3.580
  177.628               5.140E+01     3.652
  177.450               6.996E+01     2.839
  177.272               7.739E+01     2.100
  177.095               7.198E+01     1.825
  176.918       .1767   6.111E+01     1.796
  176.742               5.102E+01     1.971
  176.565               4.943E+01     2.288
  176.389               4.100E+01     2.529
  176.214               3.950E+01     2.558
  176.038               3.384E+01     2.574
  175.863               2.972E+01     2.652
  175.688               2.346E+01     2.772
  175.513               2.061E+01     3.023
  175.338               1.888E+01     3.325
  175.164               2.032E+01     3.478
  174.990               1.905E+01     3.638
  174.816               2.355E+01     3.823
  174.643               2.877E+01     3.523
  174.470               3.190E+01     3.058
  174.297               3.760E+01     2.765
  174.124               4.161E+01     2.467
  173.952               4.056E+01     2.306
  173.779               3.658E+01     2.398
  173.607               3.468E+01     2.470
  173.436               2.688E+01     2.624
  173.264               1.924E+01     2.920
  173.093               1.537E+01     3.609
  172.922               1.231E+01     4.038
  172.752               1.290E+01     4.233
  172.581               1.088E+01     4.511
  172.411               1.121E+01     4.507
  172.241               9.492E+00     4.564
  172.071               9.972E+00     4.614
  171.902               1.041E+01     4.740
  171.733               1.180E+01     4.695
  171.564               1.283E+01     4.338
  171.395               1.348E+01     4.361
  171.227               1.398E+01     3.662
  171.059               1.231E+01     3.622
  170.891               1.143E+01     3.879
  170.723               9.938E+00     4.421
  170.556               1.086E+01     4.777
  170.389               1.170E+01     5.188
  170.222               1.239E+01     4.546
  170.055               1.302E+01     3.972
  169.888               1.180E+01     3.771
  169.722               1.272E+01     3.534
  169.556               1.506E+01     3.957
  169.391               1.924E+01     4.396
  169.225               2.386E+01     3.744
  169.060               2.457E+01     3.317
  168.895               2.158E+01     2.922
  168.730               2.146E+01     2.925
  168.566               1.892E+01     3.018
  168.401               2.084E+01     3.294
  168.237               2.633E+01     3.489
  168.074               2.988E+01     3.367
  167.910               3.490E+01     3.040
  167.747               3.675E+01     2.700
  167.584               3.437E+01     2.466
  167.421               2.967E+01     2.470
  167.258               2.534E+01     2.648
  167.096               1.984E+01     2.941
  166.934               1.866E+01     3.313
  166.772               1.634E+01     3.551
  166.610               1.686E+01     3.760
  166.449               2.123E+01     3.844
  166.288               2.371E+01     3.648
  166.127               2.629E+01     3.431
  165.966               2.991E+01     3.044
  165.806               2.996E+01     2.803
  165.645               3.009E+01     2.871
  165.485               2.885E+01     2.889
  165.326               2.621E+01     2.813
  165.166               2.261E+01     2.869
  165.007               1.656E+01     3.077
  164.848               1.328E+01     3.492
  164.689               1.038E+01     4.359
  164.530               8.656E+00     4.935
  164.372               7.233E+00     5.843
  164.214               7.421E+00     6.450
  164.056               8.527E+00     6.051
  163.898               1.169E+01     6.449
  163.740               1.883E+01     6.160
  163.583               3.060E+01     4.687
  163.426               3.926E+01     3.417
  163.269               3.985E+01     2.627
  163.113               3.939E+01     2.328
  162.956               3.481E+01     2.374
  162.800               2.623E+01     2.799
  162.644               2.398E+01     3.565
  162.489               2.039E+01     3.987
  162.333               2.139E+01     3.781
  162.178               1.772E+01     3.813
  162.023               1.453E+01     3.702
  161.868               1.376E+01     3.619
  161.714               1.329E+01     3.981
  161.559               1.264E+01     4.135
  161.405               1.198E+01     4.124
  161.251               1.292E+01     4.274
  161.097               1.818E+01     4.411
  160.944               1.973E+01     4.440
  160.791               2.255E+01     3.788
  160.638               2.413E+01     3.116
  160.485       .1527   2.408E+01     2.840
  160.332               1.918E+01     2.910
  160.180               1.355E+01     3.356
  160.028               1.029E+01     4.184
  159.876               1.069E+01     5.072
  159.724               1.117E+01     5.273
  159.573               1.211E+01     4.548
  159.421               1.654E+01     4.285
  159.270               1.721E+01     4.370
  159.119               1.895E+01     3.935
  158.969               2.241E+01     3.437
  158.818               2.605E+01     3.166
  158.668               2.466E+01     3.100
  158.518               2.441E+01     3.064
  158.368               2.406E+01     2.994
  158.219               2.597E+01     2.963
  158.069               1.986E+01     2.980
  157.920               1.651E+01     2.970
  157.771               1.253E+01     3.396
  157.622               1.062E+01     4.442
  157.474               9.051E+00     5.490
  157.326               8.326E+00     5.951
  157.177               1.129E+01     5.324
  157.030               1.271E+01     5.405
  156.882               1.717E+01     4.763
  156.734               2.254E+01     4.405
  156.587               2.945E+01     3.933
  156.440               3.042E+01     2.995
  156.293               2.855E+01     2.447
  156.146               2.682E+01     2.736
  156.000               2.709E+01     3.106
  155.854               2.578E+01     3.249
  155.708               2.312E+01     3.200
  155.562               2.208E+01     3.112
  155.416               2.191E+01     3.436
  155.271               1.998E+01     3.576
  155.126               1.899E+01     3.413
  154.981               1.867E+01     3.335
  154.836               2.180E+01     3.339
  154.691               2.133E+01     3.515
  154.547               2.122E+01     3.354
  154.403               1.871E+01     3.387
  154.259               1.442E+01     3.367
  154.115               1.173E+01     3.767
  153.971               1.018E+01     4.326
  153.828               1.176E+01     4.897
  153.685               1.180E+01     5.382
  153.542               1.890E+01     5.793
  153.399               3.000E+01     4.719
  153.256               3.723E+01     3.374
  153.114               4.028E+01     2.596
  152.972               3.674E+01     2.306
  152.830               2.926E+01     2.384
  152.688               2.057E+01     2.816
  152.546               1.495E+01     3.514
  152.405               1.113E+01     4.266
  152.263               8.560E+00     4.851
  152.122               6.775E+00     5.589
  151.982               5.281E+00     6.290
  151.841               5.284E+00     6.160
  151.701               4.664E+00     6.044
  151.560               5.818E+00     6.322
  151.420               4.632E+00     6.203
  151.280               6.189E+00     5.891
  151.141               5.549E+00     5.400
  151.001               5.467E+00     5.818
  150.862               4.629E+00     6.740
  150.723               4.894E+00     6.705
  150.584               5.465E+00     6.411
  150.445               7.186E+00     6.629
  150.307               8.888E+00     6.200
  150.169               1.043E+01     5.241
  150.030               1.435E+01     4.829
  149.892               1.761E+01     4.263
  149.755               2.403E+01     3.702
  149.617               2.468E+01     3.303
  149.480               2.497E+01     3.026
  149.343               2.663E+01     3.279
  149.206               2.851E+01     3.246
  149.069               3.226E+01     3.201
  148.932               3.827E+01     3.087
  148.796               4.174E+01     2.716
  148.660               4.181E+01     2.534
  148.524               3.394E+01     2.409
  148.388               2.389E+01     2.563
  148.252               1.979E+01     2.911
  148.117               1.679E+01     3.448
  147.981               1.003E+01     4.272
  147.846               8.467E+00     5.051
  147.711               8.096E+00     5.797
  147.576               8.390E+00     6.812
  147.442               1.234E+01     6.921
  147.307               1.903E+01     5.465
  147.173               2.188E+01     4.421
  147.039               2.489E+01     3.384
  146.905               2.321E+01     2.846
  146.772               2.146E+01     2.798
  146.638               1.813E+01     3.121
  146.505               1.363E+01     3.623
  146.372               1.038E+01     4.120
  146.239       .1328   9.757E+00     4.719
  146.106               1.034E+01     5.277
  145.974               1.144E+01     5.421
  145.841               1.676E+01     5.443
  145.709               2.374E+01     5.139
  145.577               3.280E+01     4.170
  145.445               4.251E+01     3.262
  145.314               4.853E+01     2.671
  145.182               5.033E+01     2.364
  145.051               3.756E+01     2.244
  144.920               2.928E+01     2.379
  144.789               2.374E+01     2.764
  144.658               2.014E+01     3.384
  144.527               1.594E+01     3.994
  144.397               1.147E+01     4.264
  144.267               1.016E+01     5.010
  144.137               7.742E+00     4.890
  144.007               6.879E+00     5.696
  143.877               6.142E+00     5.301
  143.748               6.356E+00     5.910
  143.618               7.469E+00     5.938
  143.489               5.420E+00     5.852
  143.360               6.667E+00     5.388
  143.231               8.102E+00     5.828
  143.102               8.000E+00     5.313
  142.974               8.138E+00     5.231
  142.846               8.408E+00     5.547
  142.717               1.044E+01     4.928
  142.590               1.105E+01     5.145
  142.462               1.399E+01     4.504
  142.334               1.790E+01     5.543
  142.207               2.377E+01     4.565
  142.079               3.331E+01     4.025
  141.952               4.264E+01     3.434
  141.825               4.337E+01     2.752
  141.698               3.990E+01     2.388
  141.572               3.572E+01     2.420
  141.445               3.036E+01     2.572
  141.319               2.324E+01     2.670
  141.193               2.023E+01     3.122
  141.067               1.814E+01     3.658
  140.941               1.459E+01     4.153
  140.816               9.941E+00     4.656
  140.690               9.691E+00     5.127
  140.565               9.343E+00     5.354
  140.440               1.036E+01     5.131
  140.315               1.239E+01     5.311
  140.190               1.443E+01     5.276
  140.066               1.682E+01     4.352
  139.941               1.761E+01     3.769
  139.817               1.537E+01     3.578
  139.693               1.377E+01     3.545
  139.569               1.162E+01     3.748
  139.445               8.889E+00     4.208
  139.322               7.975E+00     4.706
  139.198               8.779E+00     5.294
  139.075               8.009E+00     5.568
  138.952               8.061E+00     5.225
  138.829               6.546E+00     5.077
  138.706               5.981E+00     5.667
  138.583               3.896E+00     5.659
  138.461               5.009E+00     6.663
  138.339               4.011E+00     6.988
  138.217               3.817E+00     7.934
  138.095               2.594E+00     8.365
  137.973               4.062E+00     9.118
  137.851               5.346E+00     8.820
  137.730               7.941E+00     8.285
  137.608               1.296E+01     8.434
  137.487               1.575E+01     6.990
  137.366               2.006E+01     4.912
  137.245               2.204E+01     3.494
  137.125               1.901E+01     3.192
  137.004               1.444E+01     3.138
  136.884               1.329E+01     3.409
  136.764               1.234E+01     4.592
  136.643               1.160E+01     4.897
  136.524               1.288E+01     5.480
  136.404               1.628E+01     4.930
  136.284               1.850E+01     4.814
  136.165               2.430E+01     4.287
  136.046               2.691E+01     3.644
  135.926               2.704E+01     3.072
  135.807               2.786E+01     3.173
  135.689               2.839E+01     3.345
  135.570               3.411E+01     3.474
  135.452               4.784E+01     3.393
  135.333               6.104E+01     3.005
  135.215               6.798E+01     2.578
  135.097               7.873E+01     2.225
  134.979               7.741E+01     2.122
  134.861               7.239E+01     2.082
  134.744               6.487E+01     2.072
  134.626               6.079E+01     2.097
  134.509               4.843E+01     2.213
  134.392               3.550E+01     2.470
  134.275               2.839E+01     2.785
  134.158               2.071E+01     3.281
  134.042               1.525E+01     3.904
  133.925               1.464E+01     4.561
  133.809       .1162   1.586E+01     4.962
  133.693               2.415E+01     5.248
  133.577               3.071E+01     5.194
  133.461               3.923E+01     3.802
  133.345               5.113E+01     2.850
  133.230               4.461E+01     2.518
  133.114               3.702E+01     2.453
  132.999               3.649E+01     2.590
  132.884               4.114E+01     2.833
  132.769               4.208E+01     3.106
  132.654               4.058E+01     2.986
  132.539               3.798E+01     2.870
  132.425               4.447E+01     2.774
  132.310               4.061E+01     2.787
  132.196               3.836E+01     2.807
  132.082               3.708E+01     2.785
  131.968               4.068E+01     3.093
  131.854               3.925E+01     2.873
  131.741               3.736E+01     2.785
  131.627               3.867E+01     2.721
  131.514               3.565E+01     2.931
  131.400               3.774E+01     2.908
  131.287               3.832E+01     2.951
  131.174               4.217E+01     2.858
  131.062               4.287E+01     2.806
  130.949               4.038E+01     2.806
  130.837               3.479E+01     2.660
  130.724               3.044E+01     2.759
  130.612               2.410E+01     2.990
  130.500               2.024E+01     3.355
  130.388               1.589E+01     3.760
  130.276               1.336E+01     3.930
  130.165               1.161E+01     4.345
  130.053               1.117E+01     4.628
  129.942               1.064E+01     4.833
  129.831               1.187E+01     4.882
  129.720               1.396E+01     4.636
  129.609               1.539E+01     4.227
  129.498               1.671E+01     4.027
  129.387               1.815E+01     4.028
  129.277               2.016E+01     3.965
  129.167               1.710E+01     3.819
  129.056               1.267E+01     3.813
  128.946               1.017E+01     4.162
  128.836               1.128E+01     4.843
  128.727               8.186E+00     5.565
  128.617               7.339E+00     5.792
  128.508               1.076E+01     5.610
  128.398               1.128E+01     6.327
  128.289               1.270E+01     6.153
  128.180               1.533E+01     5.257
  128.071               2.057E+01     4.587
  127.962               2.383E+01     3.999
  127.854               2.590E+01     3.398
  127.745               2.387E+01     3.260
  127.637               2.069E+01     3.337
  127.528               2.148E+01     3.349
  127.420               2.008E+01     3.502
  127.312               1.781E+01     3.518
  127.204               1.387E+01     3.817
  127.097               1.361E+01     4.172
  126.989               1.446E+01     4.528
  126.882               1.493E+01     4.642
  126.775               1.653E+01     4.762
  126.667               2.393E+01     4.106
  126.560               3.334E+01     4.252
  126.453               4.020E+01     4.021
  126.347               5.219E+01     3.368
  126.240               5.883E+01     2.953
  126.134               5.845E+01     2.634
  126.027               6.426E+01     2.508
  125.921               6.224E+01     2.602
  125.815               6.476E+01     2.693
  125.709               6.288E+01     2.792
  125.603               5.489E+01     2.781
  125.498               5.357E+01     2.557
  125.392               4.775E+01     2.692
  125.287               3.955E+01     2.861
  125.181               3.541E+01     2.999
  125.076               3.079E+01     3.308
  124.971               3.011E+01     3.438
  124.866               3.375E+01     3.478
  124.762               3.018E+01     3.540
  124.657               3.257E+01     3.439
  124.553               3.398E+01     3.225
  124.448               3.159E+01     2.919
  124.344               2.748E+01     2.873
  124.240               2.303E+01     3.046
  124.136               1.678E+01     3.344
  124.032               1.376E+01     3.813
  123.929               1.350E+01     4.416
  123.825               1.273E+01     4.950
  123.722               1.345E+01     5.044
  123.618               1.297E+01     5.088
  123.515               1.191E+01     5.156
  123.412               1.292E+01     5.107
  123.309               1.256E+01     4.514
  123.206               1.209E+01     4.244
  123.104               1.045E+01     4.554
  123.001               9.254E+00     5.061
  122.899       .1023   8.082E+00     5.133
  122.796               6.369E+00     5.896
  122.694               7.094E+00     6.482
  122.592               7.060E+00     6.514
  122.490               6.765E+00     6.461
  122.389               9.512E+00     6.452
  122.287               1.272E+01     6.614
  122.185               1.935E+01     6.085
  122.084               2.937E+01     5.728
  121.983               5.130E+01     4.488
  121.882               6.398E+01     3.636
  121.781               7.713E+01     2.748
  121.680               8.481E+01     2.276
  121.579               7.481E+01     2.066
  121.478               6.450E+01     1.950
  121.378               5.067E+01     2.103
  121.278               4.157E+01     2.333
  121.177               3.326E+01     2.678
  121.077               2.799E+01     2.927
  120.977               2.234E+01     3.255
  120.877               1.775E+01     3.923
  120.778               1.675E+01     4.029
  120.678               1.301E+01     4.454
  120.578               1.226E+01     4.761
  120.479               1.326E+01     4.636
  120.380               1.144E+01     5.220
  120.281               1.057E+01     5.096
  120.182               1.093E+01     4.782
  120.083               1.081E+01     4.661
  119.984               1.057E+01     4.897
  119.885               1.154E+01     4.784
  119.787               1.169E+01     4.762
  119.688               1.351E+01     4.799
  119.590               1.320E+01     4.780
  119.492               1.244E+01     4.817
  119.394               1.375E+01     4.635
  119.296               1.397E+01     4.571
  119.198               1.459E+01     4.612
  119.100               1.824E+01     4.466
  119.003               2.013E+01     4.332
  118.905               2.126E+01     4.173
  118.808               2.400E+01     3.888
  118.711               3.029E+01     3.620
  118.614               3.780E+01     3.566
  118.517               3.928E+01     3.356
  118.420               4.423E+01     3.111
  118.323               4.605E+01     2.916
  118.226               4.880E+01     2.702
  118.130               4.921E+01     2.758
  118.034               5.316E+01     2.696
  117.937               5.023E+01     2.485
  117.841               4.612E+01     2.627
  117.745               3.818E+01     2.648
  117.649               3.606E+01     2.635
  117.553               3.340E+01     2.867
  117.458               2.767E+01     3.058
  117.362               2.432E+01     3.119
  117.267               2.031E+01     3.450
  117.171               1.361E+01     3.592
  117.076               1.455E+01     4.030
  116.981               1.323E+01     4.702
  116.886               1.247E+01     4.278
  116.791               1.167E+01     5.166
  116.697               1.213E+01     5.245
  116.602               1.039E+01     5.310
  116.507               1.397E+01     5.256
  116.413               1.527E+01     5.259
  116.319               1.630E+01     5.267
  116.225               2.061E+01     4.837
  116.130               2.421E+01     4.819
  116.037               3.342E+01     4.273
  115.943               4.424E+01     3.606
  115.849               4.735E+01     3.144
  115.755               4.854E+01     2.908
  115.662               4.460E+01     2.708
  115.568               4.041E+01     2.543
  115.475               3.775E+01     2.563
  115.382               3.502E+01     2.763
  115.289               2.539E+01     3.045
  115.196               2.165E+01     3.359
  115.103               1.954E+01     3.817
  115.011               1.745E+01     4.336
  114.918               1.710E+01     4.453
  114.826               1.273E+01     4.414
  114.733               1.235E+01     4.620
  114.641               9.628E+00     4.834
  114.549               9.241E+00     5.084
  114.457               7.283E+00     5.770
  114.365               7.257E+00     5.753
  114.273               5.327E+00     5.618
  114.181               6.047E+00     5.891
  114.090               5.798E+00     5.671
  113.998               6.636E+00     6.026
  113.907               7.117E+00     5.761
  113.816               9.186E+00     6.011
  113.724               1.235E+01     5.496
  113.633               1.503E+01     5.216
  113.542               1.961E+01     5.342
  113.452               2.122E+01     4.460
  113.361               2.663E+01     4.042
  113.270       .0905   2.401E+01     3.531
  113.180               2.088E+01     3.269
  113.089               1.892E+01     3.226
  112.999               1.510E+01     3.616
  112.909               1.203E+01     4.113
  112.819               1.015E+01     4.710
  112.729               1.043E+01     5.538
  112.639               8.142E+00     6.544
  112.549               5.251E+00     6.260
  112.460               5.125E+00     6.048
  112.370               5.940E+00     7.103
  112.281               4.897E+00     7.064
  112.191               5.061E+00     7.910
  112.102               5.994E+00     8.080
  112.013               5.067E+00     7.255
  111.924               5.935E+00     6.495
  111.835               5.971E+00     7.286
  111.747               9.022E+00     6.060
  111.658               1.111E+01     5.894
  111.569               1.336E+01     5.432
  111.481               1.377E+01     4.831
  111.392               1.648E+01     4.391
  111.304               1.334E+01     4.137
  111.216               1.123E+01     4.040
  111.128               8.370E+00     4.428
  111.040               7.609E+00     4.936
  110.952               6.184E+00     5.739
  110.864               4.655E+00     6.787
  110.777               5.701E+00     6.672
  110.689               4.669E+00     6.579
  110.602               4.919E+00     6.717
  110.515               4.168E+00     6.971
  110.427               4.052E+00     7.638
  110.340               7.018E+00     7.814
  110.253               8.769E+00     7.710
  110.166               9.720E+00     7.527
  110.080               1.349E+01     6.139
  109.993               1.646E+01     4.909
  109.906               1.764E+01     4.656
  109.820               1.814E+01     4.277
  109.733               1.782E+01     3.857
  109.647               1.555E+01     3.655
  109.561               1.311E+01     3.946
  109.475               1.173E+01     3.918
  109.389               1.010E+01     4.382
  109.303               8.680E+00     4.949
  109.217               8.576E+00     5.176
  109.131               1.044E+01     5.532
  109.046               9.786E+00     6.732
  108.960               1.029E+01     6.552
  108.875               1.007E+01     5.648
  108.790               1.224E+01     5.866
  108.705               1.255E+01     5.270
  108.619               1.493E+01     4.436
  108.534               1.102E+01     4.206
  108.450               9.729E+00     4.565
  108.365               8.179E+00     4.529
  108.280               8.143E+00     5.060
  108.196               6.931E+00     5.841
  108.111               7.137E+00     6.528
  108.027               8.711E+00     7.027
  107.942               1.024E+01     6.899
  107.858               1.182E+01     6.679
  107.774               1.597E+01     5.606
  107.690               2.061E+01     5.346
  107.606               2.469E+01     4.819
  107.522               2.948E+01     4.179
  107.439               3.084E+01     3.466
  107.355               3.131E+01     3.073
  107.272               2.552E+01     3.048
  107.188               2.154E+01     3.200
  107.105               1.723E+01     3.644
  107.022               1.398E+01     4.249
  106.939               1.229E+01     5.045
  106.856               8.656E+00     5.809
  106.773               8.836E+00     5.976
  106.690               9.472E+00     6.115
  106.607               1.262E+01     6.332
  106.524               1.099E+01     6.028
  106.442               1.045E+01     5.456
  106.359               1.156E+01     5.253
  106.277               1.270E+01     5.282
  106.195               1.425E+01     5.264
  106.113               1.832E+01     5.034
  106.031               1.878E+01     4.640
  105.949               1.989E+01     4.438
  105.867               2.074E+01     4.196
  105.785               2.302E+01     3.831
  105.703               2.284E+01     3.536
  105.622               2.041E+01     3.768
  105.540               1.934E+01     4.001
  105.459               2.433E+01     4.364
  105.378               2.049E+01     4.255
  105.296               2.903E+01     4.375
  105.215               3.888E+01     3.907
  105.134               4.674E+01     3.650
  105.053               4.870E+01     3.390
  104.972               4.951E+01     2.823
  104.892               4.626E+01     2.758
  104.811               3.646E+01     2.606
  104.731       .0805   3.248E+01     2.652
  104.650               2.325E+01     2.947
  104.570               1.947E+01     3.449
  104.489               1.336E+01     4.000
  104.409               1.331E+01     5.180
  104.329               1.169E+01     5.850
  104.249               9.103E+00     5.797
  104.169               8.951E+00     6.203
  104.089               1.202E+01     6.217
  104.010               1.216E+01     5.882
  103.930               1.491E+01     5.291
  103.851               1.519E+01     4.531
  103.771               1.683E+01     4.446
  103.692               1.661E+01     4.575
  103.612               2.104E+01     4.601
  103.533               2.594E+01     4.750
  103.454               2.730E+01     4.336
  103.375               3.278E+01     3.706
  103.296               3.426E+01     3.429
  103.218               3.071E+01     3.244
  103.139               3.433E+01     3.108
  103.060               3.893E+01     3.195
  102.982               4.113E+01     3.365
  102.903               4.634E+01     3.642
  102.825               4.762E+01     3.643
  102.747               4.675E+01     3.126
  102.668               4.865E+01     2.815
  102.590               4.080E+01     2.721
  102.512               3.626E+01     2.738
  102.434               2.716E+01     2.863
  102.356               2.161E+01     3.099
  102.279               1.635E+01     3.595
  102.201               1.263E+01     4.483
  102.124               8.931E+00     5.435
  102.046               6.476E+00     5.811
  101.969               9.217E+00     6.188
  101.891               7.524E+00     6.897
  101.814               1.035E+01     6.567
  101.737               9.117E+00     5.929
  101.660               9.707E+00     6.439
  101.583               1.106E+01     5.554
  101.506               1.176E+01     5.203
  101.429               9.334E+00     5.376
  101.353               8.762E+00     5.015
  101.276               5.895E+00     4.791
  101.200               8.706E+00     6.211
  101.123               6.888E+00     6.586
  101.047               7.808E+00     8.396
  100.971               1.016E+01     8.395
  100.894               1.138E+01     7.291
  100.818               1.234E+01     6.061
  100.742               1.323E+01     5.072
  100.666               1.209E+01     4.753
  100.591               1.260E+01     4.968
  100.515               1.187E+01     4.269
  100.439               1.086E+01     4.779
  100.364               1.341E+01     5.205
  100.288               1.220E+01     5.707
  100.213               1.137E+01     5.740
  100.137               1.250E+01     5.309
  100.062               1.144E+01     4.811
   99.987               1.111E+01     4.657
   99.912               9.965E+00     4.560
   99.837               1.017E+01     4.751
   99.762               1.005E+01     5.227
   99.687               9.783E+00     5.570
   99.613               8.903E+00     5.484
   99.538               1.109E+01     5.615
   99.463               1.345E+01     5.394
   99.389               1.159E+01     5.255
   99.315               9.996E+00     5.120
   99.240               9.226E+00     4.885
   99.166               9.035E+00     4.983
   99.092               8.619E+00     5.269
   99.018               7.910E+00     5.724
   98.944               5.761E+00     6.146
   98.870               5.528E+00     6.444
   98.796               5.046E+00     6.684
   98.722               6.439E+00     7.245
   98.649               7.098E+00     8.319
   98.575               5.083E+00     8.905
   98.502               7.837E+00     7.238
   98.428               1.087E+01     6.544
   98.355               1.561E+01     6.933
   98.282               2.352E+01     6.241
   98.209               2.986E+01     5.575
   98.136               3.529E+01     4.745
   98.063               3.866E+01     3.836
   97.990               4.634E+01     3.226
   97.917               4.804E+01     3.099
   97.844               5.267E+01     2.772
   97.772               4.324E+01     2.654
   97.699               3.791E+01     2.740
   97.626               2.928E+01     2.727
   97.554               2.207E+01     3.096
   97.482               1.896E+01     3.542
   97.409               1.432E+01     4.020
   97.337               9.145E+00     4.780
   97.265               7.895E+00     5.479
   97.193               5.434E+00     6.630
   97.121       .0718   5.104E+00     6.751
   97.049               6.256E+00     6.474
   96.978               5.162E+00     7.850
   96.906               4.880E+00     8.469
   96.834               4.754E+00     7.242
   96.763               7.794E+00     7.778
   96.691               9.068E+00     8.004
   96.620               9.027E+00     7.668
   96.549               1.122E+01     6.497
   96.477               1.220E+01     5.895
   96.406               1.450E+01     5.697
   96.335               1.754E+01     4.804
   96.264               1.864E+01     4.570
   96.193               1.993E+01     4.436
   96.122               1.863E+01     4.280
   96.052               1.687E+01     4.182
   95.981               1.623E+01     4.378
   95.910               1.766E+01     4.463
   95.840               1.918E+01     4.432
   95.769               1.965E+01     4.517
   95.699               2.090E+01     4.361
   95.629               2.209E+01     4.349
   95.559               2.415E+01     4.386
   95.489               2.572E+01     4.238
   95.418               2.850E+01     4.134
   95.348               2.363E+01     3.918
   95.279               2.245E+01     3.856
   95.209               1.890E+01     3.793
   95.139               1.654E+01     3.883
   95.069               1.734E+01     4.007
   95.000               1.482E+01     3.989
   94.930               1.259E+01     4.461
   94.861               1.270E+01     4.588
   94.791               1.545E+01     4.876
   94.722               1.793E+01     4.682
   94.653               1.681E+01     4.731
   94.584               1.677E+01     4.441
   94.515               1.680E+01     4.456
   94.446               1.439E+01     4.627
   94.377               1.058E+01     4.465
   94.308               1.378E+01     4.652
   94.239               1.152E+01     4.871
   94.171               1.054E+01     5.695
   94.102               1.462E+01     5.849
   94.033               1.712E+01     6.396
   93.965               2.202E+01     4.937
   93.897               2.187E+01     4.627
   93.828               1.626E+01     4.048
   93.760               1.547E+01     3.823
   93.692               1.079E+01     4.036
   93.624               1.057E+01     4.361
   93.556               9.560E+00     4.844
   93.488               5.923E+00     6.190
   93.420               4.434E+00     6.855
   93.352               6.295E+00     7.942
   93.285               6.528E+00     9.147
   93.217               7.221E+00     9.815
   93.149               8.846E+00     7.804
   93.082               1.096E+01     6.765
   93.014               9.515E+00     6.134
   92.947               1.060E+01     5.892
   92.880               1.101E+01     5.660
   92.813               1.342E+01     5.471
   92.745               1.746E+01     5.753
   92.678               2.028E+01     5.876
   92.611               2.592E+01     5.832
   92.544               3.056E+01     5.462
   92.478               3.436E+01     4.731
   92.411               3.778E+01     4.186
   92.344               3.850E+01     3.928
   92.278               3.497E+01     3.803
   92.211               2.821E+01     3.730
   92.145               2.504E+01     3.876
   92.078               2.572E+01     4.084
   92.012               2.803E+01     4.501
   91.946               2.992E+01     4.824
   91.879               2.427E+01     4.386
   91.813               2.497E+01     4.202
   91.747               2.389E+01     3.874
   91.681               2.522E+01     4.129
   91.615               2.229E+01     4.152
   91.549               2.559E+01     4.394
   91.484               2.640E+01     4.779
   91.418               2.981E+01     4.286
   91.352               3.165E+01     4.322
   91.287               4.117E+01     4.002
   91.221               5.169E+01     3.496
   91.156               5.328E+01     3.274
   91.091               5.461E+01     2.861
   91.025               5.046E+01     2.746
   90.960               5.736E+01     2.659
   90.895               4.687E+01     2.656
   90.830               4.301E+01     2.802
   90.765               3.639E+01     2.830
   90.700               3.154E+01     3.063
   90.635               3.048E+01     3.443
   90.570               2.685E+01     3.818
   90.506               2.961E+01     4.139
   90.441               2.381E+01     4.411
   90.376               3.017E+01     4.746
   90.312       .0644   3.230E+01     4.354
   90.248               3.645E+01     3.953
   90.183               3.798E+01     3.571
   90.119               3.708E+01     3.249
   90.055               3.009E+01     3.068
   89.990               2.534E+01     3.097
   89.926               2.690E+01     3.396
   89.862               2.442E+01     4.011
   89.798               2.604E+01     4.402
   89.735               2.799E+01     4.384
   89.671               2.573E+01     4.345
   89.607               2.330E+01     4.124
   89.543               2.141E+01     3.985
   89.480               2.151E+01     3.909
   89.416               2.203E+01     3.970
   89.353               2.169E+01     4.095
   89.289               1.921E+01     4.249
   89.226               1.944E+01     4.902
   89.163               1.902E+01     4.984
   89.099               2.162E+01     4.794
   89.036               2.545E+01     4.587
   88.973               2.562E+01     4.380
   88.910               3.119E+01     4.342
   88.847               4.042E+01     3.858
   88.784               4.313E+01     3.563
   88.722               4.691E+01     3.338
   88.659               5.307E+01     3.221
   88.596               5.379E+01     2.939
   88.534               4.996E+01     2.921
   88.471               4.827E+01     2.841
   88.409               5.317E+01     2.717
   88.346               4.560E+01     2.638
   88.284               4.143E+01     2.883
   88.221               3.538E+01     2.949
   88.159               3.079E+01     3.051
   88.097               2.830E+01     3.421
   88.035               2.362E+01     3.686
   87.973               2.202E+01     3.700
   87.911               1.986E+01     4.139
   87.849               1.671E+01     4.322
   87.787               1.666E+01     4.528
   87.726               1.657E+01     4.860
   87.664               1.740E+01     4.797
   87.602               1.670E+01     5.014
   87.541               1.948E+01     4.889
   87.479               1.805E+01     4.582
   87.418               1.943E+01     4.646
   87.356               1.760E+01     4.386
   87.295               1.693E+01     4.176
   87.234               1.680E+01     4.354
   87.173               1.483E+01     4.507
   87.112               1.522E+01     4.723
   87.051               1.419E+01     4.743
   86.990               1.375E+01     5.049
   86.929               1.607E+01     5.256
   86.868               1.421E+01     5.132
   86.807               1.480E+01     5.192
   86.746               1.666E+01     4.912
   86.686               1.598E+01     4.758
   86.625               1.451E+01     4.685
   86.565               1.302E+01     4.699
   86.504               1.186E+01     4.800
   86.444               1.038E+01     4.897
   86.383               8.853E+00     5.537
   86.323               7.822E+00     6.009
   86.263               8.862E+00     6.525
   86.203               8.909E+00     6.418
   86.143               7.410E+00     6.863
   86.083               7.647E+00     7.126
   86.023               7.244E+00     7.096
   85.963               6.166E+00     6.238
   85.903               8.394E+00     6.066
   85.843               9.816E+00     6.075
   85.783               1.075E+01     5.883
   85.724               1.216E+01     5.792
   85.664               1.527E+01     5.475
   85.605               1.660E+01     5.280
   85.545               2.030E+01     5.009
   85.486               1.899E+01     4.671
   85.426               2.032E+01     4.239
   85.367               2.355E+01     3.941
   85.308               2.153E+01     4.228
   85.249               2.484E+01     4.225
   85.190               2.831E+01     4.326
   85.131               3.374E+01     4.153
   85.072               3.297E+01     3.847
   85.013               3.408E+01     3.659
   84.954               3.872E+01     3.553
   84.895               3.826E+01     3.517
   84.836               4.342E+01     3.440
   84.778               4.455E+01     3.238
   84.719               4.394E+01     3.152
   84.661               3.669E+01     3.236
   84.602               4.088E+01     3.173
   84.544               4.466E+01     3.296
   84.485               5.241E+01     3.437
   84.427               5.170E+01     3.165
   84.369               5.327E+01     3.210
   84.311               6.042E+01     3.235
   84.252               6.750E+01     3.077
   84.194       .0580   7.757E+01     2.904
   84.136               8.034E+01     2.634
   84.078               8.218E+01     2.549
   84.021               8.000E+01     2.558
   83.963               8.400E+01     2.527
   83.905               8.319E+01     2.486
   83.847               7.971E+01     2.491
   83.790               7.010E+01     2.444
   83.732               6.597E+01     2.479
   83.675               6.250E+01     2.640
   83.617               5.511E+01     2.708
   83.560               5.130E+01     2.870
   83.502               5.169E+01     2.973
   83.445               4.492E+01     3.004
   83.388               4.375E+01     3.192
   83.331               4.052E+01     3.246
   83.274               3.489E+01     3.307
   83.216               2.862E+01     3.407
   83.159               2.397E+01     3.403
   83.103               2.285E+01     3.613
   83.046               2.361E+01     4.173
   82.989               2.116E+01     4.085
   82.932               2.282E+01     4.579
   82.875               2.265E+01     4.679
   82.819               2.165E+01     4.698
   82.762               2.486E+01     4.740
   82.706               2.444E+01     4.483
   82.649               2.962E+01     3.974
   82.593               2.846E+01     4.125
   82.536               2.883E+01     3.920
   82.480               2.795E+01     3.506
   82.424               2.252E+01     3.966
   82.368               2.239E+01     3.765
   82.312               1.832E+01     4.164
   82.255               1.640E+01     4.033
   82.199               1.568E+01     4.297
   82.144               1.152E+01     4.811
   82.088               9.713E+00     4.937
   82.032               1.087E+01     5.728
   81.976               9.831E+00     6.230
   81.920               7.760E+00     6.269
   81.865               9.115E+00     6.788
   81.809               6.544E+00     6.696
   81.753               7.439E+00     6.866
   81.698               7.592E+00     5.812
   81.642               1.038E+01     6.154
   81.587               1.236E+01     6.453
   81.532               1.586E+01     6.326
   81.477               1.657E+01     5.647
   81.421               2.283E+01     5.341
   81.366               2.527E+01     4.757
   81.311               2.820E+01     4.060
   81.256               3.064E+01     3.692
   81.201               2.727E+01     3.729
   81.146               2.596E+01     3.675
   81.091               2.080E+01     3.486
   81.036               1.685E+01     3.683
   80.982               1.657E+01     4.000
   80.927               1.663E+01     4.446
   80.872               1.503E+01     5.185
   80.818               1.136E+01     5.180
   80.763               9.366E+00     5.373
   80.709               9.487E+00     6.285
   80.654               9.143E+00     6.339
   80.600               1.029E+01     6.707
   80.545               1.082E+01     6.602
   80.491               1.126E+01     6.514
   80.437               1.373E+01     7.340
   80.383               1.811E+01     6.428
   80.329               2.302E+01     5.810
   80.275               2.414E+01     5.256
   80.221               2.278E+01     4.772
   80.167               2.302E+01     4.180
   80.113               2.246E+01     3.730
   80.059               2.306E+01     3.999
   80.005               2.130E+01     3.891
   79.951               1.771E+01     4.105
   79.898               1.610E+01     3.967
   79.844               1.504E+01     4.617
   79.791               1.680E+01     4.951
   79.737               1.603E+01     5.341
   79.684               1.844E+01     5.444
   79.630               1.617E+01     5.174
   79.577               2.004E+01     4.966
   79.523               2.142E+01     4.405
   79.470               1.960E+01     4.507
   79.417               2.111E+01     4.270
   79.364               1.881E+01     3.763
   79.311               1.394E+01     4.334
   79.258               1.232E+01     4.456
   79.205               9.954E+00     4.878
   79.152               1.083E+01     5.363
   79.099               1.095E+01     5.814
   79.046               9.742E+00     6.227
   78.993               7.357E+00     6.632
   78.941               3.933E+00     6.785
   78.888               6.949E+00     6.791
   78.835               8.082E+00     7.163
   78.783               6.213E+00     7.701
   78.730               5.067E+00     7.143
   78.678       .0524   7.607E+00     6.758
ENDDATA           4002
ENDSUBENT         4008
NOSUBENT      40616005   20030523   20040112
ENDENTRY             5
