ENTRY            23773   20230202   20230907   20230725       2315
SUBENT        23773001   20230202   20230907   20230725       2315
BIB                 16         39
TITLE      Nucleon-induced inelastic cross sections on natNi
AUTHOR     (A.Olacel, C.Borcea, M.Boromiza, S.Calinescu, C.Clisu,
           C.Costache, Ph.Dessagne, I.Dinescu, D.Filipescu,
           N.Florea, I.Harca, G.Henning, A.Ionescu, M.Kerveno,
           R.Lica, A.Matei, C.Mihai, R.Mihai, A.Mitu, A.Negret,
           C.Nita, M.Nyman, A.Oprea, C.Petrone, A.J.M.Plompen,
           C.Sotty, L.Stan, L.Stoica, G.Suliman, A.Turturica,
           S.Ujeniuc)
INSTITUTE  (3RUMBUC,2FR STR,2ZZZGEL,3RUMBUU)
           (3RUMRUM) University Politehnica of Bucharest
REFERENCE  (J,PR/C,106,024609,2022)
FACILITY   (LINAC,2ZZZGEL) Geel Electron Linear Accelerator GELINA
INC-SOURCE (PHOTO)
REL-REF    (O,D1029002,A.Olacel+,J,PR/C,106,024609,2022)
           (M,23258001,A.Olacel+,J,PR/C,90,034603,2014)
METHOD     (TOF) 100-m flight path
DETECTOR   (HPGE) The GAINS spectrometer
           (FISCH) A 235U fission chamber for the incident neutron
           flux monitoring.
ANALYSIS   (INTAD) The angle-integrated cross sections were
           obtained using the Gaussian quadrature method coupled
           with a Legendre polynomial series expansion of the
           corresponding differential cross sections.
SAMPLE     A natural nickel target with a diameter of 8.23(3) cm
           and areal density of 2.661(21) mg/cm2.
MONITOR    (92-U-225(N,F),,SIG)
MONIT-REF  (,A.D.Carlson+,J,NDS,110,3215,2009)
ERR-ANALYS (ERR-T) The following sources of uncertainties
           considered for the total uncertainty:
           (ERR-1,2.,4.) efficiency of the HPGe detectors
           (ERR-2) efficiency of the fission chamber - 2.1%
           (ERR-3) areal density of the sample       - 1%
           (ERR-4,,1.) thickness of the FC deposits
           (ERR-5,,1.) multiple scattering correction factor
           (MONIT-ERR,,1.) fission cross section of 235U
STATUS     (TABLE) Data received from A.Olacel.
           (APRVD) Approved by A.Olacel 28 February 2023
HISTORY    (20230202C) VS
           (20230206R) Data received from A.Olacel.
ENDBIB              39
COMMON               2          3
ERR-2      ERR-3
PER-CENT   PER-CENT
        2.1         1.
ENDCOMMON            3
ENDSUBENT           46
SUBENT        23773002   20230202   20230907   20230725       2315
BIB                  2          2
REACTION   (28-NI-58(N,INL)28-NI-58,PAR,SIG,G)
STATUS     (TABLE) Fig. 3 of Phys.Rev.C106(2022)024609
ENDBIB               2
NOCOMMON             0          0
DATA                 7        979
E          EN-MIN     EN-MAX     TOF-MAX    TOF-MIN    DATA
ERR-T
KEV        KEV        KEV        NSEC       NSEC       B
B
       961.    3359.92    3426.18    3942.01    3903.91 0.00772341
 0.00246908
       961.    3426.18    3494.41    3903.91    3865.82 0.00562911
 0.00148337
       961.    3494.41    3564.71    3865.82    3827.72  0.0130986
 0.00261799
       961.    3564.71    3637.16    3827.72    3789.63  0.0301616
 0.00271084
       961.    3637.16    3711.85    3789.63    3751.53  0.0311538
 0.00265827
       961.    3711.85    3788.86    3751.53    3713.44   0.049526
 0.00301318
       961.    3788.86     3868.3    3713.44    3675.34  0.0478111
 0.00301729
       961.     3868.3    3950.27    3675.34    3637.25  0.0564489
 0.00316821
       961.    3950.27    4034.87    3637.25    3599.15  0.0513355
 0.00303312
       961.    4034.87    4122.24    3599.15    3561.06  0.0536642
 0.00319418
       961.    4122.24    4212.47    3561.06    3522.96  0.0482518
 0.00303384
       961.    4212.47    4305.71    3522.96    3484.87  0.0643005
  0.0034362
       961.    4305.71    4402.09    3484.87    3446.77  0.0622275
 0.00335734
       961.    4402.09    4501.75    3446.77    3408.67  0.0693846
 0.00352618
       961.    4501.75    4604.83    3408.67    3370.58  0.0674006
 0.00348767
       961.    4604.83    4711.51    3370.58    3332.48  0.0684463
  0.0035705
       961.    4711.51    4821.95    3332.48    3294.39  0.0707963
 0.00362594
       961.    4821.95    4936.33    3294.39    3256.29  0.0735337
 0.00367055
       961.    4936.33    5054.84    3256.29     3218.2   0.074489
 0.00372417
       961.    5054.84    5177.68     3218.2     3180.1  0.0734223
 0.00372603
       961.    5177.68    5305.07     3180.1    3142.01  0.0785962
 0.00381524
       961.    5305.07    5437.23    3142.01    3103.91  0.0746919
 0.00378077
       961.    5437.23    5574.41    3103.91    3065.82  0.0705734
 0.00367492
       961.    5574.41    5716.85    3065.82    3027.72  0.0660829
 0.00359544
       961.    5716.85    5864.85    3027.72    2989.63  0.0627129
 0.00350958
       961.    5864.85    6018.69    2989.63    2951.53   0.060703
 0.00345671
       961.    6018.69    6261.09    2951.53    2894.39  0.0570866
  0.0029298
       961.    6261.09    6518.49    2894.39    2837.25  0.0629516
 0.00304155
       961.    6518.49    6792.15    2837.25     2780.1  0.0552888
  0.0029758
       961.    6792.15    7083.48     2780.1    2722.96  0.0580284
 0.00307176
       961.    7083.48    7394.04    2722.96    2665.82  0.0496929
 0.00302616
       961.    7394.04    7725.57    2665.82    2608.67  0.0537078
 0.00317766
       961.    7725.57    8080.01    2608.67    2551.53  0.0434554
 0.00304402
       961.    8080.01    8459.52    2551.53    2494.39   0.042661
 0.00315706
       961.    8459.52    8866.55    2494.39    2437.25  0.0446605
  0.0033609
       961.    8866.55    9303.83    2437.25     2380.1  0.0418769
  0.0035084
       961.    9303.83    9774.44     2380.1    2322.96   0.037253
 0.00370662
       961.    9774.44    10281.9    2322.96    2265.82  0.0444515
 0.00397761
       961.    10281.9    10830.2    2265.82    2208.67  0.0472164
  0.0047173
       961.    10830.2    11423.8    2208.67    2151.53  0.0370898
 0.00481758
       961.    11423.8    12067.9    2151.53    2094.39  0.0331272
 0.00483546
       961.    12067.9    13532.2    2094.39     1980.1  0.0268892
 0.00364712
       961.    13532.2    15282.6     1980.1    1865.82  0.0144201
 0.00402681
     1004.8    2495.89    2506.36    4570.58    4561.06 0.00790245
 0.00355035
     1004.8    2506.36     2516.9    4561.06    4551.53  0.0149164
 0.00444786
     1004.8     2516.9    2527.51    4551.53    4542.01  0.0168446
 0.00409195
     1004.8    2527.51    2538.19    4542.01    4532.48 0.00807368
 0.00385588
     1004.8    2538.19    2548.93    4532.48    4522.96 0.00950128
  0.0039679
     1004.8    2548.93    2559.75    4522.96    4513.44   0.010622
 0.00362803
     1004.8    2559.75    2570.63    4513.44    4503.91  0.0240664
 0.00522874
     1004.8    2570.63    2581.58    4503.91    4494.39 0.00893185
 0.00410293
     1004.8    2581.58     2592.6    4494.39    4484.87 0.00137123
 0.00055114
     1004.8     2592.6    2603.69    4484.87    4475.34  0.0206551
 0.00404409
     1004.8    2603.69    2614.86    4475.34    4465.82  0.0172588
 0.00390761
     1004.8    2614.86    2626.09    4465.82    4456.29  0.0211561
 0.00387019
     1004.8    2626.09     2637.4    4456.29    4446.77   0.022398
 0.00406568
     1004.8     2637.4    2648.78    4446.77    4437.25  0.0278958
 0.00437902
     1004.8    2648.78    2660.24    4437.25    4427.72  0.0236648
 0.00421999
     1004.8    2660.24    2671.77    4427.72     4418.2   0.022339
 0.00418373
     1004.8    2671.77    2683.37     4418.2    4408.67  0.0341588
 0.00492693
     1004.8    2683.37    2695.05    4408.67    4399.15  0.0269802
 0.00473254
     1004.8    2695.05    2706.81    4399.15    4389.63  0.0270611
 0.00425464
     1004.8    2706.81    2718.65    4389.63     4380.1  0.0262771
 0.00431332
     1004.8    2718.65    2730.56     4380.1    4370.58  0.0357542
 0.00434894
     1004.8    2730.56    2742.55    4370.58    4361.06  0.0299942
 0.00470656
     1004.8    2742.55    2754.62    4361.06    4351.53  0.0302388
 0.00438366
     1004.8    2754.62    2766.77    4351.53    4342.01  0.0453266
 0.00444799
     1004.8    2766.77      2779.    4342.01    4332.48   0.041464
 0.00449866
     1004.8      2779.    2791.32    4332.48    4322.96  0.0480969
  0.0046256
     1004.8    2791.32    2803.71    4322.96    4313.44  0.0511863
 0.00507403
     1004.8    2803.71    2816.19    4313.44    4303.91  0.0561405
 0.00504129
     1004.8    2816.19    2828.75    4303.91    4294.39  0.0569047
 0.00499768
     1004.8    2828.75     2841.4    4294.39    4284.87  0.0573031
 0.00483078
     1004.8     2841.4    2854.13    4284.87    4275.34  0.0439584
 0.00463643
     1004.8    2854.13    2866.94    4275.34    4265.82  0.0552858
 0.00496023
     1004.8    2866.94    2879.85    4265.82    4256.29  0.0583578
 0.00525656
     1004.8    2879.85    2892.84    4256.29    4246.77   0.062046
 0.00522161
     1004.8    2892.84    2905.92    4246.77    4237.25  0.0591606
 0.00488085
     1004.8    2905.92    2919.09    4237.25    4227.72   0.065413
 0.00509886
     1004.8    2919.09    2932.34    4227.72     4218.2  0.0510564
 0.00498025
     1004.8    2932.34    2945.69     4218.2    4208.67  0.0668265
 0.00534163
     1004.8    2945.69    2959.13    4208.67    4199.15  0.0490367
 0.00488795
     1004.8    2959.13    2972.67    4199.15    4189.63  0.0615161
 0.00520745
     1004.8    2972.67    2986.29    4189.63     4180.1  0.0574625
 0.00506472
     1004.8    2986.29    3000.01     4180.1    4170.58  0.0549314
 0.00518454
     1004.8    3000.01    3013.83    4170.58    4161.06  0.0757814
 0.00542774
     1004.8    3013.83    3027.74    4161.06    4151.53  0.0738287
 0.00538192
     1004.8    3027.74    3041.74    4151.53    4142.01  0.0748705
 0.00549275
     1004.8    3041.74    3055.85    4142.01    4132.48  0.0738537
 0.00594178
     1004.8    3055.85    3070.05    4132.48    4122.96  0.0753759
 0.00559901
     1004.8    3070.05    3084.35    4122.96    4113.44  0.0710011
  0.0054782
     1004.8    3084.35    3098.76    4113.44    4103.91  0.0648483
 0.00554514
     1004.8    3098.76    3113.26    4103.91    4094.39  0.0712006
 0.00556979
     1004.8    3113.26    3127.87    4094.39    4084.87  0.0603976
  0.0056012
     1004.8    3127.87    3142.58    4084.87    4075.34  0.0724853
 0.00554404
     1004.8    3142.58    3157.39    4075.34    4065.82  0.0601956
 0.00552465
     1004.8    3157.39    3172.31    4065.82    4056.29  0.0834092
 0.00582261
     1004.8    3172.31    3187.34    4056.29    4046.77  0.0881921
 0.00606567
     1004.8    3187.34    3202.47    4046.77    4037.25  0.0759775
 0.00577134
     1004.8    3202.47    3217.71    4037.25    4027.72  0.0742195
 0.00577624
     1004.8    3217.71    3233.06    4027.72     4018.2  0.0812099
 0.00582078
     1004.8    3233.06    3248.52     4018.2    4008.67  0.0838585
 0.00600334
     1004.8    3248.52    3264.09    4008.67    3999.15  0.0706683
 0.00585807
     1004.8    3264.09    3279.78    3999.15    3989.63  0.0840238
 0.00592254
     1004.8    3279.78    3295.57    3989.63     3980.1  0.0720301
  0.0059523
     1004.8    3295.57    3311.49     3980.1    3970.58   0.077034
 0.00581525
     1004.8    3311.49    3327.51    3970.58    3961.06  0.0909482
 0.00614857
     1004.8    3327.51    3343.66    3961.06    3951.53   0.101565
 0.00635504
     1004.8    3343.66    3359.92    3951.53    3942.01  0.0935746
 0.00616283
     1004.8    3359.92     3376.3    3942.01    3932.48   0.087608
 0.00622518
     1004.8     3376.3    3392.81    3932.48    3922.96  0.0982633
 0.00660146
     1004.8    3392.81    3409.43    3922.96    3913.44  0.0989121
   0.006434
     1004.8    3409.43    3426.18    3913.44    3903.91  0.0999282
 0.00648117
     1004.8    3426.18    3443.05    3903.91    3894.39  0.0759275
 0.00605626
     1004.8    3443.05    3460.04    3894.39    3884.87  0.0922879
 0.00621454
     1004.8    3460.04    3477.16    3884.87    3875.34  0.0908241
 0.00639328
     1004.8    3477.16    3494.41    3875.34    3865.82  0.0873269
 0.00635483
     1004.8    3494.41    3511.79    3865.82    3856.29  0.0928082
 0.00633262
     1004.8    3511.79     3529.3    3856.29    3846.77  0.0893182
 0.00637275
     1004.8     3529.3    3546.94    3846.77    3837.25  0.0998358
  0.0065641
     1004.8    3546.94    3564.71    3837.25    3827.72   0.112505
 0.00697614
     1004.8    3564.71    3582.62    3827.72     3818.2   0.107724
 0.00675983
     1004.8    3582.62    3600.66     3818.2    3808.67   0.126633
 0.00724216
     1004.8    3600.66    3618.84    3808.67    3799.15   0.131373
 0.00718814
     1004.8    3618.84    3637.16    3799.15    3789.63   0.125655
 0.00725886
     1004.8    3637.16    3655.62    3789.63     3780.1   0.132717
 0.00734906
     1004.8    3655.62    3674.22     3780.1    3770.58   0.132465
 0.00723314
     1004.8    3674.22    3692.96    3770.58    3761.06   0.122582
 0.00722224
     1004.8    3692.96    3711.85    3761.06    3751.53   0.125639
 0.00731578
     1004.8    3711.85    3730.88    3751.53    3742.01   0.126907
 0.00711243
     1004.8    3730.88    3750.05    3742.01    3732.48   0.137656
 0.00753077
     1004.8    3750.05    3769.38    3732.48    3722.96   0.138621
 0.00748607
     1004.8    3769.38    3788.86    3722.96    3713.44   0.148199
 0.00780414
     1004.8    3788.86    3808.49    3713.44    3703.91   0.136618
 0.00760453
     1004.8    3808.49    3828.27    3703.91    3694.39   0.146064
 0.00788387
     1004.8    3828.27     3848.2    3694.39    3684.87   0.162831
 0.00812142
     1004.8     3848.2     3868.3    3684.87    3675.34    0.16027
 0.00824929
     1004.8     3868.3    3888.55    3675.34    3665.82   0.174706
 0.00841176
     1004.8    3888.55    3908.96    3665.82    3656.29    0.15153
 0.00794321
     1004.8    3908.96    3929.53    3656.29    3646.77   0.165862
 0.00815075
     1004.8    3929.53    3950.27    3646.77    3637.25   0.184596
 0.00879411
     1004.8    3950.27    3971.17    3637.25    3627.72   0.164639
  0.0083875
     1004.8    3971.17    3992.23    3627.72     3618.2   0.174157
  0.0083814
     1004.8    3992.23    4013.47     3618.2    3608.67   0.162054
 0.00809675
     1004.8    4013.47    4034.87    3608.67    3599.15   0.166975
 0.00837368
     1004.8    4034.87    4056.45    3599.15    3589.63   0.174188
 0.00851279
     1004.8    4056.45     4078.2    3589.63     3580.1   0.190735
 0.00887794
     1004.8     4078.2    4100.13     3580.1    3570.58    0.19383
 0.00901891
     1004.8    4100.13    4122.24    3570.58    3561.06   0.168847
 0.00838173
     1004.8    4122.24    4144.52    3561.06    3551.53   0.182247
 0.00870049
     1004.8    4144.52    4166.99    3551.53    3542.01    0.19746
 0.00905029
     1004.8    4166.99    4189.64    3542.01    3532.48   0.178252
 0.00866493
     1004.8    4189.64    4212.47    3532.48    3522.96   0.191409
 0.00897157
     1004.8    4212.47     4235.5    3522.96    3513.44   0.194114
 0.00906913
     1004.8     4235.5    4258.71    3513.44    3503.91   0.200124
 0.00911758
     1004.8    4258.71    4282.11    3503.91    3494.39    0.18415
   0.008717
     1004.8    4282.11    4305.71    3494.39    3484.87   0.187926
 0.00894446
     1004.8    4305.71    4329.51    3484.87    3475.34   0.200335
 0.00921765
     1004.8    4329.51     4353.5    3475.34    3465.82   0.200935
 0.00926712
     1004.8     4353.5    4377.69    3465.82    3456.29   0.211685
 0.00947488
     1004.8    4377.69    4402.09    3456.29    3446.77   0.211163
 0.00959041
     1004.8    4402.09    4426.69    3446.77    3437.25   0.204102
 0.00935783
     1004.8    4426.69     4451.5    3437.25    3427.72   0.241777
  0.0103278
     1004.8     4451.5    4476.52    3427.72     3418.2   0.217037
 0.00972525
     1004.8    4476.52    4501.75     3418.2    3408.67   0.216277
 0.00965847
     1004.8    4501.75    4527.19    3408.67    3399.15    0.22438
 0.00990622
     1004.8    4527.19    4552.85    3399.15    3389.63    0.22272
 0.00981678
     1004.8    4552.85    4578.73    3389.63     3380.1   0.207842
 0.00941806
     1004.8    4578.73    4604.83     3380.1    3370.58   0.210675
 0.00948634
     1004.8    4604.83    4631.16    3370.58    3361.06   0.210285
 0.00970966
     1004.8    4631.16    4657.71    3361.06    3351.53   0.233363
  0.0101371
     1004.8    4657.71     4684.5    3351.53    3342.01   0.249958
  0.0106248
     1004.8     4684.5    4711.51    3342.01    3332.48   0.260967
  0.0107878
     1004.8    4711.51    4738.76    3332.48    3322.96    0.24717
  0.0105163
     1004.8    4738.76    4766.25    3322.96    3313.44   0.247887
   0.010515
     1004.8    4766.25    4793.98    3313.44    3303.91    0.25442
  0.0106759
     1004.8    4793.98    4821.95    3303.91    3294.39    0.24961
   0.010654
     1004.8    4821.95    4850.17    3294.39    3284.87   0.248574
  0.0105153
     1004.8    4850.17    4878.64    3284.87    3275.34   0.236664
  0.0103414
     1004.8    4878.64    4907.36    3275.34    3265.82   0.248812
  0.0105574
     1004.8    4907.36    4936.33    3265.82    3256.29   0.237969
  0.0104429
     1004.8    4936.33    4965.57    3256.29    3246.77   0.244078
  0.0104165
     1004.8    4965.57    4995.06    3246.77    3237.25   0.251189
  0.0107511
     1004.8    4995.06    5024.82    3237.25    3227.72   0.250013
  0.0106572
     1004.8    5024.82    5054.84    3227.72     3218.2   0.271731
  0.0112328
     1004.8    5054.84    5085.14     3218.2    3208.67   0.252357
   0.010838
     1004.8    5085.14    5115.71    3208.67    3199.15   0.247154
  0.0107433
     1004.8    5115.71    5146.56    3199.15    3189.63   0.254432
  0.0107599
     1004.8    5146.56    5177.68    3189.63     3180.1   0.257164
  0.0109803
     1004.8    5177.68    5209.09     3180.1    3170.58   0.275972
  0.0115044
     1004.8    5209.09    5240.79    3170.58    3161.06   0.273514
  0.0113532
     1004.8    5240.79    5272.78    3161.06    3151.53   0.261743
  0.0110145
     1004.8    5272.78    5305.07    3151.53    3142.01    0.28849
  0.0118912
     1004.8    5305.07    5337.65    3142.01    3132.48   0.271174
  0.0113686
     1004.8    5337.65    5370.54    3132.48    3122.96   0.287332
   0.011662
     1004.8    5370.54    5403.73    3122.96    3113.44   0.273856
   0.011452
     1004.8    5403.73    5437.23    3113.44    3103.91   0.265547
  0.0111312
     1004.8    5437.23    5471.04    3103.91    3094.39    0.26754
  0.0111849
     1004.8    5471.04    5505.17    3094.39    3084.87   0.265576
  0.0111631
     1004.8    5505.17    5539.63    3084.87    3075.34   0.254095
  0.0109498
     1004.8    5539.63    5574.41    3075.34    3065.82   0.278959
   0.011482
     1004.8    5574.41    5609.51    3065.82    3056.29   0.270456
  0.0113446
     1004.8    5609.51    5644.95    3056.29    3046.77   0.282912
  0.0114442
     1004.8    5644.95    5680.73    3046.77    3037.25   0.255499
  0.0108282
     1004.8    5680.73    5716.85    3037.25    3027.72   0.268592
  0.0112584
     1004.8    5716.85    5753.32    3027.72     3018.2   0.273653
  0.0112829
     1004.8    5753.32    5790.14     3018.2    3008.67   0.280894
  0.0114632
     1004.8    5790.14    5827.32    3008.67    2999.15   0.268861
  0.0111371
     1004.8    5827.32    5864.85    2999.15    2989.63   0.278794
  0.0114373
     1004.8    5864.85    5902.75    2989.63     2980.1   0.266846
  0.0111419
     1004.8    5902.75    5941.02     2980.1    2970.58   0.265461
   0.011236
     1004.8    5941.02    5979.67    2970.58    2961.06   0.278713
  0.0114113
     1004.8    5979.67    6018.69    2961.06    2951.53   0.265078
  0.0111562
     1004.8    6018.69     6058.1    2951.53    2942.01   0.264341
  0.0111081
     1004.8     6058.1     6097.9    2942.01    2932.48   0.280467
  0.0116179
     1004.8     6097.9    6138.09    2932.48    2922.96   0.273414
  0.0113844
     1004.8    6138.09    6178.68    2922.96    2913.44   0.264687
  0.0112419
     1004.8    6178.68    6219.68    2913.44    2903.91   0.288242
  0.0118678
     1004.8    6219.68    6261.09    2903.91    2894.39   0.292703
   0.011962
     1004.8    6261.09    6302.92    2894.39    2884.87    0.29623
  0.0121384
     1004.8    6302.92    6345.16    2884.87    2875.34   0.285551
  0.0117991
     1004.8    6345.16    6387.84    2875.34    2865.82   0.290723
  0.0120245
     1004.8    6387.84    6430.95    2865.82    2856.29   0.288155
  0.0120455
     1004.8    6430.95    6474.49    2856.29    2846.77   0.295361
  0.0122534
     1004.8    6474.49    6518.49    2846.77    2837.25   0.284413
  0.0120021
     1004.8    6518.49    6562.93    2837.25    2827.72   0.282489
  0.0119663
     1004.8    6562.93    6607.83    2827.72     2818.2   0.288452
  0.0120719
     1004.8    6607.83     6653.2     2818.2    2808.67   0.296727
  0.0122701
     1004.8     6653.2    6699.04    2808.67    2799.15   0.288089
  0.0123207
     1004.8    6699.04    6745.35    2799.15    2789.63   0.285906
  0.0119688
     1004.8    6745.35    6792.15    2789.63     2780.1   0.285331
  0.0122395
     1004.8    6792.15    6839.44     2780.1    2770.58   0.288999
  0.0122527
     1004.8    6839.44    6887.22    2770.58    2761.06    0.29684
  0.0125684
     1004.8    6887.22    6935.51    2761.06    2751.53   0.287993
  0.0122113
     1004.8    6935.51    6984.31    2751.53    2742.01   0.287471
  0.0123643
     1004.8    6984.31    7033.63    2742.01    2732.48   0.285018
  0.0122772
     1004.8    7033.63    7083.48    2732.48    2722.96    0.29178
  0.0124927
     1004.8    7083.48    7133.86    2722.96    2713.44   0.305635
  0.0128142
     1004.8    7133.86    7184.78    2713.44    2703.91   0.288868
  0.0125819
     1004.8    7184.78    7236.25    2703.91    2694.39   0.276476
   0.012113
     1004.8    7236.25    7288.28    2694.39    2684.87   0.270847
  0.0119947
     1004.8    7288.28    7340.87    2684.87    2675.34   0.286834
  0.0123215
     1004.8    7340.87    7394.04    2675.34    2665.82   0.283264
  0.0125275
     1004.8    7394.04    7447.79    2665.82    2656.29   0.298322
  0.0128306
     1004.8    7447.79    7502.13    2656.29    2646.77   0.288776
   0.012698
     1004.8    7502.13    7557.07    2646.77    2637.25   0.295486
  0.0128312
     1004.8    7557.07    7612.62    2637.25    2627.72   0.279003
  0.0124254
     1004.8    7612.62    7668.78    2627.72     2618.2    0.25758
   0.012049
     1004.8    7668.78    7725.57     2618.2    2608.67   0.258599
  0.0118936
     1004.8    7725.57      7783.    2608.67    2599.15    0.24277
   0.011584
     1004.8      7783.    7841.07    2599.15    2589.63   0.240016
  0.0116657
     1004.8    7841.07     7899.8    2589.63     2580.1   0.244724
  0.0119719
     1004.8     7899.8    7959.19     2580.1    2570.58   0.262472
   0.012169
     1004.8    7959.19    8019.26    2570.58    2561.06   0.262734
   0.012392
     1004.8    8019.26    8080.01    2561.06    2551.53   0.258018
  0.0121924
     1004.8    8080.01    8141.46    2551.53    2542.01   0.252687
  0.0123972
     1004.8    8141.46    8203.61    2542.01    2532.48   0.251227
  0.0123453
     1004.8    8203.61    8266.49    2532.48    2522.96   0.238883
  0.0121801
     1004.8    8266.49    8330.09    2522.96    2513.44   0.287666
  0.0132257
     1004.8    8330.09    8394.43    2513.44    2503.91   0.268936
  0.0127356
     1004.8    8394.43    8459.52    2503.91    2494.39   0.244686
  0.0122958
     1004.8    8459.52    8525.38    2494.39    2484.87   0.259285
  0.0127133
     1004.8    8525.38    8592.01    2484.87    2475.34   0.265185
  0.0130097
     1004.8    8592.01    8659.43    2475.34    2465.82   0.273159
  0.0134213
     1004.8    8659.43    8727.65    2465.82    2456.29   0.259703
   0.013243
     1004.8    8727.65    8796.69    2456.29    2446.77   0.265287
  0.0130295
     1004.8    8796.69    8866.55    2446.77    2437.25   0.261167
  0.0130769
     1004.8    8866.55    8937.25    2437.25    2427.72   0.276961
  0.0136455
     1004.8    8937.25     9008.8    2427.72     2418.2   0.250472
  0.0130288
     1004.8     9008.8    9081.22     2418.2    2408.67   0.262209
  0.0134332
     1004.8    9081.22    9154.52    2408.67    2399.15   0.255002
  0.0136161
     1004.8    9154.52    9228.72    2399.15    2389.63   0.238145
  0.0132783
     1004.8    9228.72    9303.83    2389.63     2380.1   0.254699
  0.0137593
     1004.8    9303.83    9379.86     2380.1    2370.58    0.27116
  0.0143676
     1004.8    9379.86    9456.83    2370.58    2361.06   0.266747
  0.0143933
     1004.8    9456.83    9534.76    2361.06    2351.53   0.262387
  0.0143482
     1004.8    9534.76    9613.66    2351.53    2342.01   0.254647
  0.0143366
     1004.8    9613.66    9693.55    2342.01    2332.48   0.240137
  0.0142642
     1004.8    9693.55    9774.44    2332.48    2322.96   0.241465
  0.0138999
     1004.8    9774.44    9856.36    2322.96    2313.44   0.249257
  0.0144838
     1004.8    9856.36    9939.32    2313.44    2303.91   0.284824
  0.0157646
     1004.8    9939.32    10023.3    2303.91    2294.39   0.272035
  0.0153304
     1004.8    10023.3    10108.4    2294.39    2284.87   0.264595
  0.0154482
     1004.8    10108.4    10194.6    2284.87    2275.34   0.276727
  0.0158355
     1004.8    10194.6    10281.9    2275.34    2265.82   0.296655
  0.0165591
     1004.8    10281.9    10370.3    2265.82    2256.29   0.261807
  0.0154632
     1004.8    10370.3    10459.9    2256.29    2246.77   0.262331
  0.0159946
     1004.8    10459.9    10550.7    2246.77    2237.25   0.289077
  0.0168868
     1004.8    10550.7    10642.6    2237.25    2227.72   0.277091
  0.0165179
     1004.8    10642.6    10735.8    2227.72     2218.2   0.261514
  0.0162793
     1004.8    10735.8    10830.2     2218.2    2208.67   0.264344
  0.0166098
     1004.8    10830.2    10925.8    2208.67    2199.15   0.249257
  0.0171679
     1004.8    10925.8    11022.8    2199.15    2189.63   0.251614
  0.0166427
     1004.8    11022.8     11121.    2189.63     2180.1   0.273194
   0.017574
     1004.8     11121.    11220.5     2180.1    2170.58   0.260362
  0.0179556
     1004.8    11220.5    11321.5    2170.58    2161.06   0.240325
  0.0168401
     1004.8    11321.5    11423.8    2161.06    2151.53   0.228554
  0.0167546
     1004.8    11423.8    11527.5    2151.53    2142.01   0.213625
  0.0161864
     1004.8    11527.5    11632.6    2142.01    2132.48   0.234841
  0.0166186
     1004.8    11632.6    11739.1    2132.48    2122.96    0.23356
   0.017271
     1004.8    11739.1    11847.2    2122.96    2113.44   0.233889
  0.0173824
     1004.8    11847.2    11956.8    2113.44    2103.91   0.218436
  0.0173716
     1004.8    11956.8    12067.9    2103.91    2094.39   0.231657
  0.0174203
     1004.8    12067.9    12180.5    2094.39    2084.87   0.188356
  0.0166794
     1004.8    12180.5    12294.8    2084.87    2075.34   0.226025
  0.0176452
     1004.8    12294.8    12410.7    2075.34    2065.82   0.220416
  0.0202171
     1004.8    12410.7    12528.2    2065.82    2056.29    0.19451
   0.018051
     1004.8    12528.2    12647.4    2056.29    2046.77   0.214422
  0.0186939
     1004.8    12647.4    12768.4    2046.77    2037.25   0.190953
  0.0176924
     1004.8    12768.4    12891.1    2037.25    2027.72   0.198204
  0.0187761
     1004.8    12891.1    13015.6    2027.72     2018.2    0.16708
  0.0179319
     1004.8    13015.6    13270.1     2018.2    1999.15   0.177466
  0.0130534
     1004.8    13270.1    13532.2    1999.15     1980.1   0.169974
   0.013387
     1004.8    13532.2    13802.2     1980.1    1961.06   0.156364
  0.0130268
     1004.8    13802.2    14080.4    1961.06    1942.01   0.133709
  0.0135248
     1004.8    14080.4    14367.2    1942.01    1922.96   0.144502
  0.0134823
     1004.8    14367.2    14662.9    1922.96    1903.91   0.143818
  0.0136694
     1004.8    14662.9    14967.9    1903.91    1884.87   0.121402
  0.0126542
     1004.8    14967.9    15282.6    1884.87    1865.82  0.0937132
  0.0130454
     1004.8    15282.6    15607.4    1865.82    1846.77   0.118068
  0.0133001
     1004.8    15607.4    15942.8    1846.77    1827.72  0.0836441
  0.0130746
     1004.8    15942.8    16289.2    1827.72    1808.67  0.0755979
  0.0134672
     1004.8    16289.2    16647.1    1808.67    1789.63  0.0971326
  0.0142816
     1004.8    16647.1     17017.    1789.63    1770.58  0.0724742
  0.0138988
     1004.8     17017.    17399.6    1770.58    1751.53   0.074162
  0.0136947
     1004.8    17399.6    17795.3    1751.53    1732.48  0.0947987
  0.0145966
     1454.2    1479.08    1483.85    5932.48    5922.96  0.0239807
  0.0023589
     1454.2    1483.85    1488.64    5922.96    5913.44  0.0451465
 0.00294893
     1454.2    1488.64    1493.46    5913.44    5903.91  0.0647454
 0.00357899
     1454.2    1493.46     1498.3    5903.91    5894.39   0.135554
 0.00590967
     1454.2     1498.3    1503.17    5894.39    5884.87   0.217496
 0.00838425
     1454.2    1503.17    1508.06    5884.87    5875.34   0.229414
 0.00868157
     1454.2    1508.06    1512.97    5875.34    5865.82   0.194355
 0.00760202
     1454.2    1512.97    1517.91    5865.82    5856.29   0.191997
 0.00744167
     1454.2    1517.91    1522.87    5856.29    5846.77   0.205208
 0.00780346
     1454.2    1522.87    1527.85    5846.77    5837.25    0.19766
 0.00757568
     1454.2    1527.85    1532.86    5837.25    5827.72   0.183618
 0.00713121
     1454.2    1532.86     1537.9    5827.72     5818.2   0.198949
 0.00759329
     1454.2     1537.9    1542.96     5818.2    5808.67   0.221167
 0.00826494
     1454.2    1542.96    1548.04    5808.67    5799.15   0.206253
 0.00784276
     1454.2    1548.04    1553.15    5799.15    5789.63   0.202288
 0.00768392
     1454.2    1553.15    1558.29    5789.63     5780.1   0.208661
 0.00782828
     1454.2    1558.29    1563.45     5780.1    5770.58    0.20648
 0.00778428
     1454.2    1563.45    1568.64    5770.58    5761.06   0.190962
 0.00734046
     1454.2    1568.64    1573.85    5761.06    5751.53   0.180603
 0.00700203
     1454.2    1573.85    1579.09    5751.53    5742.01   0.180654
 0.00701382
     1454.2    1579.09    1584.35    5742.01    5732.48   0.198168
 0.00753987
     1454.2    1584.35    1589.64    5732.48    5722.96   0.234311
 0.00858465
     1454.2    1589.64    1594.96    5722.96    5713.44   0.261925
 0.00939411
     1454.2    1594.96     1600.3    5713.44    5703.91    0.25849
 0.00930034
     1454.2     1600.3    1605.67    5703.91    5694.39   0.220839
 0.00821138
     1454.2    1605.67    1611.07    5694.39    5684.87   0.238399
 0.00867526
     1454.2    1611.07     1616.5    5684.87    5675.34   0.247928
  0.0089481
     1454.2     1616.5    1621.95    5675.34    5665.82    0.33125
  0.0113572
     1454.2    1621.95    1627.43    5665.82    5656.29   0.320453
  0.0110587
     1454.2    1627.43    1632.94    5656.29    5646.77   0.349261
  0.0119257
     1454.2    1632.94    1638.48    5646.77    5637.25   0.349431
  0.0118777
     1454.2    1638.48    1644.04    5637.25    5627.72   0.326861
  0.0112238
     1454.2    1644.04    1649.64    5627.72     5618.2   0.447803
  0.0146382
     1454.2    1649.64    1655.26     5618.2    5608.67    0.53964
  0.0172374
     1454.2    1655.26    1660.91    5608.67    5599.15   0.540733
  0.0173129
     1454.2    1660.91    1666.59    5599.15    5589.63   0.474062
  0.0153778
     1454.2    1666.59     1672.3    5589.63     5580.1    0.44665
  0.0145538
     1454.2     1672.3    1678.04     5580.1    5570.58   0.504409
  0.0161602
     1454.2    1678.04     1683.8    5570.58    5561.06   0.493589
  0.0158699
     1454.2     1683.8     1689.6    5561.06    5551.53   0.445128
  0.0145222
     1454.2     1689.6    1695.43    5551.53    5542.01   0.434097
  0.0141952
     1454.2    1695.43    1701.29    5542.01    5532.48   0.453063
  0.0147239
     1454.2    1701.29    1707.18    5532.48    5522.96   0.350787
  0.0119299
     1454.2    1707.18    1713.09    5522.96    5513.44   0.322582
  0.0110158
     1454.2    1713.09    1719.04    5513.44    5503.91   0.388664
    0.01285
     1454.2    1719.04    1725.03    5503.91    5494.39   0.448206
  0.0145811
     1454.2    1725.03    1731.04    5494.39    5484.87   0.396842
  0.0131634
     1454.2    1731.04    1737.08    5484.87    5475.34   0.394098
   0.013068
     1454.2    1737.08    1743.16    5475.34    5465.82    0.44034
  0.0143558
     1454.2    1743.16    1749.26    5465.82    5456.29   0.536286
  0.0170796
     1454.2    1749.26     1755.4    5456.29    5446.77   0.535715
  0.0170874
     1454.2     1755.4    1761.58    5446.77    5437.25   0.524369
  0.0167793
     1454.2    1761.58    1767.78    5437.25    5427.72   0.510083
  0.0163094
     1454.2    1767.78    1774.02    5427.72     5418.2   0.528355
  0.0168695
     1454.2    1774.02    1780.29     5418.2    5408.67   0.529981
  0.0168856
     1454.2    1780.29    1786.59    5408.67    5399.15   0.478835
  0.0154251
     1454.2    1786.59    1792.93    5399.15    5389.63   0.487559
  0.0156665
     1454.2    1792.93     1799.3    5389.63     5380.1   0.547961
  0.0173774
     1454.2     1799.3    1805.71     5380.1    5370.58   0.593966
  0.0186552
     1454.2    1805.71    1812.15    5370.58    5361.06   0.557775
  0.0176665
     1454.2    1812.15    1818.62    5361.06    5351.53   0.528402
  0.0168421
     1454.2    1818.62    1825.13    5351.53    5342.01   0.536754
  0.0170428
     1454.2    1825.13    1831.68    5342.01    5332.48   0.535907
  0.0170285
     1454.2    1831.68    1838.26    5332.48    5322.96   0.625753
  0.0195917
     1454.2    1838.26    1844.87    5322.96    5313.44   0.548946
  0.0174258
     1454.2    1844.87    1851.52    5313.44    5303.91   0.461234
  0.0149672
     1454.2    1851.52    1858.21    5303.91    5294.39   0.455021
  0.0147436
     1454.2    1858.21    1864.93    5294.39    5284.87   0.488834
  0.0156867
     1454.2    1864.93    1871.69    5284.87    5275.34   0.478816
  0.0154467
     1454.2    1871.69    1878.49    5275.34    5265.82   0.442927
  0.0144578
     1454.2    1878.49    1885.32    5265.82    5256.29   0.459033
  0.0149169
     1454.2    1885.32    1892.19    5256.29    5246.77   0.463132
  0.0150373
     1454.2    1892.19     1899.1    5246.77    5237.25    0.50653
  0.0162159
     1454.2     1899.1    1906.05    5237.25    5227.72   0.490583
  0.0157837
     1454.2    1906.05    1913.04    5227.72     5218.2   0.472297
  0.0152549
     1454.2    1913.04    1920.06     5218.2    5208.67   0.431385
  0.0141126
     1454.2    1920.06    1927.12    5208.67    5199.15   0.476877
  0.0153947
     1454.2    1927.12    1934.22    5199.15    5189.63   0.498509
  0.0160135
     1454.2    1934.22    1941.36    5189.63     5180.1   0.435974
  0.0142794
     1454.2    1941.36    1948.55     5180.1    5170.58   0.373019
  0.0125333
     1454.2    1948.55    1955.77    5170.58    5161.06   0.401502
  0.0132564
     1454.2    1955.77    1963.03    5161.06    5151.53   0.473105
  0.0153262
     1454.2    1963.03    1970.33    5151.53    5142.01   0.457864
  0.0149169
     1454.2    1970.33    1977.67    5142.01    5132.48   0.484437
  0.0156247
     1454.2    1977.67    1985.05    5132.48    5122.96   0.490542
  0.0158024
     1454.2    1985.05    1992.48    5122.96    5113.44   0.545402
  0.0173059
     1454.2    1992.48    1999.94    5113.44    5103.91   0.650881
  0.0203131
     1454.2    1999.94    2007.45    5103.91    5094.39   0.678175
  0.0210829
     1454.2    2007.45      2015.    5094.39    5084.87   0.635986
  0.0198809
     1454.2      2015.     2022.6    5084.87    5075.34   0.626203
  0.0196017
     1454.2     2022.6    2030.23    5075.34    5065.82   0.645919
  0.0201217
     1454.2    2030.23    2037.92    5065.82    5056.29   0.594885
  0.0187463
     1454.2    2037.92    2045.64    5056.29    5046.77   0.519782
  0.0165819
     1454.2    2045.64    2053.41    5046.77    5037.25   0.555122
  0.0175526
     1454.2    2053.41    2061.22    5037.25    5027.72   0.513822
   0.016438
     1454.2    2061.22    2069.08    5027.72     5018.2   0.515855
  0.0164657
     1454.2    2069.08    2076.98     5018.2    5008.67   0.557883
  0.0176921
     1454.2    2076.98    2084.93    5008.67    4999.15   0.541622
  0.0172153
     1454.2    2084.93    2092.92    4999.15    4989.63   0.485888
  0.0156361
     1454.2    2092.92    2100.96    4989.63     4980.1   0.511901
   0.016359
     1454.2    2100.96    2109.05     4980.1    4970.58   0.541375
  0.0171818
     1454.2    2109.05    2117.18    4970.58    4961.06   0.495721
  0.0159365
     1454.2    2117.18    2125.36    4961.06    4951.53   0.544379
  0.0173067
     1454.2    2125.36    2133.59    4951.53    4942.01   0.561097
  0.0177589
     1454.2    2133.59    2141.86    4942.01    4932.48   0.580047
  0.0182915
     1454.2    2141.86    2150.18    4932.48    4922.96   0.561575
  0.0177617
     1454.2    2150.18    2158.56    4922.96    4913.44   0.572015
  0.0180858
     1454.2    2158.56    2166.98    4913.44    4903.91   0.534407
  0.0169932
     1454.2    2166.98    2175.45    4903.91    4894.39   0.476349
  0.0153802
     1454.2    2175.45    2183.97    4894.39    4884.87   0.486959
  0.0156948
     1454.2    2183.97    2192.54    4884.87    4875.34   0.549978
  0.0173875
     1454.2    2192.54    2201.16    4875.34    4865.82   0.606323
  0.0190522
     1454.2    2201.16    2209.83    4865.82    4856.29   0.583865
  0.0184332
     1454.2    2209.83    2218.56    4856.29    4846.77   0.597961
  0.0188277
     1454.2    2218.56    2227.33    4846.77    4837.25   0.685292
  0.0212656
     1454.2    2227.33    2236.16    4837.25    4827.72   0.717774
  0.0221735
     1454.2    2236.16    2245.04    4827.72     4818.2   0.648362
  0.0201802
     1454.2    2245.04    2253.98     4818.2    4808.67   0.606533
  0.0189978
     1454.2    2253.98    2262.96    4808.67    4799.15   0.677294
   0.020959
     1454.2    2262.96      2272.    4799.15    4789.63   0.684978
  0.0212118
     1454.2      2272.     2281.1    4789.63     4780.1   0.693324
  0.0214613
     1454.2     2281.1    2290.25     4780.1    4770.58   0.673053
  0.0209108
     1454.2    2290.25    2299.46    4770.58    4761.06   0.633468
  0.0197745
     1454.2    2299.46    2308.72    4761.06    4751.53   0.610765
  0.0191486
     1454.2    2308.72    2318.03    4751.53    4742.01   0.559103
  0.0177183
     1454.2    2318.03    2327.41    4742.01    4732.48   0.555205
  0.0175776
     1454.2    2327.41    2336.84    4732.48    4722.96   0.646853
  0.0201571
     1454.2    2336.84    2346.33    4722.96    4713.44   0.669813
  0.0208303
     1454.2    2346.33    2355.87    4713.44    4703.91   0.632952
  0.0198035
     1454.2    2355.87    2365.48    4703.91    4694.39   0.632549
  0.0197857
     1454.2    2365.48    2375.14    4694.39    4684.87   0.646385
  0.0201673
     1454.2    2375.14    2384.87    4684.87    4675.34   0.648831
  0.0202605
     1454.2    2384.87    2394.65    4675.34    4665.82   0.649257
  0.0202726
     1454.2    2394.65    2404.49    4665.82    4656.29   0.653111
  0.0203869
     1454.2    2404.49     2414.4    4656.29    4646.77   0.690317
  0.0214089
     1454.2     2414.4    2424.36    4646.77    4637.25   0.617388
  0.0193934
     1454.2    2424.36    2434.39    4637.25    4627.72   0.613874
  0.0193094
     1454.2    2434.39    2444.48    4627.72     4618.2   0.662032
  0.0206399
     1454.2    2444.48    2454.63     4618.2    4608.67   0.708343
   0.021938
     1454.2    2454.63    2464.85    4608.67    4599.15   0.666409
  0.0208035
     1454.2    2464.85    2475.13    4599.15    4589.63   0.610946
  0.0192168
     1454.2    2475.13    2485.48    4589.63     4580.1   0.648807
  0.0202792
     1454.2    2485.48    2495.89     4580.1    4570.58   0.635305
  0.0199838
     1454.2    2495.89    2506.36    4570.58    4561.06   0.591154
  0.0187303
     1454.2    2506.36     2516.9    4561.06    4551.53   0.608709
  0.0191852
     1454.2     2516.9    2527.51    4551.53    4542.01   0.627843
  0.0197615
     1454.2    2527.51    2538.19    4542.01    4532.48   0.616815
  0.0194729
     1454.2    2538.19    2548.93    4532.48    4522.96    0.63767
  0.0200251
     1454.2    2548.93    2559.75    4522.96    4513.44    0.66525
  0.0207969
     1454.2    2559.75    2570.63    4513.44    4503.91   0.676133
  0.0211374
     1454.2    2570.63    2581.58    4503.91    4494.39   0.689106
  0.0215189
     1454.2    2581.58     2592.6    4494.39    4484.87   0.671985
  0.0210503
     1454.2     2592.6    2603.69    4484.87    4475.34   0.658027
  0.0206309
     1454.2    2603.69    2614.86    4475.34    4465.82   0.694047
  0.0216666
     1454.2    2614.86    2626.09    4465.82    4456.29   0.711887
  0.0222067
     1454.2    2626.09     2637.4    4456.29    4446.77   0.695939
  0.0217329
     1454.2     2637.4    2648.78    4446.77    4437.25   0.690818
   0.021621
     1454.2    2648.78    2660.24    4437.25    4427.72   0.722561
  0.0225449
     1454.2    2660.24    2671.77    4427.72     4418.2   0.707568
  0.0220969
     1454.2    2671.77    2683.37     4418.2    4408.67   0.733183
  0.0228022
     1454.2    2683.37    2695.05    4408.67    4399.15   0.759499
  0.0235408
     1454.2    2695.05    2706.81    4399.15    4389.63   0.711997
  0.0222092
     1454.2    2706.81    2718.65    4389.63     4380.1   0.712185
  0.0222445
     1454.2    2718.65    2730.56     4380.1    4370.58   0.711026
  0.0222117
     1454.2    2730.56    2742.55    4370.58    4361.06   0.736114
   0.022889
     1454.2    2742.55    2754.62    4361.06    4351.53    0.75349
   0.023404
     1454.2    2754.62    2766.77    4351.53    4342.01   0.722379
  0.0225103
     1454.2    2766.77      2779.    4342.01    4332.48   0.737445
  0.0229672
     1454.2      2779.    2791.32    4332.48    4322.96   0.748851
   0.023278
     1454.2    2791.32    2803.71    4322.96    4313.44   0.781925
  0.0241848
     1454.2    2803.71    2816.19    4313.44    4303.91   0.823989
  0.0254682
     1454.2    2816.19    2828.75    4303.91    4294.39   0.800044
  0.0248198
     1454.2    2828.75     2841.4    4294.39    4284.87   0.766554
  0.0238631
     1454.2     2841.4    2854.13    4284.87    4275.34   0.751902
  0.0234631
     1454.2    2854.13    2866.94    4275.34    4265.82   0.798855
  0.0247749
     1454.2    2866.94    2879.85    4265.82    4256.29    0.85449
  0.0263182
     1454.2    2879.85    2892.84    4256.29    4246.77   0.797599
  0.0247418
     1454.2    2892.84    2905.92    4246.77    4237.25   0.726395
  0.0228083
     1454.2    2905.92    2919.09    4237.25    4227.72   0.781602
  0.0242434
     1454.2    2919.09    2932.34    4227.72     4218.2   0.815389
  0.0252343
     1454.2    2932.34    2945.69     4218.2    4208.67   0.817941
  0.0253316
     1454.2    2945.69    2959.13    4208.67    4199.15   0.753085
  0.0235196
     1454.2    2959.13    2972.67    4199.15    4189.63    0.73824
  0.0230696
     1454.2    2972.67    2986.29    4189.63     4180.1    0.79353
  0.0246632
     1454.2    2986.29    3000.01     4180.1    4170.58   0.813179
  0.0252113
     1454.2    3000.01    3013.83    4170.58    4161.06   0.810206
  0.0250378
     1454.2    3013.83    3027.74    4161.06    4151.53   0.799214
  0.0246774
     1454.2    3027.74    3041.74    4151.53    4142.01   0.812942
  0.0250925
     1454.2    3041.74    3055.85    4142.01    4132.48   0.876486
  0.0268739
     1454.2    3055.85    3070.05    4132.48    4122.96   0.903413
  0.0276126
     1454.2    3070.05    3084.35    4122.96    4113.44   0.930672
  0.0283782
     1454.2    3084.35    3098.76    4113.44    4103.91   0.887341
   0.027196
     1454.2    3098.76    3113.26    4103.91    4094.39   0.885003
  0.0271167
     1454.2    3113.26    3127.87    4094.39    4084.87   0.843266
    0.02599
     1454.2    3127.87    3142.58    4084.87    4075.34   0.885452
  0.0271316
     1454.2    3142.58    3157.39    4075.34    4065.82   0.886767
  0.0272031
     1454.2    3157.39    3172.31    4065.82    4056.29   0.856752
  0.0263066
     1454.2    3172.31    3187.34    4056.29    4046.77   0.889576
  0.0272545
     1454.2    3187.34    3202.47    4046.77    4037.25   0.935346
  0.0285317
     1454.2    3202.47    3217.71    4037.25    4027.72   0.935723
  0.0285636
     1454.2    3217.71    3233.06    4027.72     4018.2   0.908684
  0.0278071
     1454.2    3233.06    3248.52     4018.2    4008.67   0.924635
  0.0282418
     1454.2    3248.52    3264.09    4008.67    3999.15   0.916709
  0.0280542
     1454.2    3264.09    3279.78    3999.15    3989.63   0.928684
  0.0283923
     1454.2    3279.78    3295.57    3989.63     3980.1    0.90732
  0.0277843
     1454.2    3295.57    3311.49     3980.1    3970.58   0.909519
  0.0278566
     1454.2    3311.49    3327.51    3970.58    3961.06   0.949552
  0.0289427
     1454.2    3327.51    3343.66    3961.06    3951.53   0.943224
  0.0287917
     1454.2    3343.66    3359.92    3951.53    3942.01   0.933201
  0.0284989
     1454.2    3359.92     3376.3    3942.01    3932.48   0.934798
  0.0285567
     1454.2     3376.3    3392.81    3932.48    3922.96   0.920814
  0.0282331
     1454.2    3392.81    3409.43    3922.96    3913.44   0.904836
  0.0277426
     1454.2    3409.43    3426.18    3913.44    3903.91   0.884179
  0.0271704
     1454.2    3426.18    3443.05    3903.91    3894.39   0.906497
   0.027835
     1454.2    3443.05    3460.04    3894.39    3884.87   0.865656
  0.0266909
     1454.2    3460.04    3477.16    3884.87    3875.34   0.943915
  0.0288659
     1454.2    3477.16    3494.41    3875.34    3865.82   0.960849
   0.029339
     1454.2    3494.41    3511.79    3865.82    3856.29   0.927834
  0.0284556
     1454.2    3511.79     3529.3    3856.29    3846.77   0.909346
  0.0279023
     1454.2     3529.3    3546.94    3846.77    3837.25   0.950666
  0.0291088
     1454.2    3546.94    3564.71    3837.25    3827.72   0.971078
  0.0296464
     1454.2    3564.71    3582.62    3827.72     3818.2   0.972768
  0.0297235
     1454.2    3582.62    3600.66     3818.2    3808.67   0.970242
   0.029667
     1454.2    3600.66    3618.84    3808.67    3799.15   0.944592
  0.0289201
     1454.2    3618.84    3637.16    3799.15    3789.63   0.981927
  0.0300106
     1454.2    3637.16    3655.62    3789.63     3780.1   0.966055
  0.0295728
     1454.2    3655.62    3674.22     3780.1    3770.58   0.921295
    0.02825
     1454.2    3674.22    3692.96    3770.58    3761.06   0.897787
  0.0276279
     1454.2    3692.96    3711.85    3761.06    3751.53    0.92715
  0.0284745
     1454.2    3711.85    3730.88    3751.53    3742.01   0.898017
  0.0276641
     1454.2    3730.88    3750.05    3742.01    3732.48   0.914558
  0.0281101
     1454.2    3750.05    3769.38    3732.48    3722.96   0.950068
    0.02913
     1454.2    3769.38    3788.86    3722.96    3713.44   0.937497
  0.0287327
     1454.2    3788.86    3808.49    3713.44    3703.91   0.932758
  0.0286601
     1454.2    3808.49    3828.27    3703.91    3694.39   0.945086
  0.0289783
     1454.2    3828.27     3848.2    3694.39    3684.87   0.952794
  0.0292166
     1454.2     3848.2     3868.3    3684.87    3675.34   0.960463
  0.0294175
     1454.2     3868.3    3888.55    3675.34    3665.82    0.95228
   0.029197
     1454.2    3888.55    3908.96    3665.82    3656.29   0.940311
   0.028886
     1454.2    3908.96    3929.53    3656.29    3646.77   0.947978
  0.0290819
     1454.2    3929.53    3950.27    3646.77    3637.25   0.944337
  0.0290057
     1454.2    3950.27    3971.17    3637.25    3627.72   0.938712
  0.0288468
     1454.2    3971.17    3992.23    3627.72     3618.2   0.921403
   0.028346
     1454.2    3992.23    4013.47     3618.2    3608.67   0.914508
  0.0281663
     1454.2    4013.47    4034.87    3608.67    3599.15   0.911265
   0.028123
     1454.2    4034.87    4056.45    3599.15    3589.63   0.906385
  0.0279494
     1454.2    4056.45     4078.2    3589.63     3580.1   0.913321
  0.0281862
     1454.2     4078.2    4100.13     3580.1    3570.58   0.905768
  0.0279598
     1454.2    4100.13    4122.24    3570.58    3561.06   0.905774
   0.027959
     1454.2    4122.24    4144.52    3561.06    3551.53    0.88398
  0.0273302
     1454.2    4144.52    4166.99    3551.53    3542.01   0.897026
  0.0277219
     1454.2    4166.99    4189.64    3542.01    3532.48   0.927279
  0.0285684
     1454.2    4189.64    4212.47    3532.48    3522.96   0.897955
  0.0278134
     1454.2    4212.47     4235.5    3522.96    3513.44   0.925297
  0.0285594
     1454.2     4235.5    4258.71    3513.44    3503.91   0.914238
  0.0282366
     1454.2    4258.71    4282.11    3503.91    3494.39   0.912513
  0.0282009
     1454.2    4282.11    4305.71    3494.39    3484.87   0.914431
  0.0282062
     1454.2    4305.71    4329.51    3484.87    3475.34     0.8992
  0.0278101
     1454.2    4329.51     4353.5    3475.34    3465.82   0.891409
  0.0276459
     1454.2     4353.5    4377.69    3465.82    3456.29   0.956765
  0.0294271
     1454.2    4377.69    4402.09    3456.29    3446.77   0.925268
  0.0285767
     1454.2    4402.09    4426.69    3446.77    3437.25   0.918477
  0.0283781
     1454.2    4426.69     4451.5    3437.25    3427.72   0.918017
  0.0283452
     1454.2     4451.5    4476.52    3427.72     3418.2   0.909275
  0.0281031
     1454.2    4476.52    4501.75     3418.2    3408.67   0.928477
  0.0286357
     1454.2    4501.75    4527.19    3408.67    3399.15   0.961997
  0.0296148
     1454.2    4527.19    4552.85    3399.15    3389.63   0.928427
  0.0287435
     1454.2    4552.85    4578.73    3389.63     3380.1   0.908238
  0.0281629
     1454.2    4578.73    4604.83     3380.1    3370.58   0.931875
  0.0288077
     1454.2    4604.83    4631.16    3370.58    3361.06   0.929972
  0.0287407
     1454.2    4631.16    4657.71    3361.06    3351.53   0.920276
  0.0284729
     1454.2    4657.71     4684.5    3351.53    3342.01   0.958616
   0.029567
     1454.2     4684.5    4711.51    3342.01    3332.48   0.952605
  0.0293588
     1454.2    4711.51    4738.76    3332.48    3322.96    0.93809
  0.0290137
     1454.2    4738.76    4766.25    3322.96    3313.44   0.964339
  0.0297317
     1454.2    4766.25    4793.98    3313.44    3303.91   0.947252
  0.0292731
     1454.2    4793.98    4821.95    3303.91    3294.39   0.934883
  0.0289877
     1454.2    4821.95    4850.17    3294.39    3284.87   0.952874
  0.0294445
     1454.2    4850.17    4878.64    3284.87    3275.34   0.927486
  0.0287169
     1454.2    4878.64    4907.36    3275.34    3265.82   0.910419
  0.0283055
     1454.2    4907.36    4936.33    3265.82    3256.29   0.947135
  0.0292723
     1454.2    4936.33    4965.57    3256.29    3246.77   0.947545
  0.0293635
     1454.2    4965.57    4995.06    3246.77    3237.25   0.949703
  0.0294376
     1454.2    4995.06    5024.82    3237.25    3227.72   0.942882
  0.0292088
     1454.2    5024.82    5054.84    3227.72     3218.2   0.923519
  0.0286059
     1454.2    5054.84    5085.14     3218.2    3208.67   0.933521
  0.0289355
     1454.2    5085.14    5115.71    3208.67    3199.15   0.928044
  0.0287781
     1454.2    5115.71    5146.56    3199.15    3189.63   0.938045
   0.029052
     1454.2    5146.56    5177.68    3189.63     3180.1   0.930241
  0.0288612
     1454.2    5177.68    5209.09     3180.1    3170.58   0.939883
  0.0291154
     1454.2    5209.09    5240.79    3170.58    3161.06   0.914632
  0.0284675
     1454.2    5240.79    5272.78    3161.06    3151.53   0.945219
  0.0293052
     1454.2    5272.78    5305.07    3151.53    3142.01   0.968602
  0.0299303
     1454.2    5305.07    5337.65    3142.01    3132.48   0.927823
  0.0289363
     1454.2    5337.65    5370.54    3132.48    3122.96   0.916314
   0.028593
     1454.2    5370.54    5403.73    3122.96    3113.44   0.930304
  0.0289521
     1454.2    5403.73    5437.23    3113.44    3103.91   0.914178
  0.0285105
     1454.2    5437.23    5471.04    3103.91    3094.39   0.903519
  0.0281787
     1454.2    5471.04    5505.17    3094.39    3084.87   0.896405
   0.028031
     1454.2    5505.17    5539.63    3084.87    3075.34   0.908739
  0.0283344
     1454.2    5539.63    5574.41    3075.34    3065.82   0.900936
  0.0280917
     1454.2    5574.41    5609.51    3065.82    3056.29   0.893677
  0.0279169
     1454.2    5609.51    5644.95    3056.29    3046.77   0.879338
  0.0275012
     1454.2    5644.95    5680.73    3046.77    3037.25   0.892261
  0.0278374
     1454.2    5680.73    5716.85    3037.25    3027.72   0.900271
  0.0280717
     1454.2    5716.85    5753.32    3027.72     3018.2   0.888051
  0.0277392
     1454.2    5753.32    5790.14     3018.2    3008.67   0.858131
  0.0268323
     1454.2    5790.14    5827.32    3008.67    2999.15   0.852912
  0.0267038
     1454.2    5827.32    5864.85    2999.15    2989.63   0.861738
  0.0270927
     1454.2    5864.85    5902.75    2989.63     2980.1   0.848394
   0.026664
     1454.2    5902.75    5941.02     2980.1    2970.58   0.877997
  0.0275383
     1454.2    5941.02    5979.67    2970.58    2961.06   0.848199
  0.0268065
     1454.2    5979.67    6018.69    2961.06    2951.53   0.823408
   0.026042
     1454.2    6018.69     6058.1    2951.53    2942.01   0.813024
  0.0258592
     1454.2     6058.1     6097.9    2942.01    2932.48   0.865588
  0.0272855
     1454.2     6097.9    6138.09    2932.48    2922.96   0.835342
  0.0265003
     1454.2    6138.09    6178.68    2922.96    2913.44    0.82184
  0.0261058
     1454.2    6178.68    6219.68    2913.44    2903.91   0.820824
  0.0261192
     1454.2    6219.68    6261.09    2903.91    2894.39    0.83047
  0.0265725
     1454.2    6261.09    6302.92    2894.39    2884.87   0.824146
  0.0264604
     1454.2    6302.92    6345.16    2884.87    2875.34    0.83691
  0.0267972
     1454.2    6345.16    6387.84    2875.34    2865.82    0.80834
  0.0260416
     1454.2    6387.84    6430.95    2865.82    2856.29   0.823688
  0.0265429
     1454.2    6430.95    6474.49    2856.29    2846.77   0.845911
  0.0271385
     1454.2    6474.49    6518.49    2846.77    2837.25   0.850851
  0.0273029
     1454.2    6518.49    6562.93    2837.25    2827.72   0.817606
  0.0262961
     1454.2    6562.93    6607.83    2827.72     2818.2   0.843871
  0.0270219
     1454.2    6607.83     6653.2     2818.2    2808.67   0.834842
  0.0267505
     1454.2     6653.2    6699.04    2808.67    2799.15   0.801625
   0.025859
     1454.2    6699.04    6745.35    2799.15    2789.63   0.796309
  0.0257153
     1454.2    6745.35    6792.15    2789.63     2780.1   0.790299
  0.0255836
     1454.2    6792.15    6839.44     2780.1    2770.58   0.820733
  0.0265211
     1454.2    6839.44    6887.22    2770.58    2761.06   0.797009
  0.0258315
     1454.2    6887.22    6935.51    2761.06    2751.53   0.816448
  0.0264502
     1454.2    6935.51    6984.31    2751.53    2742.01   0.785124
  0.0255795
     1454.2    6984.31    7033.63    2742.01    2732.48   0.817343
  0.0265259
     1454.2    7033.63    7083.48    2732.48    2722.96   0.782052
   0.025559
     1454.2    7083.48    7133.86    2722.96    2713.44   0.756491
  0.0248677
     1454.2    7133.86    7184.78    2713.44    2703.91   0.798436
  0.0260393
     1454.2    7184.78    7236.25    2703.91    2694.39   0.780898
  0.0256576
     1454.2    7236.25    7288.28    2694.39    2684.87    0.77608
   0.025482
     1454.2    7288.28    7340.87    2684.87    2675.34    0.77423
  0.0254538
     1454.2    7340.87    7394.04    2675.34    2665.82   0.759273
  0.0251244
     1454.2    7394.04    7447.79    2665.82    2656.29     0.7434
  0.0247596
     1454.2    7447.79    7502.13    2656.29    2646.77   0.733453
  0.0245525
     1454.2    7502.13    7557.07    2646.77    2637.25   0.722659
  0.0242917
     1454.2    7557.07    7612.62    2637.25    2627.72   0.700383
  0.0236985
     1454.2    7612.62    7668.78    2627.72     2618.2   0.663602
  0.0227293
     1454.2    7668.78    7725.57     2618.2    2608.67    0.64551
   0.022279
     1454.2    7725.57      7783.    2608.67    2599.15   0.663422
  0.0228497
     1454.2      7783.    7841.07    2599.15    2589.63   0.659506
  0.0228561
     1454.2    7841.07     7899.8    2589.63     2580.1   0.644119
  0.0225945
     1454.2     7899.8    7959.19     2580.1    2570.58   0.640799
  0.0224393
     1454.2    7959.19    8019.26    2570.58    2561.06   0.674269
  0.0234462
     1454.2    8019.26    8080.01    2561.06    2551.53   0.665455
  0.0231078
     1454.2    8080.01    8141.46    2551.53    2542.01   0.659427
   0.023078
     1454.2    8141.46    8203.61    2542.01    2532.48   0.625897
  0.0221651
     1454.2    8203.61    8266.49    2532.48    2522.96   0.681468
  0.0237376
     1454.2    8266.49    8330.09    2522.96    2513.44    0.61552
  0.0220193
     1454.2    8330.09    8394.43    2513.44    2503.91   0.636333
    0.02256
     1454.2    8394.43    8459.52    2503.91    2494.39   0.637042
  0.0226917
     1454.2    8459.52    8525.38    2494.39    2484.87   0.626413
  0.0224992
     1454.2    8525.38    8592.01    2484.87    2475.34   0.622935
  0.0224891
     1454.2    8592.01    8659.43    2475.34    2465.82   0.627038
  0.0226174
     1454.2    8659.43    8727.65    2465.82    2456.29   0.652949
  0.0234741
     1454.2    8727.65    8796.69    2456.29    2446.77   0.648383
  0.0234463
     1454.2    8796.69    8866.55    2446.77    2437.25    0.63939
  0.0232973
     1454.2    8866.55    8937.25    2437.25    2427.72   0.622163
  0.0228991
     1454.2    8937.25     9008.8    2427.72     2418.2   0.638413
  0.0234615
     1454.2     9008.8    9081.22     2418.2    2408.67   0.643654
  0.0238152
     1454.2    9081.22    9154.52    2408.67    2399.15   0.601456
  0.0227356
     1454.2    9154.52    9228.72    2399.15    2389.63   0.620544
  0.0232647
     1454.2    9228.72    9303.83    2389.63     2380.1   0.602984
  0.0228932
     1454.2    9303.83    9379.86     2380.1    2370.58   0.625988
  0.0237025
     1454.2    9379.86    9456.83    2370.58    2361.06   0.631459
  0.0239673
     1454.2    9456.83    9534.76    2361.06    2351.53   0.616754
  0.0236742
     1454.2    9534.76    9613.66    2351.53    2342.01    0.64862
  0.0245708
     1454.2    9613.66    9693.55    2342.01    2332.48   0.597264
  0.0233588
     1454.2    9693.55    9774.44    2332.48    2322.96   0.594596
  0.0234015
     1454.2    9774.44    9856.36    2322.96    2313.44   0.628212
  0.0246659
     1454.2    9856.36    9939.32    2313.44    2303.91   0.635145
  0.0249806
     1454.2    9939.32    10023.3    2303.91    2294.39   0.627067
   0.024813
     1454.2    10023.3    10108.4    2294.39    2284.87   0.632974
   0.025128
     1454.2    10108.4    10194.6    2284.87    2275.34   0.643482
  0.0259003
     1454.2    10194.6    10281.9    2275.34    2265.82   0.622775
  0.0252024
     1454.2    10281.9    10370.3    2265.82    2256.29   0.572544
  0.0241039
     1454.2    10370.3    10459.9    2256.29    2246.77   0.587079
  0.0247938
     1454.2    10459.9    10550.7    2246.77    2237.25   0.620093
  0.0257858
     1454.2    10550.7    10642.6    2237.25    2227.72   0.620739
  0.0259891
     1454.2    10642.6    10735.8    2227.72     2218.2   0.610097
  0.0258905
     1454.2    10735.8    10830.2     2218.2    2208.67   0.563937
  0.0246361
     1454.2    10830.2    10925.8    2208.67    2199.15   0.621202
  0.0264991
     1454.2    10925.8    11022.8    2199.15    2189.63   0.565861
  0.0255176
     1454.2    11022.8     11121.    2189.63     2180.1   0.548613
  0.0249422
     1454.2     11121.    11220.5     2180.1    2170.58   0.567514
  0.0254484
     1454.2    11220.5    11321.5    2170.58    2161.06   0.583776
  0.0261234
     1454.2    11321.5    11423.8    2161.06    2151.53   0.589669
  0.0266536
     1454.2    11423.8    11527.5    2151.53    2142.01   0.526386
  0.0251282
     1454.2    11527.5    11632.6    2142.01    2132.48   0.523959
  0.0247797
     1454.2    11632.6    11739.1    2132.48    2122.96   0.549528
  0.0262043
     1454.2    11739.1    11847.2    2122.96    2113.44   0.465628
  0.0235809
     1454.2    11847.2    11956.8    2113.44    2103.91    0.47733
  0.0239858
     1454.2    11956.8    12067.9    2103.91    2094.39   0.521273
  0.0258547
     1454.2    12067.9    12180.5    2094.39    2084.87   0.465625
  0.0241322
     1454.2    12180.5    12294.8    2084.87    2075.34   0.494301
  0.0258051
     1454.2    12294.8    12410.7    2075.34    2065.82   0.451709
  0.0245313
     1454.2    12410.7    12528.2    2065.82    2056.29   0.463891
   0.024894
     1454.2    12528.2    12647.4    2056.29    2046.77    0.45101
  0.0249026
     1454.2    12647.4    12768.4    2046.77    2037.25   0.409555
  0.0239987
     1454.2    12768.4    12891.1    2037.25    2027.72   0.436992
  0.0246661
     1454.2    12891.1    13015.6    2027.72     2018.2   0.353681
  0.0222478
     1454.2    13015.6    13141.9     2018.2    2008.67   0.418378
  0.0244987
     1454.2    13141.9    13270.1    2008.67    1999.15   0.419259
  0.0247896
     1454.2    13270.1    13400.2    1999.15    1989.63   0.400823
   0.024626
     1454.2    13400.2    13532.2    1989.63     1980.1   0.369277
  0.0240517
     1454.2    13532.2    13666.2     1980.1    1970.58   0.345274
  0.0231045
     1454.2    13666.2    13802.2    1970.58    1961.06    0.36949
  0.0244289
     1454.2    13802.2    13940.3    1961.06    1951.53   0.374391
  0.0252668
     1454.2    13940.3    14080.4    1951.53    1942.01   0.369121
  0.0251454
     1454.2    14080.4    14222.7    1942.01    1932.48   0.378294
  0.0253117
     1454.2    14222.7    14367.2    1932.48    1922.96   0.327796
  0.0234679
     1454.2    14367.2    14513.9    1922.96    1913.44   0.311153
  0.0233427
     1454.2    14513.9    14662.9    1913.44    1903.91   0.292521
  0.0232172
     1454.2    14662.9    14814.2    1903.91    1894.39   0.335615
  0.0242527
     1454.2    14814.2    14967.9    1894.39    1884.87   0.315124
   0.023683
     1454.2    14967.9     15124.    1884.87    1875.34   0.312498
  0.0235393
     1454.2     15124.    15282.6    1875.34    1865.82   0.297305
  0.0234216
     1454.2    15282.6    15443.7    1865.82    1856.29    0.24699
  0.0209955
     1454.2    15443.7    15607.4    1856.29    1846.77   0.227939
  0.0206993
     1454.2    15607.4    15773.8    1846.77    1837.25   0.279441
  0.0235784
     1454.2    15773.8    15942.8    1837.25    1827.72   0.227505
  0.0210621
     1454.2    15942.8    16114.6    1827.72     1818.2   0.301263
  0.0240723
     1454.2    16114.6    16289.2     1818.2    1808.67   0.234678
  0.0218433
     1454.2    16289.2    16466.7    1808.67    1799.15   0.217992
  0.0217827
     1454.2    16466.7    16647.1    1799.15    1789.63   0.187286
  0.0202678
     1454.2    16647.1    16830.5    1789.63     1780.1   0.271282
  0.0242685
     1454.2    16830.5     17017.     1780.1    1770.58   0.228979
  0.0211242
     1454.2     17017.    17206.7    1770.58    1761.06   0.176603
   0.019676
     1454.2    17206.7    17399.6    1761.06    1751.53   0.202675
   0.020898
     1454.2    17399.6    17595.7    1751.53    1742.01   0.203813
  0.0203054
     1454.2    17595.7    17795.3    1742.01    1732.48   0.174136
  0.0201171
     1454.2    17795.3    17998.2    1732.48    1722.96   0.210161
  0.0221153
     1583.8     2841.4    3041.74    4284.87    4142.01 0.00190869
0.000584182
     1583.8    3041.74    3084.35    4142.01    4113.44 0.00479126
 0.00128364
     1583.8    3084.35    3127.87    4113.44    4084.87  0.0108992
 0.00139295
     1583.8    3127.87    3172.31    4084.87    4056.29  0.0217131
 0.00172333
     1583.8    3172.31    3217.71    4056.29    4027.72  0.0373687
 0.00218594
     1583.8    3217.71    3264.09    4027.72    3999.15  0.0439937
 0.00234078
     1583.8    3264.09    3311.49    3999.15    3970.58  0.0470377
 0.00243687
     1583.8    3311.49    3359.92    3970.58    3942.01  0.0507099
 0.00252912
     1583.8    3359.92    3409.43    3942.01    3913.44  0.0494793
 0.00257529
     1583.8    3409.43    3460.04    3913.44    3884.87  0.0471694
 0.00249021
     1583.8    3460.04    3511.79    3884.87    3856.29   0.055479
 0.00277082
     1583.8    3511.79    3564.71    3856.29    3827.72  0.0525394
 0.00273883
     1583.8    3564.71    3618.84    3827.72    3799.15  0.0581872
 0.00286711
     1583.8    3618.84    3674.22    3799.15    3770.58  0.0507471
 0.00271403
     1583.8    3674.22    3730.88    3770.58    3742.01  0.0537981
 0.00282599
     1583.8    3730.88    3788.86    3742.01    3713.44   0.052198
 0.00276531
     1583.8    3788.86     3848.2    3713.44    3684.87  0.0578698
 0.00288981
     1583.8     3848.2    3908.96    3684.87    3656.29  0.0622026
 0.00309232
     1583.8    3908.96    3971.17    3656.29    3627.72  0.0649581
 0.00308011
     1583.8    3971.17    4034.87    3627.72    3599.15   0.062566
  0.0030965
     1583.8    4034.87    4100.13    3599.15    3570.58  0.0576604
 0.00295642
     1583.8    4100.13    4166.99    3570.58    3542.01  0.0549994
 0.00300961
     1583.8    4166.99     4235.5    3542.01    3513.44  0.0560526
 0.00296543
     1583.8     4235.5    4305.71    3513.44    3484.87  0.0578983
 0.00303409
     1583.8    4305.71    4377.69    3484.87    3456.29  0.0549093
 0.00301472
     1583.8    4377.69     4451.5    3456.29    3427.72  0.0570261
 0.00305801
     1583.8     4451.5    4527.19    3427.72    3399.15  0.0632466
 0.00320023
     1583.8    4527.19    4604.83    3399.15    3370.58  0.0547099
 0.00308547
     1583.8    4604.83     4684.5    3370.58    3342.01  0.0552357
 0.00316267
     1583.8     4684.5    4766.25    3342.01    3313.44  0.0560124
 0.00311133
     1583.8    4766.25    4850.17    3313.44    3284.87  0.0582155
 0.00317497
     1583.8    4850.17    4936.33    3284.87    3256.29   0.061776
 0.00329254
     1583.8    4936.33    5024.82    3256.29    3227.72  0.0595012
 0.00334358
     1583.8    5024.82    5115.71    3227.72    3199.15  0.0639407
 0.00334179
     1583.8    5115.71    5209.09    3199.15    3170.58  0.0570899
 0.00327729
     1583.8    5209.09    5305.07    3170.58    3142.01  0.0612096
 0.00342052
     1583.8    5305.07    5403.73    3142.01    3113.44  0.0521633
 0.00319449
     1583.8    5403.73    5505.17    3113.44    3084.87  0.0527303
 0.00328269
     1583.8    5505.17    5609.51    3084.87    3056.29  0.0486701
 0.00319597
     1583.8    5609.51    5716.85    3056.29    3027.72  0.0519728
 0.00313912
     1583.8    5716.85    5827.32    3027.72    2999.15  0.0513472
 0.00313838
     1583.8    5827.32    5941.02    2999.15    2970.58  0.0478738
 0.00306462
     1583.8    5941.02     6058.1    2970.58    2942.01  0.0493122
 0.00312254
     1583.8     6058.1    6261.09    2942.01    2894.39  0.0439251
 0.00245626
     1583.8    6261.09    6474.49    2894.39    2846.77  0.0413384
 0.00249073
     1583.8    6474.49    6699.04    2846.77    2799.15  0.0367973
 0.00247816
     1583.8    6699.04    6935.51    2799.15    2751.53  0.0404326
 0.00260767
     1583.8    6935.51    7184.78    2751.53    2703.91  0.0392039
  0.0027431
     1583.8    7184.78    7447.79    2703.91    2656.29   0.034959
 0.00268855
     1583.8    7447.79    7725.57    2656.29    2608.67  0.0339332
 0.00269579
     1583.8    7725.57    8019.26    2608.67    2561.06  0.0323218
 0.00267086
     1583.8    8019.26    8330.09    2561.06    2513.44  0.0256694
 0.00287719
     1583.8    8330.09    8659.43    2513.44    2465.82  0.0297904
 0.00299326
     1583.8    8659.43     9008.8    2465.82     2418.2  0.0334206
 0.00320261
     1583.8     9008.8    9379.86     2418.2    2370.58   0.023899
  0.0032093
     1583.8    9379.86    9774.44    2370.58    2322.96  0.0287929
 0.00351935
     1583.8    9774.44    10194.6    2322.96    2275.34  0.0233736
 0.00358516
     1583.8    10194.6    10642.6    2275.34    2227.72  0.0267301
 0.00421696
     1583.8    10642.6     11121.    2227.72     2180.1  0.0274941
 0.00415055
     1583.8     11121.    11632.6     2180.1    2132.48  0.0233921
 0.00461718
     1583.8    11632.6    12180.5    2132.48    2084.87  0.0270428
 0.00631616
     1809.5    3217.71    3279.78    4027.72    3989.630.000360698
0.000114084
     1809.5    3279.78    3343.66    3989.63    3951.53 0.00112065
0.000328633
     1809.5    3343.66    3409.43    3951.53    3913.44 0.00612912
0.000539894
     1809.5    3409.43    3477.16    3913.44    3875.34  0.0161135
 0.00144268
     1809.5    3477.16    3546.94    3875.34    3837.25  0.0177506
 0.00155434
     1809.5    3546.94    3618.84    3837.25    3799.15  0.0219059
 0.00162052
     1809.5    3618.84    3692.96    3799.15    3761.06  0.0258366
 0.00169477
     1809.5    3692.96    3769.38    3761.06    3722.96  0.0241441
 0.00173805
     1809.5    3769.38     3848.2    3722.96    3684.87  0.0249736
 0.00180461
     1809.5     3848.2    3929.53    3684.87    3646.77  0.0346363
  0.0019895
     1809.5    3929.53    4013.47    3646.77    3608.67  0.0334064
 0.00199796
     1809.5    4013.47    4100.13    3608.67    3570.58  0.0343042
 0.00207356
     1809.5    4100.13    4189.64    3570.58    3532.48  0.0343725
 0.00208813
     1809.5    4189.64    4282.11    3532.48    3494.39  0.0287165
 0.00196859
     1809.5    4282.11    4377.69    3494.39    3456.29    0.02486
  0.0019072
     1809.5    4377.69    4476.52    3456.29     3418.2  0.0349238
 0.00209512
     1809.5    4476.52    4578.73     3418.2     3380.1  0.0312619
 0.00211177
     1809.5    4578.73     4684.5     3380.1    3342.01  0.0336189
 0.00211041
     1809.5     4684.5    4793.98    3342.01    3303.91  0.0330019
  0.0021173
     1809.5    4793.98    4907.36    3303.91    3265.82  0.0289045
 0.00207369
     1809.5    4907.36    5024.82    3265.82    3227.72  0.0313322
 0.00221947
     1809.5    5024.82    5146.56    3227.72    3189.63  0.0302847
 0.00217837
     1809.5    5146.56    5272.78    3189.63    3151.53  0.0268004
 0.00216865
     1809.5    5272.78    5403.73    3151.53    3113.44  0.0298448
 0.00225135
     1809.5    5403.73    5539.63    3113.44    3075.34  0.0306959
 0.00228245
     1809.5    5539.63    5680.73    3075.34    3037.25  0.0271084
 0.00218851
     1809.5    5680.73    5827.32    3037.25    2999.15  0.0271119
  0.0021807
     1809.5    5827.32    5979.67    2999.15    2961.06  0.0221584
  0.0020462
     1809.5    5979.67    6138.09    2961.06    2922.96  0.0261228
 0.00219878
     1809.5    6138.09    6387.84    2922.96    2865.82  0.0280681
 0.00190597
     1809.5    6387.84     6653.2    2865.82    2808.67  0.0231501
 0.00186702
     1809.5     6653.2    6935.51    2808.67    2751.53   0.021181
 0.00193625
     1809.5    6935.51    7236.25    2751.53    2694.39  0.0194633
 0.00199845
     1809.5    7236.25    7557.07    2694.39    2637.25  0.0255215
  0.0022218
     1809.5    7557.07     7899.8    2637.25     2580.1   0.017327
 0.00229555
     1809.5     7899.8    8266.49     2580.1    2522.96  0.0185211
 0.00232432
     1809.5    8266.49    8659.43    2522.96    2465.82  0.0192502
 0.00257392
     1809.5    8659.43    9081.22    2465.82    2408.67  0.0142902
 0.00266431
     1809.5    9081.22    9534.76    2408.67    2351.53  0.0177276
 0.00263243
     1809.5    9534.76    10023.3    2351.53    2294.39  0.0201297
  0.0028302
     1809.5    10023.3    10550.7    2294.39    2237.25  0.0129048
  0.0030333
     1809.5    10550.7     11121.    2237.25     2180.1  0.0142764
 0.00393453
     1809.5     11121.    11739.1     2180.1    2122.96  0.0182757
 0.00394076
     1809.5    11739.1    12410.7    2122.96    2065.82  0.0182326
  0.0040237
     3037.7     2841.4    3041.74    4284.87    4142.010.000848943
0.000026803
     3037.7    3041.74    3084.35    4142.01    4113.44 0.00293865
 0.00064395
     3037.7    3084.35    3127.87    4113.44    4084.87 0.00421404
 0.00082559
     3037.7    3127.87    3172.31    4084.87    4056.29  0.0127512
 0.00145731
     3037.7    3172.31    3217.71    4056.29    4027.72  0.0216471
 0.00167662
     3037.7    3217.71    3264.09    4027.72    3999.15  0.0312518
 0.00196718
     3037.7    3264.09    3311.49    3999.15    3970.58  0.0364942
 0.00223894
     3037.7    3311.49    3359.92    3970.58    3942.01  0.0342373
   0.002123
     3037.7    3359.92    3409.43    3942.01    3913.44   0.037476
 0.00227599
     3037.7    3409.43    3460.04    3913.44    3884.87  0.0354731
 0.00231547
     3037.7    3460.04    3511.79    3884.87    3856.29  0.0431412
 0.00262322
     3037.7    3511.79    3564.71    3856.29    3827.72  0.0471694
 0.00267856
     3037.7    3564.71    3618.84    3827.72    3799.15  0.0380987
 0.00243236
     3037.7    3618.84    3674.22    3799.15    3770.58   0.036596
 0.00248047
     3037.7    3674.22    3730.88    3770.58    3742.01   0.043116
 0.00272552
     3037.7    3730.88    3788.86    3742.01    3713.44  0.0370958
 0.00262498
     3037.7    3788.86     3848.2    3713.44    3684.87  0.0368625
 0.00261478
     3037.7     3848.2    3908.96    3684.87    3656.29  0.0404543
 0.00274803
     3037.7    3908.96    3971.17    3656.29    3627.72  0.0449862
 0.00285855
     3037.7    3971.17    4034.87    3627.72    3599.15  0.0405333
 0.00279507
     3037.7    4034.87    4100.13    3599.15    3570.58  0.0406163
 0.00269505
     3037.7    4100.13    4166.99    3570.58    3542.01  0.0382975
 0.00273736
     3037.7    4166.99     4235.5    3542.01    3513.44  0.0400568
  0.0028868
     3037.7     4235.5    4305.71    3513.44    3484.87  0.0432545
 0.00293297
     3037.7    4305.71    4377.69    3484.87    3456.29  0.0372874
 0.00282797
     3037.7    4377.69     4451.5    3456.29    3427.72  0.0373896
 0.00279811
     3037.7     4451.5    4527.19    3427.72    3399.15  0.0451602
 0.00301976
     3037.7    4527.19    4604.83    3399.15    3370.58  0.0418062
  0.0030387
     3037.7    4604.83     4684.5    3370.58    3342.01  0.0383863
 0.00293277
     3037.7     4684.5    4766.25    3342.01    3313.44  0.0411237
 0.00290514
     3037.7    4766.25    4850.17    3313.44    3284.87  0.0390307
 0.00305561
     3037.7    4850.17    4936.33    3284.87    3256.29  0.0373676
 0.00284064
     3037.7    4936.33    5024.82    3256.29    3227.72  0.0329363
 0.00285791
     3037.7    5024.82    5115.71    3227.72    3199.15  0.0322843
 0.00303448
     3037.7    5115.71    5209.09    3199.15    3170.58  0.0366037
 0.00300532
     3037.7    5209.09    5305.07    3170.58    3142.01  0.0430875
 0.00312354
     3037.7    5305.07    5403.73    3142.01    3113.44  0.0369882
 0.00306635
     3037.7    5403.73    5505.17    3113.44    3084.87  0.0328017
  0.0028108
     3037.7    5505.17    5609.51    3084.87    3056.29  0.0297753
 0.00292348
     3037.7    5609.51    5716.85    3056.29    3027.72  0.0339966
 0.00288921
     3037.7    5716.85    5827.32    3027.72    2999.15  0.0264468
 0.00290642
     3037.7    5827.32    5941.02    2999.15    2970.58  0.0251967
 0.00289199
     3037.7    5941.02     6058.1    2970.58    2942.01  0.0318548
 0.00288407
     3037.7     6058.1    6261.09    2942.01    2894.39  0.0221843
 0.00217501
     3037.7    6261.09    6474.49    2894.39    2846.77  0.0243171
 0.00235462
     3037.7    6474.49    6699.04    2846.77    2799.15  0.0251851
  0.0023294
     3037.7    6699.04    6935.51    2799.15    2751.53  0.0269877
 0.00243267
     3037.7    6935.51    7184.78    2751.53    2703.91  0.0268229
 0.00262217
     3037.7    7184.78    7447.79    2703.91    2656.29  0.0255821
 0.00276898
     3037.7    7447.79    7725.57    2656.29    2608.67  0.0180045
 0.00281004
     3037.7    7725.57    8019.26    2608.67    2561.06  0.0197601
  0.0027102
     3037.7    8019.26    8330.09    2561.06    2513.44  0.0224914
 0.00307193
     3037.7    8330.09    8659.43    2513.44    2465.82  0.0187613
 0.00332387
     3037.7    8659.43     9008.8    2465.82     2418.2  0.0148891
 0.00367857
     3037.7     9008.8    9379.86     2418.2    2370.58  0.0227805
 0.00377372
     3037.7    9379.86    9774.44    2370.58    2322.96  0.0168907
 0.00400657
     3037.7    9774.44    10194.6    2322.96    2275.34  0.0182954
 0.00415135
     3037.7    10194.6    10642.6    2275.34    2227.72  0.0112288
 0.00471884
     3037.7    10642.6     11121.    2227.72     2180.1   0.012816
 0.00561734
     3037.7     11121.    11632.6     2180.1    2132.48  0.0195825
 0.00619399
     3037.7    11632.6    12180.5    2132.48    2084.87  0.0115639
 0.00627813
     3263.4    3217.71    3279.78    4027.72    3989.63 0.00025658
4.70647E-05
     3263.4    3279.78    3343.66    3989.63    3951.53 0.00181926
0.000185957
     3263.4    3343.66    3409.43    3951.53    3913.44  0.0120748
  0.0011866
     3263.4    3409.43    3477.16    3913.44    3875.34  0.0219695
 0.00159116
     3263.4    3477.16    3546.94    3875.34    3837.25  0.0371289
  0.0020357
     3263.4    3546.94    3618.84    3837.25    3799.15  0.0401477
 0.00216085
     3263.4    3618.84    3692.96    3799.15    3761.06  0.0445276
 0.00231015
     3263.4    3692.96    3769.38    3761.06    3722.96   0.048792
 0.00251085
     3263.4    3769.38     3848.2    3722.96    3684.87  0.0550421
 0.00267748
     3263.4     3848.2    3929.53    3684.87    3646.77  0.0660413
 0.00303789
     3263.4    3929.53    4013.47    3646.77    3608.67  0.0609062
 0.00293498
     3263.4    4013.47    4100.13    3608.67    3570.58  0.0552975
 0.00283782
     3263.4    4100.13    4189.64    3570.58    3532.48  0.0583388
 0.00291464
     3263.4    4189.64    4282.11    3532.48    3494.39  0.0596709
 0.00294577
     3263.4    4282.11    4377.69    3494.39    3456.29  0.0567563
 0.00304755
     3263.4    4377.69    4476.52    3456.29     3418.2  0.0512215
 0.00292612
     3263.4    4476.52    4578.73     3418.2     3380.1  0.0532181
 0.00289208
     3263.4    4578.73     4684.5     3380.1    3342.01  0.0588305
 0.00314575
     3263.4     4684.5    4793.98    3342.01    3303.91   0.053242
 0.00297528
     3263.4    4793.98    4907.36    3303.91    3265.82  0.0502403
 0.00298096
     3263.4    4907.36    5024.82    3265.82    3227.72  0.0482544
  0.0029139
     3263.4    5024.82    5146.56    3227.72    3189.63  0.0542732
  0.0031683
     3263.4    5146.56    5272.78    3189.63    3151.53  0.0573537
 0.00332475
     3263.4    5272.78    5403.73    3151.53    3113.44  0.0479924
  0.0031579
     3263.4    5403.73    5539.63    3113.44    3075.34  0.0550067
 0.00323067
     3263.4    5539.63    5680.73    3075.34    3037.25  0.0404897
 0.00292926
     3263.4    5680.73    5827.32    3037.25    2999.15  0.0494194
 0.00318463
     3263.4    5827.32    5979.67    2999.15    2961.06  0.0442175
 0.00293913
     3263.4    5979.67    6138.09    2961.06    2922.96  0.0409574
 0.00282338
     3263.4    6138.09    6387.84    2922.96    2865.82  0.0359727
   0.002433
     3263.4    6387.84     6653.2    2865.82    2808.67  0.0401947
 0.00259039
     3263.4     6653.2    6935.51    2808.67    2751.53  0.0366515
 0.00263177
     3263.4    6935.51    7236.25    2751.53    2694.39  0.0427111
  0.0029238
     3263.4    7236.25    7557.07    2694.39    2637.25  0.0283653
 0.00279502
     3263.4    7557.07     7899.8    2637.25     2580.1  0.0320761
 0.00305888
     3263.4     7899.8    8266.49     2580.1    2522.96   0.028263
 0.00311711
     3263.4    8266.49    8659.43    2522.96    2465.82  0.0362202
 0.00360646
     3263.4    8659.43    9081.22    2465.82    2408.67  0.0298711
 0.00361675
     3263.4    9081.22    9534.76    2408.67    2351.53  0.0275187
 0.00403151
     3263.4    9534.76    10023.3    2351.53    2294.39  0.0212549
 0.00457352
     3263.4    10023.3    10550.7    2294.39    2237.25  0.0301601
 0.00488946
     3263.4    10550.7     11121.    2237.25     2180.1  0.0320732
 0.00587648
     3263.4     11121.    11739.1     2180.1    2122.96  0.0213186
 0.00643191
     3263.4    11739.1    12410.7    2122.96    2065.82  0.0149809
 0.00558867
     3263.4    12410.7    14367.2    2065.82    1922.96  0.0180618
 0.00434523
ENDDATA           1962
ENDSUBENT         1969
SUBENT        23773003   20230206   20230907   20230725       2315
BIB                  2          2
REACTION   (28-NI-60(N,INL)28-NI-60,PAR,SIG,G)
STATUS     (TABLE) Fig. 4 of Phys.Rev.C106(2022)024609
ENDBIB               2
NOCOMMON             0          0
DATA                 7        870
E          EN-MIN     EN-MAX     TOF-MAX    TOF-MIN    DATA
ERR-T
KEV        KEV        KEV        MSEC       NSEC       B
B
      826.1    2183.97    2192.54    4884.87    4875.34 0.00119011
0.000325533
      826.1    2192.54    2201.16    4875.34    4865.82 0.00691805
 0.00153446
      826.1    2201.16    2209.83    4865.82    4856.29  0.0408227
  0.0066825
      826.1    2209.83    2218.56    4856.29    4846.77   0.057448
 0.00690464
      826.1    2218.56    2227.33    4846.77    4837.25  0.0608345
  0.0073605
      826.1    2227.33    2236.16    4837.25    4827.72  0.0998852
 0.00844713
      826.1    2236.16    2245.04    4827.72     4818.2  0.0985263
 0.00822363
      826.1    2245.04    2253.98     4818.2    4808.67  0.0890745
  0.0084126
      826.1    2253.98    2262.96    4808.67    4799.15   0.103848
 0.00820831
      826.1    2262.96      2272.    4799.15    4789.63    0.11316
 0.00850692
      826.1      2272.     2281.1    4789.63     4780.1   0.151205
 0.00987119
      826.1     2281.1    2290.25     4780.1    4770.58    0.14204
 0.00947317
      826.1    2290.25    2299.46    4770.58    4761.06   0.143689
 0.00954343
      826.1    2299.46    2308.72    4761.06    4751.53   0.144548
  0.0095705
      826.1    2308.72    2318.03    4751.53    4742.01   0.177239
  0.0102853
      826.1    2318.03    2327.41    4742.01    4732.48   0.180735
  0.0103038
      826.1    2327.41    2336.84    4732.48    4722.96   0.180406
  0.0102749
      826.1    2336.84    2346.33    4722.96    4713.44   0.148942
 0.00964469
      826.1    2346.33    2355.87    4713.44    4703.91   0.179559
  0.0103178
      826.1    2355.87    2365.48    4703.91    4694.39   0.198185
  0.0109101
      826.1    2365.48    2375.14    4694.39    4684.87   0.197352
  0.0111308
      826.1    2375.14    2384.87    4684.87    4675.34   0.166732
  0.0101003
      826.1    2384.87    2394.65    4675.34    4665.82   0.172676
  0.0102777
      826.1    2394.65    2404.49    4665.82    4656.29   0.156043
 0.00992921
      826.1    2404.49     2414.4    4656.29    4646.77   0.172673
  0.0104191
      826.1     2414.4    2424.36    4646.77    4637.25   0.173147
  0.0101374
      826.1    2424.36    2434.39    4637.25    4627.72   0.156484
 0.00992209
      826.1    2434.39    2444.48    4627.72     4618.2   0.207588
   0.011263
      826.1    2444.48    2454.63     4618.2    4608.67   0.233138
  0.0117408
      826.1    2454.63    2464.85    4608.67    4599.15   0.234805
  0.0121278
      826.1    2464.85    2475.13    4599.15    4589.63   0.206181
  0.0114792
      826.1    2475.13    2485.48    4589.63     4580.1   0.235868
  0.0120226
      826.1    2485.48    2495.89     4580.1    4570.58   0.238212
  0.0123783
      826.1    2495.89    2506.36    4570.58    4561.06   0.268545
  0.0129952
      826.1    2506.36     2516.9    4561.06    4551.53   0.273686
  0.0132153
      826.1     2516.9    2527.51    4551.53    4542.01   0.265398
  0.0129946
      826.1    2527.51    2538.19    4542.01    4532.48   0.262997
   0.013139
      826.1    2538.19    2548.93    4532.48    4522.96   0.243681
  0.0124002
      826.1    2548.93    2559.75    4522.96    4513.44   0.252758
  0.0128587
      826.1    2559.75    2570.63    4513.44    4503.91   0.214023
  0.0116674
      826.1    2570.63    2581.58    4503.91    4494.39   0.244324
  0.0123807
      826.1    2581.58     2592.6    4494.39    4484.87   0.224649
  0.0118522
      826.1     2592.6    2603.69    4484.87    4475.34   0.280541
  0.0136734
      826.1    2603.69    2614.86    4475.34    4465.82   0.330398
  0.0147833
      826.1    2614.86    2626.09    4465.82    4456.29   0.217698
  0.0118679
      826.1    2626.09     2637.4    4456.29    4446.77   0.207751
  0.0116227
      826.1     2637.4    2648.78    4446.77    4437.25   0.253061
   0.012642
      826.1    2648.78    2660.24    4437.25    4427.72   0.268963
  0.0134012
      826.1    2660.24    2671.77    4427.72     4418.2   0.259833
  0.0130774
      826.1    2671.77    2683.37     4418.2    4408.67   0.225262
  0.0121562
      826.1    2683.37    2695.05    4408.67    4399.15   0.242982
  0.0125036
      826.1    2695.05    2706.81    4399.15    4389.63   0.222024
  0.0119772
      826.1    2706.81    2718.65    4389.63     4380.1   0.252437
  0.0130588
      826.1    2718.65    2730.56     4380.1    4370.58   0.254356
  0.0130094
      826.1    2730.56    2742.55    4370.58    4361.06   0.259145
  0.0130857
      826.1    2742.55    2754.62    4361.06    4351.53   0.239219
  0.0126726
      826.1    2754.62    2766.77    4351.53    4342.01   0.291883
   0.014143
      826.1    2766.77      2779.    4342.01    4332.48   0.291691
  0.0140446
      826.1      2779.    2791.32    4332.48    4322.96   0.319722
  0.0149188
      826.1    2791.32    2803.71    4322.96    4313.44    0.32278
   0.014841
      826.1    2803.71    2816.19    4313.44    4303.91   0.288741
  0.0140911
      826.1    2816.19    2828.75    4303.91    4294.39   0.307239
  0.0149886
      826.1    2828.75     2841.4    4294.39    4284.87   0.323962
  0.0150374
      826.1     2841.4    2854.13    4284.87    4275.34   0.301755
  0.0145052
      826.1    2854.13    2866.94    4275.34    4265.82   0.316496
  0.0150256
      826.1    2866.94    2879.85    4265.82    4256.29   0.338958
  0.0156731
      826.1    2879.85    2892.84    4256.29    4246.77   0.329749
  0.0152888
      826.1    2892.84    2905.92    4246.77    4237.25   0.308046
  0.0148433
      826.1    2905.92    2919.09    4237.25    4227.72   0.308747
  0.0145944
      826.1    2919.09    2932.34    4227.72     4218.2   0.310515
  0.0148205
      826.1    2932.34    2945.69     4218.2    4208.67    0.33768
  0.0155752
      826.1    2945.69    2959.13    4208.67    4199.15   0.324607
  0.0151466
      826.1    2959.13    2972.67    4199.15    4189.63    0.31457
  0.0149071
      826.1    2972.67    2986.29    4189.63     4180.1   0.317595
  0.0151791
      826.1    2986.29    3000.01     4180.1    4170.58   0.350465
  0.0160109
      826.1    3000.01    3013.83    4170.58    4161.06   0.327956
  0.0155528
      826.1    3013.83    3027.74    4161.06    4151.53   0.336128
  0.0155988
      826.1    3027.74    3041.74    4151.53    4142.01   0.320181
  0.0153625
      826.1    3041.74    3055.85    4142.01    4132.48   0.334366
  0.0154549
      826.1    3055.85    3070.05    4132.48    4122.96   0.326755
  0.0156675
      826.1    3070.05    3084.35    4122.96    4113.44   0.399981
  0.0173494
      826.1    3084.35    3098.76    4113.44    4103.91   0.388114
  0.0172276
      826.1    3098.76    3113.26    4103.91    4094.39   0.370128
  0.0167645
      826.1    3113.26    3127.87    4094.39    4084.87   0.334328
  0.0158283
      826.1    3127.87    3142.58    4084.87    4075.34    0.35377
  0.0161805
      826.1    3142.58    3157.39    4075.34    4065.82   0.352188
  0.0163108
      826.1    3157.39    3172.31    4065.82    4056.29   0.335036
  0.0158761
      826.1    3172.31    3187.34    4056.29    4046.77   0.361335
  0.0164848
      826.1    3187.34    3202.47    4046.77    4037.25   0.386487
  0.0171833
      826.1    3202.47    3217.71    4037.25    4027.72   0.360069
  0.0167722
      826.1    3217.71    3233.06    4027.72     4018.2   0.365064
  0.0166881
      826.1    3233.06    3248.52     4018.2    4008.67   0.362398
  0.0167571
      826.1    3248.52    3264.09    4008.67    3999.15   0.334578
  0.0162557
      826.1    3264.09    3279.78    3999.15    3989.63   0.372307
  0.0170249
      826.1    3279.78    3295.57    3989.63     3980.1   0.381586
  0.0174327
      826.1    3295.57    3311.49     3980.1    3970.58   0.342101
  0.0162369
      826.1    3311.49    3327.51    3970.58    3961.06   0.312685
  0.0155928
      826.1    3327.51    3343.66    3961.06    3951.53   0.347458
  0.0164919
      826.1    3343.66    3359.92    3951.53    3942.01   0.365479
  0.0167661
      826.1    3359.92     3376.3    3942.01    3932.48    0.34126
  0.0163439
      826.1     3376.3    3392.81    3932.48    3922.96   0.373909
  0.0171516
      826.1    3392.81    3409.43    3922.96    3913.44   0.386724
  0.0174857
      826.1    3409.43    3426.18    3913.44    3903.91   0.364586
  0.0169571
      826.1    3426.18    3443.05    3903.91    3894.39   0.366444
  0.0169662
      826.1    3443.05    3460.04    3894.39    3884.87   0.401172
  0.0182448
      826.1    3460.04    3477.16    3884.87    3875.34    0.39127
  0.0177631
      826.1    3477.16    3494.41    3875.34    3865.82   0.352272
   0.016843
      826.1    3494.41    3511.79    3865.82    3856.29   0.357888
  0.0170865
      826.1    3511.79     3529.3    3856.29    3846.77   0.367423
  0.0172779
      826.1     3529.3    3546.94    3846.77    3837.25   0.396828
   0.018019
      826.1    3546.94    3564.71    3837.25    3827.72   0.351392
  0.0169938
      826.1    3564.71    3582.62    3827.72     3818.2    0.39893
   0.018036
      826.1    3582.62    3600.66     3818.2    3808.67   0.403916
  0.0181306
      826.1    3600.66    3618.84    3808.67    3799.15   0.383695
  0.0179488
      826.1    3618.84    3637.16    3799.15    3789.63   0.374541
  0.0176317
      826.1    3637.16    3655.62    3789.63     3780.1   0.370315
  0.0175394
      826.1    3655.62    3674.22     3780.1    3770.58   0.365883
  0.0174735
      826.1    3674.22    3692.96    3770.58    3761.06   0.400988
  0.0183119
      826.1    3692.96    3711.85    3761.06    3751.53   0.416925
   0.018483
      826.1    3711.85    3730.88    3751.53    3742.01   0.409747
   0.018482
      826.1    3730.88    3750.05    3742.01    3732.48   0.417315
   0.018545
      826.1    3750.05    3769.38    3732.48    3722.96   0.372907
  0.0176419
      826.1    3769.38    3788.86    3722.96    3713.44   0.388854
  0.0180513
      826.1    3788.86    3808.49    3713.44    3703.91    0.38669
  0.0179632
      826.1    3808.49    3828.27    3703.91    3694.39   0.394864
  0.0182979
      826.1    3828.27     3848.2    3694.39    3684.87   0.392705
  0.0181473
      826.1     3848.2     3868.3    3684.87    3675.34   0.339876
  0.0172194
      826.1     3868.3    3888.55    3675.34    3665.82   0.365075
  0.0174197
      826.1    3888.55    3908.96    3665.82    3656.29   0.360287
  0.0172992
      826.1    3908.96    3929.53    3656.29    3646.77   0.343946
  0.0166967
      826.1    3929.53    3950.27    3646.77    3637.25   0.326001
   0.016958
      826.1    3950.27    3971.17    3637.25    3627.72   0.350259
  0.0170275
      826.1    3971.17    3992.23    3627.72     3618.2   0.364582
  0.0175093
      826.1    3992.23    4013.47     3618.2    3608.67   0.351874
  0.0173981
      826.1    4013.47    4034.87    3608.67    3599.15   0.363269
  0.0177806
      826.1    4034.87    4056.45    3599.15    3589.63   0.389627
  0.0183973
      826.1    4056.45     4078.2    3589.63     3580.1     0.3367
  0.0172726
      826.1     4078.2    4100.13     3580.1    3570.58   0.386711
  0.0182763
      826.1    4100.13    4122.24    3570.58    3561.06   0.392073
  0.0184699
      826.1    4122.24    4144.52    3561.06    3551.53   0.394287
  0.0186075
      826.1    4144.52    4166.99    3551.53    3542.01   0.419057
  0.0188933
      826.1    4166.99    4189.64    3542.01    3532.48   0.391596
  0.0184588
      826.1    4189.64    4212.47    3532.48    3522.96   0.403247
  0.0186399
      826.1    4212.47     4235.5    3522.96    3513.44   0.373732
  0.0181114
      826.1     4235.5    4258.71    3513.44    3503.91   0.400681
  0.0186697
      826.1    4258.71    4282.11    3503.91    3494.39   0.390754
  0.0183593
      826.1    4282.11    4305.71    3494.39    3484.87    0.39936
  0.0185207
      826.1    4305.71    4329.51    3484.87    3475.34   0.376199
  0.0182475
      826.1    4329.51     4353.5    3475.34    3465.82   0.382767
  0.0182847
      826.1     4353.5    4377.69    3465.82    3456.29    0.43103
  0.0193635
      826.1    4377.69    4402.09    3456.29    3446.77   0.390541
  0.0185321
      826.1    4402.09    4426.69    3446.77    3437.25   0.401153
  0.0187222
      826.1    4426.69     4451.5    3437.25    3427.72   0.353756
  0.0177151
      826.1     4451.5    4476.52    3427.72     3418.2   0.383547
  0.0184688
      826.1    4476.52    4501.75     3418.2    3408.67    0.38829
  0.0187197
      826.1    4501.75    4527.19    3408.67    3399.15   0.364923
  0.0182157
      826.1    4527.19    4552.85    3399.15    3389.63   0.363837
  0.0178072
      826.1    4552.85    4578.73    3389.63     3380.1   0.404994
  0.0190406
      826.1    4578.73    4604.83     3380.1    3370.58   0.409523
  0.0190632
      826.1    4604.83    4631.16    3370.58    3361.06   0.388699
  0.0188622
      826.1    4631.16    4657.71    3361.06    3351.53    0.41704
  0.0193658
      826.1    4657.71     4684.5    3351.53    3342.01    0.42047
  0.0195681
      826.1     4684.5    4711.51    3342.01    3332.48   0.407565
  0.0190374
      826.1    4711.51    4738.76    3332.48    3322.96   0.432605
  0.0199711
      826.1    4738.76    4766.25    3322.96    3313.44   0.434311
   0.019718
      826.1    4766.25    4793.98    3313.44    3303.91   0.348554
  0.0177729
      826.1    4793.98    4821.95    3303.91    3294.39   0.397756
  0.0188665
      826.1    4821.95    4850.17    3294.39    3284.87   0.380844
  0.0185222
      826.1    4850.17    4878.64    3284.87    3275.34   0.406613
  0.0192747
      826.1    4878.64    4907.36    3275.34    3265.82   0.397417
  0.0191255
      826.1    4907.36    4936.33    3265.82    3256.29   0.434067
   0.020261
      826.1    4936.33    4965.57    3256.29    3246.77   0.426704
   0.019803
      826.1    4965.57    4995.06    3246.77    3237.25   0.399857
  0.0191233
      826.1    4995.06    5024.82    3237.25    3227.72    0.40109
  0.0193278
      826.1    5024.82    5054.84    3227.72     3218.2   0.399839
   0.019483
      826.1    5054.84    5085.14     3218.2    3208.67   0.401463
  0.0197742
      826.1    5085.14    5115.71    3208.67    3199.15   0.426614
  0.0199056
      826.1    5115.71    5146.56    3199.15    3189.63   0.355455
  0.0181898
      826.1    5146.56    5177.68    3189.63     3180.1   0.396482
  0.0192508
      826.1    5177.68    5209.09     3180.1    3170.58   0.418399
  0.0196856
      826.1    5209.09    5240.79    3170.58    3161.06   0.389869
  0.0193235
      826.1    5240.79    5272.78    3161.06    3151.53   0.401294
  0.0195876
      826.1    5272.78    5305.07    3151.53    3142.01   0.377655
  0.0190529
      826.1    5305.07    5337.65    3142.01    3132.48   0.402824
  0.0196217
      826.1    5337.65    5370.54    3132.48    3122.96   0.391786
  0.0191344
      826.1    5370.54    5403.73    3122.96    3113.44   0.409248
  0.0196431
      826.1    5403.73    5437.23    3113.44    3103.91   0.335785
  0.0177842
      826.1    5437.23    5471.04    3103.91    3094.39   0.349022
  0.0182963
      826.1    5471.04    5505.17    3094.39    3084.87   0.371782
  0.0188861
      826.1    5505.17    5539.63    3084.87    3075.34   0.351898
  0.0182468
      826.1    5539.63    5574.41    3075.34    3065.82   0.382575
  0.0187802
      826.1    5574.41    5609.51    3065.82    3056.29   0.363707
  0.0183885
      826.1    5609.51    5644.95    3056.29    3046.77    0.38036
  0.0189438
      826.1    5644.95    5680.73    3046.77    3037.25   0.347066
  0.0181322
      826.1    5680.73    5716.85    3037.25    3027.72   0.360308
  0.0184022
      826.1    5716.85    5753.32    3027.72     3018.2   0.410531
  0.0194931
      826.1    5753.32    5790.14     3018.2    3008.67   0.406032
  0.0193272
      826.1    5790.14    5827.32    3008.67    2999.15   0.363889
  0.0182509
      826.1    5827.32    5864.85    2999.15    2989.63   0.370895
  0.0184325
      826.1    5864.85    5902.75    2989.63     2980.1   0.361489
  0.0185933
      826.1    5902.75    5941.02     2980.1    2970.58   0.349926
  0.0181753
      826.1    5941.02    5979.67    2970.58    2961.06   0.360494
  0.0185892
      826.1    5979.67    6018.69    2961.06    2951.53   0.365883
  0.0184279
      826.1    6018.69     6058.1    2951.53    2942.01   0.370786
  0.0184907
      826.1     6058.1     6097.9    2942.01    2932.48   0.360472
  0.0183487
      826.1     6097.9    6138.09    2932.48    2922.96   0.367729
  0.0187561
      826.1    6138.09    6178.68    2922.96    2913.44   0.338217
  0.0180253
      826.1    6178.68    6219.68    2913.44    2903.91   0.381783
  0.0193241
      826.1    6219.68    6261.09    2903.91    2894.39   0.345981
  0.0184537
      826.1    6261.09    6302.92    2894.39    2884.87   0.334838
  0.0178949
      826.1    6302.92    6345.16    2884.87    2875.34   0.373447
  0.0190077
      826.1    6345.16    6387.84    2875.34    2865.82   0.357956
  0.0190929
      826.1    6387.84    6430.95    2865.82    2856.29   0.357614
  0.0191018
      826.1    6430.95    6474.49    2856.29    2846.77   0.381787
  0.0195904
      826.1    6474.49    6518.49    2846.77    2837.25   0.353329
  0.0191491
      826.1    6518.49    6562.93    2837.25    2827.72   0.373678
  0.0193298
      826.1    6562.93    6607.83    2827.72     2818.2   0.364282
  0.0189522
      826.1    6607.83     6653.2     2818.2    2808.67   0.349807
  0.0189609
      826.1     6653.2    6699.04    2808.67    2799.15   0.361598
  0.0192865
      826.1    6699.04    6745.35    2799.15    2789.63   0.331914
  0.0187176
      826.1    6745.35    6792.15    2789.63     2780.1   0.340642
  0.0188661
      826.1    6792.15    6839.44     2780.1    2770.58   0.335867
  0.0188036
      826.1    6839.44    6887.22    2770.58    2761.06   0.332894
  0.0186864
      826.1    6887.22    6935.51    2761.06    2751.53   0.297621
  0.0181521
      826.1    6935.51    6984.31    2751.53    2742.01   0.347063
  0.0193864
      826.1    6984.31    7033.63    2742.01    2732.48   0.351271
  0.0194378
      826.1    7033.63    7083.48    2732.48    2722.96   0.350194
  0.0197865
      826.1    7083.48    7133.86    2722.96    2713.44   0.357118
  0.0197377
      826.1    7133.86    7184.78    2713.44    2703.91   0.314964
  0.0191939
      826.1    7184.78    7236.25    2703.91    2694.39   0.348261
  0.0194815
      826.1    7236.25    7288.28    2694.39    2684.87   0.327622
  0.0196541
      826.1    7288.28    7340.87    2684.87    2675.34   0.288316
  0.0184827
      826.1    7340.87    7394.04    2675.34    2665.82   0.338683
  0.0196443
      826.1    7394.04    7447.79    2665.82    2656.29   0.293834
  0.0187688
      826.1    7447.79    7502.13    2656.29    2646.77   0.293137
  0.0186551
      826.1    7502.13    7557.07    2646.77    2637.25   0.264293
  0.0180988
      826.1    7557.07    7612.62    2637.25    2627.72   0.303158
  0.0191749
      826.1    7612.62    7668.78    2627.72     2618.2    0.27957
  0.0181787
      826.1    7668.78    7725.57     2618.2    2608.67   0.319744
  0.0193878
      826.1    7725.57      7783.    2608.67    2599.15   0.244869
  0.0182011
      826.1      7783.    7841.07    2599.15    2589.63   0.306034
  0.0196669
      826.1    7841.07     7899.8    2589.63     2580.1   0.269434
  0.0187575
      826.1     7899.8    7959.19     2580.1    2570.58   0.281764
  0.0189117
      826.1    7959.19    8019.26    2570.58    2561.06   0.281622
  0.0190202
      826.1    8019.26    8203.61    2561.06    2532.48   0.273904
  0.0125053
      826.1    8203.61    8394.43    2532.48    2503.91   0.274737
  0.0126601
      826.1    8394.43    8592.01    2503.91    2475.34   0.267292
  0.0126277
      826.1    8592.01    8796.69    2475.34    2446.77   0.285271
  0.0134094
      826.1    8796.69     9008.8    2446.77     2418.2   0.266165
  0.0131732
      826.1     9008.8    9228.72     2418.2    2389.63   0.258431
  0.0132441
      826.1    9228.72    9456.83    2389.63    2361.06    0.25758
  0.0136332
      826.1    9456.83    9693.55    2361.06    2332.48   0.256357
  0.0139623
      826.1    9693.55    9939.32    2332.48    2303.91   0.252953
  0.0146664
      826.1    9939.32    10194.6    2303.91    2275.34   0.254348
  0.0147469
      826.1    10194.6    10459.9    2275.34    2246.77   0.239467
  0.0149387
      826.1    10459.9    10735.8    2246.77     2218.2   0.219178
  0.0153497
      826.1    10735.8    11022.8     2218.2    2189.63   0.228512
  0.0159187
      826.1    11022.8    11321.5    2189.63    2161.06   0.185943
  0.0161095
      826.1    11321.5    11632.6    2161.06    2132.48   0.253521
  0.0177728
      826.1    11632.6    11956.8    2132.48    2103.91   0.245474
  0.0180137
      826.1    11956.8    12294.8    2103.91    2075.34    0.24279
  0.0175812
      826.1    12294.8    12647.4    2075.34    2046.77   0.211639
  0.0178334
      826.1    12647.4    13015.6    2046.77     2018.2   0.181707
  0.0179335
      826.1    13015.6    13400.2     2018.2    1989.63   0.200547
  0.0182996
      826.1    13400.2    13802.2    1989.63    1961.06   0.154298
  0.0182321
      826.1    13802.2    14222.7    1961.06    1932.48   0.143115
  0.0188732
      826.1    14222.7    14662.9    1932.48    1903.91   0.151849
  0.0189918
      826.1    14662.9     15124.    1903.91    1875.34   0.171987
  0.0227944
      826.1     15124.    15607.4    1875.34    1846.77   0.150053
  0.0191734
      826.1    15607.4    16114.6    1846.77     1818.2  0.0902103
  0.0192527
      952.4    2308.72    2336.84    4751.53    4722.96  0.0199894
  0.0031038
      952.4    2336.84    2365.48    4722.96    4694.39  0.0348537
 0.00485177
      952.4    2365.48    2394.65    4694.39    4665.82  0.0294159
 0.00439427
      952.4    2394.65    2424.36    4665.82    4637.25  0.0280476
 0.00440064
      952.4    2424.36    2454.63    4637.25    4608.67  0.0363119
 0.00470523
      952.4    2454.63    2485.48    4608.67     4580.1   0.044561
 0.00480995
      952.4    2485.48     2516.9     4580.1    4551.53  0.0485518
 0.00488536
      952.4     2516.9    2548.93    4551.53    4522.96  0.0719634
 0.00536527
      952.4    2548.93    2581.58    4522.96    4494.39   0.071538
 0.00552932
      952.4    2581.58    2614.86    4494.39    4465.82  0.0951774
 0.00585437
      952.4    2614.86    2648.78    4465.82    4437.25  0.0631697
 0.00519988
      952.4    2648.78    2683.37    4437.25    4408.67  0.0898636
 0.00583724
      952.4    2683.37    2718.65    4408.67     4380.1  0.0737061
 0.00548937
      952.4    2718.65    2754.62     4380.1    4351.53  0.0839026
  0.0058165
      952.4    2754.62    2791.32    4351.53    4322.96  0.0821857
 0.00591162
      952.4    2791.32    2828.75    4322.96    4294.39  0.0726257
 0.00570395
      952.4    2828.75    2866.94    4294.39    4265.82  0.0784602
 0.00582374
      952.4    2866.94    2905.92    4265.82    4237.25  0.0940518
 0.00634007
      952.4    2905.92    2945.69    4237.25    4208.67  0.0737396
 0.00582281
      952.4    2945.69    2986.29    4208.67     4180.1   0.075648
 0.00579514
      952.4    2986.29    3027.74     4180.1    4151.53  0.0677106
 0.00578662
      952.4    3027.74    3070.05    4151.53    4122.96   0.106124
 0.00668678
      952.4    3070.05    3113.26    4122.96    4094.39   0.110764
   0.006888
      952.4    3113.26    3157.39    4094.39    4065.82  0.0865522
 0.00640755
      952.4    3157.39    3202.47    4065.82    4037.25  0.0864695
 0.00647165
      952.4    3202.47    3248.52    4037.25    4008.67   0.098961
 0.00667848
      952.4    3248.52    3295.57    4008.67     3980.1  0.0795036
 0.00636348
      952.4    3295.57    3343.66     3980.1    3951.53  0.0888903
 0.00663646
      952.4    3343.66    3392.81    3951.53    3922.96  0.0856368
 0.00670124
      952.4    3392.81    3443.05    3922.96    3894.39  0.0764412
 0.00644925
      952.4    3443.05    3494.41    3894.39    3865.82  0.0850561
 0.00673166
      952.4    3494.41    3546.94    3865.82    3837.25  0.0701978
 0.00657695
      952.4    3546.94    3600.66    3837.25    3808.67   0.082907
 0.00695649
      952.4    3600.66    3655.62    3808.67     3780.1   0.101448
 0.00708751
      952.4    3655.62    3711.85     3780.1    3751.53  0.0758401
 0.00669789
      952.4    3711.85    3769.38    3751.53    3722.96  0.0760013
 0.00674509
      952.4    3769.38    3828.27    3722.96    3694.39  0.0886969
 0.00714008
      952.4    3828.27    3888.55    3694.39    3665.82  0.0789868
 0.00679127
      952.4    3888.55    3950.27    3665.82    3637.25  0.0714062
 0.00664675
      952.4    3950.27    4013.47    3637.25    3608.67   0.081813
 0.00704968
      952.4    4013.47     4078.2    3608.67     3580.1  0.0641333
 0.00683714
      952.4     4078.2    4144.52     3580.1    3551.53  0.0608589
 0.00659473
      952.4    4144.52    4212.47    3551.53    3522.96  0.0673345
 0.00682357
      952.4    4212.47    4282.11    3522.96    3494.39  0.0666445
 0.00678302
      952.4    4282.11     4353.5    3494.39    3465.82  0.0721585
 0.00708752
      952.4     4353.5    4426.69    3465.82    3437.25  0.0776836
 0.00709221
      952.4    4426.69    4501.75    3437.25    3408.67  0.0654442
 0.00764126
      952.4    4501.75    4578.73    3408.67     3380.1   0.063055
 0.00721623
      952.4    4578.73    4657.71     3380.1    3351.53  0.0539649
 0.00682888
      952.4    4657.71    4738.76    3351.53    3322.96  0.0643579
 0.00740796
      952.4    4738.76    4821.95    3322.96    3294.39  0.0632388
 0.00796466
      952.4    4821.95    4907.36    3294.39    3265.82  0.0583082
 0.00722934
      952.4    4907.36    4995.06    3265.82    3237.25  0.0697974
 0.00761614
      952.4    4995.06    5085.14    3237.25    3208.67  0.0686838
  0.0074721
      952.4    5085.14    5403.73    3208.67    3113.44   0.057738
 0.00416957
      952.4    5403.73    5753.32    3113.44     3018.2  0.0540303
 0.00408895
      952.4    5753.32    6138.09     3018.2    2922.96  0.0436002
 0.00387717
      952.4    6138.09    6562.93    2922.96    2827.72  0.0371672
 0.00373683
      952.4    6562.93    7033.63    2827.72    2732.48   0.045993
 0.00424568
      952.4    7033.63    7557.07    2732.48    2637.25  0.0442402
 0.00453512
      952.4    7557.07    8141.46    2637.25    2542.01  0.0328185
 0.00444996
      952.4    8141.46    8796.69    2542.01    2446.77  0.0267198
 0.00522711
      952.4    8796.69    9534.76    2446.77    2351.53  0.0267141
 0.00584696
      952.4    9534.76    10370.3    2351.53    2256.29  0.0337726
 0.00707902
      952.4    10370.3    11321.5    2256.29    2161.06  0.0398843
 0.00788183
      952.4    11321.5    12410.7    2161.06    2065.82  0.0333392
 0.00979724
     1332.5    1350.13     1354.3    6208.67    6199.15  0.0162676
 0.00363066
     1332.5     1354.3    1358.48    6199.15    6189.63  0.0231699
 0.00384515
     1332.5    1358.48    1362.67    6189.63     6180.1  0.0391298
 0.00462066
     1332.5    1362.67    1366.89     6180.1    6170.58  0.0807087
 0.00628331
     1332.5    1366.89    1371.13    6170.58    6161.06   0.119113
 0.00790604
     1332.5    1371.13    1375.39    6161.06    6151.53    0.10498
 0.00762079
     1332.5    1375.39    1379.67    6151.53    6142.01   0.100746
 0.00711181
     1332.5    1379.67    1383.97    6142.01    6132.48     0.1694
 0.00966236
     1332.5    1383.97    1388.28    6132.48    6122.96   0.334132
  0.0152161
     1332.5    1388.28    1392.62    6122.96    6113.44    0.35061
  0.0153438
     1332.5    1392.62    1396.98    6113.44    6103.91   0.307688
  0.0140108
     1332.5    1396.98    1401.36    6103.91    6094.39    0.23907
  0.0118032
     1332.5    1401.36    1405.76    6094.39    6084.87   0.199951
   0.010722
     1332.5    1405.76    1410.18    6084.87    6075.34   0.207356
  0.0108682
     1332.5    1410.18    1414.62    6075.34    6065.82   0.187844
  0.0101003
     1332.5    1414.62    1419.09    6065.82    6056.29    0.23211
  0.0114088
     1332.5    1419.09    1423.57    6056.29    6046.77   0.205931
  0.0107411
     1332.5    1423.57    1428.08    6046.77    6037.25   0.213612
  0.0109305
     1332.5    1428.08     1432.6    6037.25    6027.72   0.328028
  0.0145301
     1332.5     1432.6    1437.15    6027.72     6018.2   0.334825
  0.0144443
     1332.5    1437.15    1441.72     6018.2    6008.67   0.312877
  0.0138463
     1332.5    1441.72    1446.31    6008.67    5999.15   0.418595
  0.0170253
     1332.5    1446.31    1450.93    5999.15    5989.63   0.416828
  0.0168731
     1332.5    1450.93    1455.56    5989.63     5980.1   0.380532
  0.0158549
     1332.5    1455.56    1460.22     5980.1    5970.58   0.548359
  0.0209159
     1332.5    1460.22     1464.9    5970.58    5961.06   0.572864
  0.0215979
     1332.5     1464.9     1469.6    5961.06    5951.53   0.518434
  0.0199763
     1332.5     1469.6    1474.33    5951.53    5942.01   0.456577
  0.0180458
     1332.5    1474.33    1479.08    5942.01    5932.48   0.410013
    0.01662
     1332.5    1479.08    1483.85    5932.48    5922.96   0.428407
  0.0171614
     1332.5    1483.85    1488.64    5922.96    5913.44   0.427218
  0.0170043
     1332.5    1488.64    1493.46    5913.44    5903.91   0.362148
  0.0152717
     1332.5    1493.46     1498.3    5903.91    5894.39   0.391998
  0.0161072
     1332.5     1498.3    1503.17    5894.39    5884.87    0.37478
  0.0157992
     1332.5    1503.17    1508.06    5884.87    5875.34   0.382644
  0.0159897
     1332.5    1508.06    1512.97    5875.34    5865.82   0.380231
  0.0160452
     1332.5    1512.97    1517.91    5865.82    5856.29     0.4859
  0.0189499
     1332.5    1517.91    1522.87    5856.29    5846.77   0.558707
  0.0210444
     1332.5    1522.87    1527.85    5846.77    5837.25   0.560754
  0.0210686
     1332.5    1527.85    1532.86    5837.25    5827.72   0.447224
  0.0177897
     1332.5    1532.86     1537.9    5827.72     5818.2   0.443748
  0.0174662
     1332.5     1537.9    1542.96     5818.2    5808.67   0.562355
  0.0212387
     1332.5    1542.96    1548.04    5808.67    5799.15   0.609504
  0.0225212
     1332.5    1548.04    1553.15    5799.15    5789.63   0.511219
  0.0196617
     1332.5    1553.15    1558.29    5789.63     5780.1   0.550379
   0.020619
     1332.5    1558.29    1563.45     5780.1    5770.58   0.527053
  0.0202214
     1332.5    1563.45    1568.64    5770.58    5761.06   0.573988
  0.0213503
     1332.5    1568.64    1573.85    5761.06    5751.53   0.639958
  0.0234151
     1332.5    1573.85    1579.09    5751.53    5742.01   0.630534
  0.0230919
     1332.5    1579.09    1584.35    5742.01    5732.48   0.536004
   0.020504
     1332.5    1584.35    1589.64    5732.48    5722.96   0.466745
  0.0183462
     1332.5    1589.64    1594.96    5722.96    5713.44   0.480142
  0.0187833
     1332.5    1594.96     1600.3    5713.44    5703.91   0.488301
  0.0189744
     1332.5     1600.3    1605.67    5703.91    5694.39   0.508707
   0.019643
     1332.5    1605.67    1611.07    5694.39    5684.87   0.381816
  0.0159856
     1332.5    1611.07     1616.5    5684.87    5675.34   0.371204
  0.0154826
     1332.5     1616.5    1621.95    5675.34    5665.82    0.40323
   0.016546
     1332.5    1621.95    1627.43    5665.82    5656.29   0.428462
  0.0173414
     1332.5    1627.43    1632.94    5656.29    5646.77   0.493407
  0.0192266
     1332.5    1632.94    1638.48    5646.77    5637.25   0.436107
   0.017828
     1332.5    1638.48    1644.04    5637.25    5627.72   0.470304
  0.0188171
     1332.5    1644.04    1649.64    5627.72     5618.2   0.506637
  0.0198985
     1332.5    1649.64    1655.26     5618.2    5608.67   0.480986
  0.0193007
     1332.5    1655.26    1660.91    5608.67    5599.15   0.427387
  0.0176553
     1332.5    1660.91    1666.59    5599.15    5589.63   0.493366
  0.0195118
     1332.5    1666.59     1672.3    5589.63     5580.1   0.506954
  0.0198286
     1332.5     1672.3    1678.04     5580.1    5570.58   0.501073
  0.0197299
     1332.5    1678.04     1683.8    5570.58    5561.06   0.473334
  0.0188577
     1332.5     1683.8     1689.6    5561.06    5551.53   0.433231
  0.0177131
     1332.5     1689.6    1695.43    5551.53    5542.01   0.491732
  0.0194086
     1332.5    1695.43    1701.29    5542.01    5532.48   0.531562
  0.0207329
     1332.5    1701.29    1707.18    5532.48    5522.96    0.56087
  0.0214612
     1332.5    1707.18    1713.09    5522.96    5513.44   0.615379
  0.0230173
     1332.5    1713.09    1719.04    5513.44    5503.91   0.690603
  0.0253113
     1332.5    1719.04    1725.03    5503.91    5494.39   0.646454
   0.023887
     1332.5    1725.03    1731.04    5494.39    5484.87   0.553834
  0.0212778
     1332.5    1731.04    1737.08    5484.87    5475.34   0.550869
  0.0210684
     1332.5    1737.08    1743.16    5475.34    5465.82   0.521044
  0.0203937
     1332.5    1743.16    1749.26    5465.82    5456.29   0.563227
  0.0215561
     1332.5    1749.26     1755.4    5456.29    5446.77    0.54605
  0.0211525
     1332.5     1755.4    1761.58    5446.77    5437.25   0.481144
   0.019392
     1332.5    1761.58    1767.78    5437.25    5427.72   0.493211
  0.0196797
     1332.5    1767.78    1774.02    5427.72     5418.2   0.510974
  0.0200714
     1332.5    1774.02    1780.29     5418.2    5408.67   0.425393
  0.0176697
     1332.5    1780.29    1786.59    5408.67    5399.15    0.43944
  0.0181996
     1332.5    1786.59    1792.93    5399.15    5389.63   0.435681
   0.018153
     1332.5    1792.93     1799.3    5389.63     5380.1   0.403211
   0.017177
     1332.5     1799.3    1805.71     5380.1    5370.58   0.437125
  0.0180736
     1332.5    1805.71    1812.15    5370.58    5361.06    0.54919
  0.0213163
     1332.5    1812.15    1818.62    5361.06    5351.53   0.616235
  0.0233683
     1332.5    1818.62    1825.13    5351.53    5342.01   0.587083
  0.0223277
     1332.5    1825.13    1831.68    5342.01    5332.48   0.632953
   0.023585
     1332.5    1831.68    1838.26    5332.48    5322.96   0.510378
  0.0204008
     1332.5    1838.26    1844.87    5322.96    5313.44   0.468942
   0.018957
     1332.5    1844.87    1851.52    5313.44    5303.91   0.531254
  0.0207645
     1332.5    1851.52    1858.21    5303.91    5294.39   0.504498
  0.0199725
     1332.5    1858.21    1864.93    5294.39    5284.87   0.502827
  0.0199274
     1332.5    1864.93    1871.69    5284.87    5275.34   0.519913
  0.0202002
     1332.5    1871.69    1878.49    5275.34    5265.82   0.553648
  0.0213457
     1332.5    1878.49    1885.32    5265.82    5256.29   0.520834
  0.0204719
     1332.5    1885.32    1892.19    5256.29    5246.77   0.520605
  0.0204582
     1332.5    1892.19     1899.1    5246.77    5237.25   0.501051
  0.0198474
     1332.5     1899.1    1906.05    5237.25    5227.72   0.608215
  0.0231142
     1332.5    1906.05    1913.04    5227.72     5218.2   0.625038
  0.0235024
     1332.5    1913.04    1920.06     5218.2    5208.67   0.672087
  0.0246191
     1332.5    1920.06    1927.12    5208.67    5199.15   0.601814
  0.0228067
     1332.5    1927.12    1934.22    5199.15    5189.63   0.590965
    0.02252
     1332.5    1934.22    1941.36    5189.63     5180.1   0.622642
  0.0234016
     1332.5    1941.36    1948.55     5180.1    5170.58   0.762678
  0.0272064
     1332.5    1948.55    1955.77    5170.58    5161.06   0.698896
    0.02549
     1332.5    1955.77    1963.03    5161.06    5151.53   0.572986
  0.0220781
     1332.5    1963.03    1970.33    5151.53    5142.01   0.565491
  0.0218356
     1332.5    1970.33    1977.67    5142.01    5132.48   0.693351
  0.0254013
     1332.5    1977.67    1985.05    5132.48    5122.96   0.773159
  0.0276095
     1332.5    1985.05    1992.48    5122.96    5113.44   0.763319
   0.027482
     1332.5    1992.48    1999.94    5113.44    5103.91   0.716182
  0.0261484
     1332.5    1999.94    2007.45    5103.91    5094.39   0.701968
  0.0257762
     1332.5    2007.45      2015.    5094.39    5084.87     0.6203
  0.0233232
     1332.5      2015.     2022.6    5084.87    5075.34   0.638114
  0.0239666
     1332.5     2022.6    2030.23    5075.34    5065.82   0.551171
  0.0212592
     1332.5    2030.23    2037.92    5065.82    5056.29   0.558074
  0.0215236
     1332.5    2037.92    2045.64    5056.29    5046.77   0.625953
  0.0235391
     1332.5    2045.64    2053.41    5046.77    5037.25   0.641585
  0.0238919
     1332.5    2053.41    2061.22    5037.25    5027.72   0.687082
   0.025083
     1332.5    2061.22    2069.08    5027.72     5018.2   0.710141
  0.0258883
     1332.5    2069.08    2076.98     5018.2    5008.67   0.788748
  0.0280907
     1332.5    2076.98    2084.93    5008.67    4999.15   0.709428
   0.025905
     1332.5    2084.93    2092.92    4999.15    4989.63   0.716549
  0.0260287
     1332.5    2092.92    2100.96    4989.63     4980.1   0.736409
  0.0264862
     1332.5    2100.96    2109.05     4980.1    4970.58    0.78051
  0.0277233
     1332.5    2109.05    2117.18    4970.58    4961.06   0.721822
  0.0261815
     1332.5    2117.18    2125.36    4961.06    4951.53   0.777605
  0.0277923
     1332.5    2125.36    2133.59    4951.53    4942.01   0.690455
   0.025288
     1332.5    2133.59    2141.86    4942.01    4932.48   0.621858
  0.0232332
     1332.5    2141.86    2150.18    4932.48    4922.96   0.652899
   0.024222
     1332.5    2150.18    2158.56    4922.96    4913.44   0.709535
   0.025735
     1332.5    2158.56    2166.98    4913.44    4903.91   0.701324
  0.0253899
     1332.5    2166.98    2175.45    4903.91    4894.39   0.722688
  0.0260392
     1332.5    2175.45    2183.97    4894.39    4884.87   0.768779
  0.0273471
     1332.5    2183.97    2192.54    4884.87    4875.34   0.810131
  0.0285192
     1332.5    2192.54    2201.16    4875.34    4865.82   0.730575
  0.0265654
     1332.5    2201.16    2209.83    4865.82    4856.29   0.737093
  0.0264673
     1332.5    2209.83    2218.56    4856.29    4846.77   0.701838
  0.0257334
     1332.5    2218.56    2227.33    4846.77    4837.25   0.673813
  0.0250006
     1332.5    2227.33    2236.16    4837.25    4827.72   0.695188
  0.0255582
     1332.5    2236.16    2245.04    4827.72     4818.2   0.698427
  0.0256774
     1332.5    2245.04    2253.98     4818.2    4808.67   0.679824
  0.0251579
     1332.5    2253.98    2262.96    4808.67    4799.15   0.663184
  0.0245376
     1332.5    2262.96      2272.    4799.15    4789.63   0.686454
  0.0253019
     1332.5      2272.     2281.1    4789.63     4780.1   0.765536
  0.0273945
     1332.5     2281.1    2290.25     4780.1    4770.58   0.786035
  0.0282124
     1332.5    2290.25    2299.46    4770.58    4761.06   0.776887
  0.0279648
     1332.5    2299.46    2308.72    4761.06    4751.53   0.837097
  0.0295273
     1332.5    2308.72    2318.03    4751.53    4742.01   0.847006
  0.0298088
     1332.5    2318.03    2327.41    4742.01    4732.48   0.800855
  0.0285396
     1332.5    2327.41    2336.84    4732.48    4722.96   0.821534
  0.0290492
     1332.5    2336.84    2346.33    4722.96    4713.44   0.825835
  0.0292182
     1332.5    2346.33    2355.87    4713.44    4703.91   0.886677
  0.0309692
     1332.5    2355.87    2365.48    4703.91    4694.39   0.992294
  0.0338495
     1332.5    2365.48    2375.14    4694.39    4684.87   0.989728
  0.0338295
     1332.5    2375.14    2384.87    4684.87    4675.34   0.909071
  0.0313707
     1332.5    2384.87    2394.65    4675.34    4665.82   0.882935
  0.0308868
     1332.5    2394.65    2404.49    4665.82    4656.29    1.05224
  0.0354902
     1332.5    2404.49     2414.4    4656.29    4646.77    1.02071
  0.0347711
     1332.5     2414.4    2424.36    4646.77    4637.25   0.965297
  0.0332444
     1332.5    2424.36    2434.39    4637.25    4627.72    0.96163
  0.0331328
     1332.5    2434.39    2444.48    4627.72     4618.2   0.956097
  0.0330469
     1332.5    2444.48    2454.63     4618.2    4608.67   0.985162
   0.033749
     1332.5    2454.63    2464.85    4608.67    4599.15    1.00439
  0.0343616
     1332.5    2464.85    2475.13    4599.15    4589.63    0.96837
  0.0334205
     1332.5    2475.13    2485.48    4589.63     4580.1   0.986565
  0.0342195
     1332.5    2485.48    2495.89     4580.1    4570.58   0.993073
  0.0341764
     1332.5    2495.89    2506.36    4570.58    4561.06   0.967809
  0.0334528
     1332.5    2506.36     2516.9    4561.06    4551.53   0.997274
  0.0342227
     1332.5     2516.9    2527.51    4551.53    4542.01   0.997217
  0.0342445
     1332.5    2527.51    2538.19    4542.01    4532.48    1.02721
  0.0353385
     1332.5    2538.19    2548.93    4532.48    4522.96   0.968979
  0.0334124
     1332.5    2548.93    2559.75    4522.96    4513.44   0.907988
  0.0320546
     1332.5    2559.75    2570.63    4513.44    4503.91   0.980298
  0.0338157
     1332.5    2570.63    2581.58    4503.91    4494.39    1.00055
   0.034557
     1332.5    2581.58     2592.6    4494.39    4484.87    1.00997
  0.0348771
     1332.5     2592.6    2603.69    4484.87    4475.34    1.02364
  0.0350477
     1332.5    2603.69    2614.86    4475.34    4465.82    1.04766
  0.0359988
     1332.5    2614.86    2626.09    4465.82    4456.29   0.983222
  0.0339068
     1332.5    2626.09     2637.4    4456.29    4446.77   0.958427
  0.0332918
     1332.5     2637.4    2648.78    4446.77    4437.25   0.959663
  0.0337046
     1332.5    2648.78    2660.24    4437.25    4427.72    0.99128
   0.034398
     1332.5    2660.24    2671.77    4427.72     4418.2    1.03809
  0.0357379
     1332.5    2671.77    2683.37     4418.2    4408.67   0.956851
  0.0334429
     1332.5    2683.37    2695.05    4408.67    4399.15    1.01555
  0.0352407
     1332.5    2695.05    2706.81    4399.15    4389.63   0.990796
  0.0343026
     1332.5    2706.81    2718.65    4389.63     4380.1   0.974259
  0.0338562
     1332.5    2718.65    2730.56     4380.1    4370.58    1.02814
  0.0355171
     1332.5    2730.56    2742.55    4370.58    4361.06    1.01391
  0.0351892
     1332.5    2742.55    2754.62    4361.06    4351.53    1.08906
  0.0373385
     1332.5    2754.62    2766.77    4351.53    4342.01    1.10541
  0.0378367
     1332.5    2766.77      2779.    4342.01    4332.48    1.05505
  0.0364611
     1332.5      2779.    2791.32    4332.48    4322.96    1.09845
   0.037533
     1332.5    2791.32    2803.71    4322.96    4313.44    1.13265
  0.0384734
     1332.5    2803.71    2816.19    4313.44    4303.91     1.0536
  0.0365365
     1332.5    2816.19    2828.75    4303.91    4294.39    1.09195
  0.0374185
     1332.5    2828.75     2841.4    4294.39    4284.87    1.03969
  0.0361539
     1332.5     2841.4    2854.13    4284.87    4275.34    1.06657
    0.03696
     1332.5    2854.13    2866.94    4275.34    4265.82    1.06641
  0.0368745
     1332.5    2866.94    2879.85    4265.82    4256.29    1.09325
  0.0376441
     1332.5    2879.85    2892.84    4256.29    4246.77    1.12309
  0.0383422
     1332.5    2892.84    2905.92    4246.77    4237.25    1.13324
  0.0387839
     1332.5    2905.92    2919.09    4237.25    4227.72    1.07549
  0.0369761
     1332.5    2919.09    2932.34    4227.72     4218.2    1.08359
  0.0374901
     1332.5    2932.34    2945.69     4218.2    4208.67    1.04716
  0.0365032
     1332.5    2945.69    2959.13    4208.67    4199.15    1.08871
  0.0376657
     1332.5    2959.13    2972.67    4199.15    4189.63    1.10656
  0.0380441
     1332.5    2972.67    2986.29    4189.63     4180.1    1.09014
  0.0375715
     1332.5    2986.29    3000.01     4180.1    4170.58    1.13506
   0.038752
     1332.5    3000.01    3013.83    4170.58    4161.06    1.09144
  0.0376417
     1332.5    3013.83    3027.74    4161.06    4151.53    1.10604
  0.0378545
     1332.5    3027.74    3041.74    4151.53    4142.01    1.06815
  0.0367847
     1332.5    3041.74    3055.85    4142.01    4132.48    1.12227
   0.038497
     1332.5    3055.85    3070.05    4132.48    4122.96    1.17819
   0.040026
     1332.5    3070.05    3084.35    4122.96    4113.44    1.19337
   0.040339
     1332.5    3084.35    3098.76    4113.44    4103.91    1.22291
  0.0415285
     1332.5    3098.76    3113.26    4103.91    4094.39    1.17325
  0.0400103
     1332.5    3113.26    3127.87    4094.39    4084.87    1.19291
  0.0403325
     1332.5    3127.87    3142.58    4084.87    4075.34    1.13617
   0.038934
     1332.5    3142.58    3157.39    4075.34    4065.82    1.18197
  0.0402768
     1332.5    3157.39    3172.31    4065.82    4056.29    1.23594
  0.0417041
     1332.5    3172.31    3187.34    4056.29    4046.77    1.20347
  0.0408562
     1332.5    3187.34    3202.47    4046.77    4037.25    1.19104
  0.0407205
     1332.5    3202.47    3217.71    4037.25    4027.72    1.19211
  0.0409261
     1332.5    3217.71    3233.06    4027.72     4018.2    1.20344
  0.0409691
     1332.5    3233.06    3248.52     4018.2    4008.67    1.18314
  0.0402956
     1332.5    3248.52    3264.09    4008.67    3999.15    1.14859
  0.0396524
     1332.5    3264.09    3279.78    3999.15    3989.63    1.22401
  0.0416281
     1332.5    3279.78    3295.57    3989.63     3980.1    1.21312
  0.0414328
     1332.5    3295.57    3311.49     3980.1    3970.58    1.22074
  0.0415006
     1332.5    3311.49    3327.51    3970.58    3961.06    1.22995
  0.0419348
     1332.5    3327.51    3343.66    3961.06    3951.53    1.18809
  0.0407074
     1332.5    3343.66    3359.92    3951.53    3942.01    1.23888
  0.0422997
     1332.5    3359.92     3376.3    3942.01    3932.48     1.2652
   0.042807
     1332.5     3376.3    3392.81    3932.48    3922.96    1.27811
  0.0433915
     1332.5    3392.81    3409.43    3922.96    3913.44    1.29434
  0.0438182
     1332.5    3409.43    3426.18    3913.44    3903.91    1.29919
  0.0440779
     1332.5    3426.18    3443.05    3903.91    3894.39     1.3668
  0.0458383
     1332.5    3443.05    3460.04    3894.39    3884.87    1.36796
  0.0458513
     1332.5    3460.04    3477.16    3884.87    3875.34    1.33538
  0.0448039
     1332.5    3477.16    3494.41    3875.34    3865.82    1.28814
  0.0437276
     1332.5    3494.41    3511.79    3865.82    3856.29     1.2693
  0.0432972
     1332.5    3511.79     3529.3    3856.29    3846.77     1.3035
  0.0444097
     1332.5     3529.3    3546.94    3846.77    3837.25    1.32047
  0.0446067
     1332.5    3546.94    3564.71    3837.25    3827.72    1.33775
  0.0450292
     1332.5    3564.71    3582.62    3827.72     3818.2    1.31598
  0.0448309
     1332.5    3582.62    3600.66     3818.2    3808.67    1.31477
  0.0445766
     1332.5    3600.66    3618.84    3808.67    3799.15    1.29855
  0.0441285
     1332.5    3618.84    3637.16    3799.15    3789.63    1.28405
  0.0437812
     1332.5    3637.16    3655.62    3789.63     3780.1    1.30607
  0.0443445
     1332.5    3655.62    3674.22     3780.1    3770.58    1.33317
  0.0451359
     1332.5    3674.22    3692.96    3770.58    3761.06    1.25793
  0.0432877
     1332.5    3692.96    3711.85    3761.06    3751.53    1.32207
  0.0448103
     1332.5    3711.85    3730.88    3751.53    3742.01    1.34262
  0.0454246
     1332.5    3730.88    3750.05    3742.01    3732.48    1.32097
  0.0448073
     1332.5    3750.05    3769.38    3732.48    3722.96    1.34822
  0.0456963
     1332.5    3769.38    3788.86    3722.96    3713.44    1.33093
  0.0451577
     1332.5    3788.86    3808.49    3713.44    3703.91    1.34197
   0.045498
     1332.5    3808.49    3828.27    3703.91    3694.39    1.36357
  0.0460213
     1332.5    3828.27     3848.2    3694.39    3684.87    1.31871
  0.0449741
     1332.5     3848.2     3868.3    3684.87    3675.34    1.32817
  0.0450689
     1332.5     3868.3    3888.55    3675.34    3665.82    1.29857
  0.0444161
     1332.5    3888.55    3908.96    3665.82    3656.29    1.29235
  0.0442032
     1332.5    3908.96    3929.53    3656.29    3646.77    1.27776
  0.0437728
     1332.5    3929.53    3950.27    3646.77    3637.25    1.29454
  0.0443176
     1332.5    3950.27    3971.17    3637.25    3627.72    1.28369
  0.0438572
     1332.5    3971.17    3992.23    3627.72     3618.2    1.28596
  0.0437782
     1332.5    3992.23    4013.47     3618.2    3608.67    1.33865
  0.0452552
     1332.5    4013.47    4034.87    3608.67    3599.15    1.32959
  0.0452757
     1332.5    4034.87    4056.45    3599.15    3589.63     1.3064
   0.044667
     1332.5    4056.45     4078.2    3589.63     3580.1    1.40105
  0.0473013
     1332.5     4078.2    4100.13     3580.1    3570.58    1.46562
  0.0488623
     1332.5    4100.13    4122.24    3570.58    3561.06    1.44883
  0.0484021
     1332.5    4122.24    4144.52    3561.06    3551.53    1.42412
  0.0478837
     1332.5    4144.52    4166.99    3551.53    3542.01    1.40431
  0.0474921
     1332.5    4166.99    4189.64    3542.01    3532.48    1.44007
  0.0484467
     1332.5    4189.64    4212.47    3532.48    3522.96    1.40849
   0.047478
     1332.5    4212.47     4235.5    3522.96    3513.44    1.42465
  0.0478433
     1332.5     4235.5    4258.71    3513.44    3503.91    1.49341
  0.0497851
     1332.5    4258.71    4282.11    3503.91    3494.39     1.4687
  0.0491675
     1332.5    4282.11    4305.71    3494.39    3484.87    1.42276
   0.048064
     1332.5    4305.71    4329.51    3484.87    3475.34    1.43602
  0.0483483
     1332.5    4329.51     4353.5    3475.34    3465.82    1.52041
  0.0506039
     1332.5     4353.5    4377.69    3465.82    3456.29    1.48048
  0.0495569
     1332.5    4377.69    4402.09    3456.29    3446.77    1.47025
   0.049441
     1332.5    4402.09    4426.69    3446.77    3437.25     1.4332
  0.0483836
     1332.5    4426.69     4451.5    3437.25    3427.72    1.51016
  0.0503604
     1332.5     4451.5    4476.52    3427.72     3418.2     1.4823
  0.0494731
     1332.5    4476.52    4501.75     3418.2    3408.67    1.50677
  0.0503352
     1332.5    4501.75    4527.19    3408.67    3399.15    1.52995
  0.0510416
     1332.5    4527.19    4552.85    3399.15    3389.63    1.49895
  0.0501499
     1332.5    4552.85    4578.73    3389.63     3380.1    1.49828
  0.0501343
     1332.5    4578.73    4604.83     3380.1    3370.58    1.52614
  0.0508835
     1332.5    4604.83    4631.16    3370.58    3361.06    1.53865
  0.0515003
     1332.5    4631.16    4657.71    3361.06    3351.53    1.55208
  0.0518033
     1332.5    4657.71     4684.5    3351.53    3342.01    1.54588
  0.0514767
     1332.5     4684.5    4711.51    3342.01    3332.48    1.48484
  0.0498089
     1332.5    4711.51    4738.76    3332.48    3322.96    1.52192
  0.0509181
     1332.5    4738.76    4766.25    3322.96    3313.44    1.52805
  0.0512881
     1332.5    4766.25    4793.98    3313.44    3303.91    1.53834
   0.051353
     1332.5    4793.98    4821.95    3303.91    3294.39    1.54044
  0.0515853
     1332.5    4821.95    4850.17    3294.39    3284.87     1.5029
  0.0506846
     1332.5    4850.17    4878.64    3284.87    3275.34    1.55544
  0.0518697
     1332.5    4878.64    4907.36    3275.34    3265.82    1.56094
  0.0521316
     1332.5    4907.36    4936.33    3265.82    3256.29     1.5716
  0.0526388
     1332.5    4936.33    4965.57    3256.29    3246.77    1.54002
  0.0517169
     1332.5    4965.57    4995.06    3246.77    3237.25    1.57413
  0.0526756
     1332.5    4995.06    5024.82    3237.25    3227.72    1.60075
  0.0533414
     1332.5    5024.82    5054.84    3227.72     3218.2    1.57187
   0.052629
     1332.5    5054.84    5085.14     3218.2    3208.67    1.62131
  0.0537878
     1332.5    5085.14    5115.71    3208.67    3199.15    1.54992
   0.052007
     1332.5    5115.71    5146.56    3199.15    3189.63    1.57634
  0.0529004
     1332.5    5146.56    5177.68    3189.63     3180.1     1.6261
  0.0539412
     1332.5    5177.68    5209.09     3180.1    3170.58    1.62272
  0.0539096
     1332.5    5209.09    5240.79    3170.58    3161.06    1.51992
  0.0511638
     1332.5    5240.79    5272.78    3161.06    3151.53    1.62446
  0.0541325
     1332.5    5272.78    5305.07    3151.53    3142.01    1.56073
  0.0523911
     1332.5    5305.07    5337.65    3142.01    3132.48    1.59764
  0.0536598
     1332.5    5337.65    5370.54    3132.48    3122.96    1.56469
  0.0526753
     1332.5    5370.54    5403.73    3122.96    3113.44     1.5396
  0.0519739
     1332.5    5403.73    5437.23    3113.44    3103.91    1.54806
  0.0521971
     1332.5    5437.23    5471.04    3103.91    3094.39    1.53643
  0.0518207
     1332.5    5471.04    5505.17    3094.39    3084.87    1.57054
  0.0528888
     1332.5    5505.17    5539.63    3084.87    3075.34    1.52968
  0.0515569
     1332.5    5539.63    5574.41    3075.34    3065.82    1.49659
  0.0507198
     1332.5    5574.41    5609.51    3065.82    3056.29    1.49039
  0.0504424
     1332.5    5609.51    5644.95    3056.29    3046.77    1.54073
  0.0519087
     1332.5    5644.95    5680.73    3046.77    3037.25    1.51624
  0.0511164
     1332.5    5680.73    5716.85    3037.25    3027.72    1.52271
  0.0512178
     1332.5    5716.85    5753.32    3027.72     3018.2    1.49162
  0.0505883
     1332.5    5753.32    5790.14     3018.2    3008.67    1.45517
  0.0494364
     1332.5    5790.14    5827.32    3008.67    2999.15    1.45063
  0.0492443
     1332.5    5827.32    5864.85    2999.15    2989.63    1.44825
  0.0493891
     1332.5    5864.85    5902.75    2989.63     2980.1     1.4553
  0.0496538
     1332.5    5902.75    5941.02     2980.1    2970.58     1.4211
  0.0487639
     1332.5    5941.02    5979.67    2970.58    2961.06    1.44297
  0.0492138
     1332.5    5979.67    6018.69    2961.06    2951.53    1.47481
  0.0501574
     1332.5    6018.69     6058.1    2951.53    2942.01     1.3726
  0.0477428
     1332.5     6058.1     6097.9    2942.01    2932.48    1.45968
  0.0500557
     1332.5     6097.9    6138.09    2932.48    2922.96    1.45959
  0.0497825
     1332.5    6138.09    6178.68    2922.96    2913.44    1.49715
  0.0511539
     1332.5    6178.68    6219.68    2913.44    2903.91    1.44036
   0.049656
     1332.5    6219.68    6261.09    2903.91    2894.39    1.40111
  0.0491059
     1332.5    6261.09    6302.92    2894.39    2884.87    1.42921
  0.0497931
     1332.5    6302.92    6345.16    2884.87    2875.34    1.44322
    0.05019
     1332.5    6345.16    6387.84    2875.34    2865.82    1.47905
  0.0515041
     1332.5    6387.84    6430.95    2865.82    2856.29    1.43997
  0.0503513
     1332.5    6430.95    6474.49    2856.29    2846.77    1.50029
  0.0519686
     1332.5    6474.49    6518.49    2846.77    2837.25     1.4345
   0.050387
     1332.5    6518.49    6562.93    2837.25    2827.72    1.49789
  0.0519731
     1332.5    6562.93    6607.83    2827.72     2818.2    1.43989
  0.0503483
     1332.5    6607.83     6653.2     2818.2    2808.67    1.40211
  0.0496402
     1332.5     6653.2    6699.04    2808.67    2799.15    1.40958
  0.0498301
     1332.5    6699.04    6745.35    2799.15    2789.63    1.42888
  0.0502266
     1332.5    6745.35    6792.15    2789.63     2780.1    1.47618
  0.0516283
     1332.5    6792.15    6839.44     2780.1    2770.58    1.45937
  0.0514196
     1332.5    6839.44    6887.22    2770.58    2761.06    1.43507
  0.0507068
     1332.5    6887.22    6935.51    2761.06    2751.53    1.39259
  0.0493954
     1332.5    6935.51    6984.31    2751.53    2742.01    1.42603
  0.0509986
     1332.5    6984.31    7033.63    2742.01    2732.48     1.4592
  0.0515046
     1332.5    7033.63    7083.48    2732.48    2722.96    1.44867
  0.0513033
     1332.5    7083.48    7133.86    2722.96    2713.44    1.43233
  0.0511341
     1332.5    7133.86    7184.78    2713.44    2703.91    1.39169
  0.0500725
     1332.5    7184.78    7236.25    2703.91    2694.39    1.39556
  0.0504416
     1332.5    7236.25    7288.28    2694.39    2684.87    1.37032
  0.0497915
     1332.5    7288.28    7340.87    2684.87    2675.34    1.39489
  0.0505706
     1332.5    7340.87    7394.04    2675.34    2665.82    1.41919
  0.0512996
     1332.5    7394.04    7447.79    2665.82    2656.29    1.35188
  0.0492499
     1332.5    7447.79    7502.13    2656.29    2646.77     1.3523
  0.0496035
     1332.5    7502.13    7557.07    2646.77    2637.25    1.34991
  0.0497825
     1332.5    7557.07    7612.62    2637.25    2627.72    1.27768
  0.0480077
     1332.5    7612.62    7668.78    2627.72     2618.2    1.26314
  0.0477982
     1332.5    7668.78    7725.57     2618.2    2608.67    1.24618
  0.0471245
     1332.5    7725.57      7783.    2608.67    2599.15     1.1707
   0.045368
     1332.5      7783.    7841.07    2599.15    2589.63    1.21043
  0.0466191
     1332.5    7841.07     7899.8    2589.63     2580.1    1.18505
  0.0461387
     1332.5     7899.8    7959.19     2580.1    2570.58    1.20949
  0.0470783
     1332.5    7959.19    8019.26    2570.58    2561.06    1.20148
  0.0472909
     1332.5    8019.26    8080.01    2561.06    2551.53    1.13249
  0.0453534
     1332.5    8080.01    8141.46    2551.53    2542.01    1.21683
  0.0469959
     1332.5    8141.46    8203.61    2542.01    2532.48    1.21809
  0.0471822
     1332.5    8203.61    8266.49    2532.48    2522.96     1.2298
  0.0480107
     1332.5    8266.49    8330.09    2522.96    2513.44    1.23605
  0.0482823
     1332.5    8330.09    8394.43    2513.44    2503.91    1.10271
   0.045286
     1332.5    8394.43    8459.52    2503.91    2494.39    1.15157
  0.0465134
     1332.5    8459.52    8525.38    2494.39    2484.87    1.13517
  0.0472937
     1332.5    8525.38    8592.01    2484.87    2475.34    1.21148
  0.0486189
     1332.5    8592.01    8659.43    2475.34    2465.82    1.15166
  0.0473504
     1332.5    8659.43    8727.65    2465.82    2456.29      1.169
   0.048347
     1332.5    8727.65    8796.69    2456.29    2446.77     1.2026
  0.0490727
     1332.5    8796.69    8866.55    2446.77    2437.25    1.13799
  0.0473752
     1332.5    8866.55    8937.25    2437.25    2427.72    1.12215
  0.0477379
     1332.5    8937.25     9008.8    2427.72     2418.2    1.21075
  0.0503827
     1332.5     9008.8    9154.52     2418.2    2399.15    1.15829
  0.0411846
     1332.5    9154.52    9303.83    2399.15     2380.1    1.12409
  0.0405356
     1332.5    9303.83    9456.83     2380.1    2361.06    1.13239
  0.0411861
     1332.5    9456.83    9613.66    2361.06    2342.01    1.15525
  0.0418249
     1332.5    9613.66    9774.44    2342.01    2322.96    1.12843
  0.0418586
     1332.5    9774.44    9939.32    2322.96    2303.91     1.1282
  0.0423734
     1332.5    9939.32    10108.4    2303.91    2284.87    1.13368
  0.0430734
     1332.5    10108.4    10281.9    2284.87    2265.82    1.15775
  0.0448991
     1332.5    10281.9    10459.9    2265.82    2246.77    1.16003
  0.0452204
     1332.5    10459.9    10642.6    2246.77    2227.72    1.17285
   0.046543
     1332.5    10642.6    10830.2    2227.72    2208.67    1.14793
  0.0463466
     1332.5    10830.2    11022.8    2208.67    2189.63    1.16644
  0.0476343
     1332.5    11022.8    11220.5    2189.63    2170.58    1.16778
  0.0478682
     1332.5    11220.5    11423.8    2170.58    2151.53    1.11517
  0.0466771
     1332.5    11423.8    11632.6    2151.53    2132.48    1.17041
  0.0484796
     1332.5    11632.6    11847.2    2132.48    2113.44    1.13632
  0.0489047
     1332.5    11847.2    12067.9    2113.44    2094.39    1.04962
   0.048152
     1332.5    12067.9    12294.8    2094.39    2075.34    1.05592
  0.0475792
     1332.5    12294.8    12528.2    2075.34    2056.29    1.09738
  0.0503451
     1332.5    12528.2    12768.4    2056.29    2037.25    1.01855
    0.04981
     1332.5    12768.4    13015.6    2037.25     2018.2    1.12813
  0.0529545
     1332.5    13015.6    13270.1     2018.2    1999.15   0.979801
  0.0491914
     1332.5    13270.1    13532.2    1999.15     1980.1   0.944377
  0.0487005
     1332.5    13532.2    13802.2     1980.1    1961.06   0.888701
   0.049603
     1332.5    13802.2    14080.4    1961.06    1942.01   0.772748
  0.0474256
     1332.5    14080.4    14367.2    1942.01    1922.96   0.800567
  0.0490206
     1332.5    14367.2    14662.9    1922.96    1903.91   0.719731
  0.0454027
     1332.5    14662.9    14967.9    1903.91    1884.87   0.705879
  0.0448451
     1332.5    14967.9    15282.6    1884.87    1865.82   0.715435
  0.0472219
     1332.5    15282.6    15607.4    1865.82    1846.77   0.540897
    0.04096
     1332.5    15607.4    15942.8    1846.77    1827.72   0.620174
  0.0455048
     1332.5    15942.8    16289.2    1827.72    1808.67   0.447205
  0.0421406
     1332.5    16289.2    16647.1    1808.67    1789.63   0.441817
    0.03947
     1332.5    16647.1     17017.    1789.63    1770.58    0.41168
  0.0408989
     1332.5     17017.    17399.6    1770.58    1751.53   0.382254
  0.0390908
     1332.5    17399.6    17795.3    1751.53    1732.48   0.305018
   0.038476
     2158.6    2175.45    2192.54    4894.39    4875.34 0.00216815
0.000870943
     2158.6    2192.54    2209.83    4875.34    4856.29 0.00371947
 0.00130181
     2158.6    2209.83    2227.33    4856.29    4837.25  0.0110942
 0.00222822
     2158.6    2227.33    2245.04    4837.25     4818.2  0.0107356
 0.00211825
     2158.6    2245.04    2262.96     4818.2    4799.15  0.0170123
 0.00236401
     2158.6    2262.96     2281.1    4799.15     4780.1  0.0147046
 0.00220346
     2158.6     2281.1    2299.46     4780.1    4761.06   0.016001
 0.00213838
     2158.6    2299.46    2318.03    4761.06    4742.01  0.0191062
 0.00247052
     2158.6    2318.03    2336.84    4742.01    4722.96  0.0192034
 0.00250254
     2158.6    2336.84    2355.87    4722.96    4703.91  0.0234028
 0.00269794
     2158.6    2355.87    2375.14    4703.91    4684.87  0.0279848
 0.00294568
     2158.6    2375.14    2394.65    4684.87    4665.82  0.0319758
 0.00303441
     2158.6    2394.65     2414.4    4665.82    4646.77  0.0248781
 0.00274711
     2158.6     2414.4    2434.39    4646.77    4627.72  0.0302825
  0.0029889
     2158.6    2434.39    2454.63    4627.72    4608.67  0.0315168
 0.00314184
     2158.6    2454.63    2475.13    4608.67    4589.63  0.0297259
 0.00309564
     2158.6    2475.13    2495.89    4589.63    4570.58  0.0366845
 0.00338899
     2158.6    2495.89     2516.9    4570.58    4551.53  0.0368435
 0.00340442
     2158.6     2516.9    2538.19    4551.53    4532.48  0.0364612
 0.00352239
     2158.6    2538.19    2559.75    4532.48    4513.44  0.0374599
 0.00339974
     2158.6    2559.75    2581.58    4513.44    4494.39  0.0499453
 0.00409417
     2158.6    2581.58    2603.69    4494.39    4475.34  0.0369437
 0.00347229
     2158.6    2603.69    2626.09    4475.34    4456.29  0.0425668
 0.00371417
     2158.6    2626.09    2648.78    4456.29    4437.25  0.0374621
  0.0039272
     2158.6    2648.78    2671.77    4437.25     4418.2  0.0354916
 0.00329566
     2158.6    2671.77    2695.05     4418.2    4399.15  0.0352815
 0.00354274
     2158.6    2695.05    2718.65    4399.15     4380.1   0.035862
 0.00362283
     2158.6    2718.65    2742.55     4380.1    4361.06  0.0354231
 0.00378896
     2158.6    2742.55    2766.77    4361.06    4342.01  0.0452637
 0.00410008
     2158.6    2766.77    2791.32    4342.01    4322.96  0.0445644
 0.00399366
     2158.6    2791.32    2816.19    4322.96    4303.91  0.0428342
 0.00402157
     2158.6    2816.19     2841.4    4303.91    4284.87   0.052015
 0.00436366
     2158.6     2841.4    2866.94    4284.87    4265.82  0.0429883
 0.00403994
     2158.6    2866.94    2892.84    4265.82    4246.77  0.0513621
 0.00435857
     2158.6    2892.84    2919.09    4246.77    4227.72  0.0578577
 0.00466577
     2158.6    2919.09    2945.69    4227.72    4208.67  0.0446572
 0.00418332
     2158.6    2945.69    2972.67    4208.67    4189.63  0.0468676
 0.00429548
     2158.6    2972.67    3000.01    4189.63    4170.58  0.0496283
 0.00423313
     2158.6    3000.01    3027.74    4170.58    4151.53  0.0530133
 0.00434492
     2158.6    3027.74    3055.85    4151.53    4132.48  0.0474503
 0.00447544
     2158.6    3055.85    3084.35    4132.48    4113.44  0.0574635
 0.00473692
     2158.6    3084.35    3113.26    4113.44    4094.39  0.0468276
  0.0047565
     2158.6    3113.26    3142.58    4094.39    4075.34  0.0586062
 0.00500609
     2158.6    3142.58    3172.31    4075.34    4056.29  0.0579877
 0.00483587
     2158.6    3172.31    3202.47    4056.29    4037.25   0.056436
 0.00495153
     2158.6    3202.47    3233.06    4037.25     4018.2    0.05621
 0.00478325
     2158.6    3233.06    3264.09     4018.2    3999.15  0.0530489
 0.00488311
     2158.6    3264.09    3295.57    3999.15     3980.1  0.0666103
 0.00545258
     2158.6    3295.57    3327.51     3980.1    3961.06  0.0608659
 0.00517984
     2158.6    3327.51    3359.92    3961.06    3942.01  0.0647544
 0.00522028
     2158.6    3359.92    3392.81    3942.01    3922.96  0.0477891
 0.00506327
     2158.6    3392.81    3426.18    3922.96    3903.91  0.0603178
 0.00511865
     2158.6    3426.18    3460.04    3903.91    3884.87  0.0625917
 0.00539527
     2158.6    3460.04    3494.41    3884.87    3865.82  0.0699246
 0.00563548
     2158.6    3494.41     3529.3    3865.82    3846.77   0.063704
 0.00568492
     2158.6     3529.3    3564.71    3846.77    3827.72  0.0575491
 0.00540585
     2158.6    3564.71    3600.66    3827.72    3808.67  0.0567213
 0.00569096
     2158.6    3600.66    3637.16    3808.67    3789.63  0.0573936
 0.00540936
     2158.6    3637.16    3674.22    3789.63    3770.58  0.0594024
 0.00544761
     2158.6    3674.22    3711.85    3770.58    3751.53  0.0650879
 0.00585883
     2158.6    3711.85    3750.05    3751.53    3732.48  0.0644842
 0.00564714
     2158.6    3750.05    3788.86    3732.48    3713.44  0.0621109
 0.00579116
     2158.6    3788.86    3828.27    3713.44    3694.39   0.060926
 0.00562675
     2158.6    3828.27     3868.3    3694.39    3675.34  0.0480894
 0.00525585
     2158.6     3868.3    3908.96    3675.34    3656.29  0.0572019
 0.00565403
     2158.6    3908.96    3950.27    3656.29    3637.25  0.0536125
 0.00559721
     2158.6    3950.27    3992.23    3637.25     3618.2  0.0728663
 0.00602985
     2158.6    3992.23    4034.87     3618.2    3599.15    0.04718
  0.0053963
     2158.6    4034.87     4078.2    3599.15     3580.1  0.0489813
 0.00544197
     2158.6     4078.2    4122.24     3580.1    3561.06  0.0763591
 0.00645833
     2158.6    4122.24    4166.99    3561.06    3542.01  0.0709286
 0.00620622
     2158.6    4166.99    4212.47    3542.01    3522.96  0.0599795
 0.00605865
     2158.6    4212.47    4258.71    3522.96    3503.91  0.0615153
 0.00617974
     2158.6    4258.71    4305.71    3503.91    3484.87  0.0615207
 0.00660218
     2158.6    4305.71     4353.5    3484.87    3465.82  0.0601884
 0.00617621
     2158.6     4353.5    4402.09    3465.82    3446.77  0.0630352
 0.00662177
     2158.6    4402.09     4451.5    3446.77    3427.72  0.0711765
 0.00675268
     2158.6     4451.5    4501.75    3427.72    3408.67  0.0642486
 0.00616776
     2158.6    4501.75    4552.85    3408.67    3389.63  0.0753866
 0.00674848
     2158.6    4552.85    4604.83    3389.63    3370.58   0.075191
 0.00679698
     2158.6    4604.83    4657.71    3370.58    3351.53  0.0651226
  0.0062504
     2158.6    4657.71    4711.51    3351.53    3332.48  0.0672975
 0.00670189
     2158.6    4711.51    4766.25    3332.48    3313.44  0.0612031
 0.00665804
     2158.6    4766.25    4821.95    3313.44    3294.39  0.0742325
 0.00703664
     2158.6    4821.95    4878.64    3294.39    3275.34  0.0696041
 0.00674829
     2158.6    4878.64    4936.33    3275.34    3256.29  0.0739958
 0.00694261
     2158.6    4936.33    4995.06    3256.29    3237.25  0.0619011
 0.00663782
     2158.6    4995.06    5054.84    3237.25     3218.2  0.0606782
 0.00678697
     2158.6    5054.84    5370.54     3218.2    3122.96  0.0709773
 0.00358508
     2158.6    5370.54    5716.85    3122.96    3027.72  0.0671912
 0.00354509
     2158.6    5716.85     6097.9    3027.72    2932.48  0.0588418
 0.00334961
     2158.6     6097.9    6518.49    2932.48    2837.25  0.0616034
 0.00349425
     2158.6    6518.49    6984.31    2837.25    2742.01   0.050879
 0.00350089
     2158.6    6984.31    7502.13    2742.01    2646.77  0.0495713
  0.0038184
     2158.6    7502.13    8080.01    2646.77    2551.53  0.0560434
 0.00420339
     2158.6    8080.01    8727.65    2551.53    2456.29  0.0421234
 0.00466298
     2158.6    8727.65    9456.83    2456.29    2361.06  0.0550497
 0.00499131
     2158.6    9456.83    10281.9    2361.06    2265.82  0.0455056
 0.00600527
     2158.6    10281.9    11220.5    2265.82    2170.58  0.0400519
 0.00698135
     2158.6    11220.5    12294.8    2170.58    2075.34  0.0560812
 0.00759944
ENDDATA           1744
ENDSUBENT         1751
SUBENT        23773004   20230206   20230907   20230725       2315
BIB                  2          2
REACTION   (28-NI-60(N,INL)28-NI-60,PAR,SIG,G)
STATUS     (TABLE) Fig. 5 of Phys.Rev.C106(2022)024609
ENDBIB               2
NOCOMMON             0          0
DATA                 7         67
E          EN-MIN     EN-MAX     TOF-MAX    TOF-MIN    DATA
ERR-T
KEV        KEV        KEV        MSEC       NSEC       B
B
     1345.7    1358.48    1383.97    6189.63    6132.48  0.0669515
  0.0319841
     1345.7    1383.97    1410.18    6132.48    6075.34    0.16729
  0.0319641
     1345.7    1410.18    1437.15    6075.34     6018.2   0.194228
  0.0316522
     1345.7    1437.15     1464.9     6018.2    5961.06   0.263306
  0.0347076
     1345.7     1464.9    1493.46    5961.06    5903.91    0.29602
  0.0382509
     1345.7    1493.46    1522.87    5903.91    5846.77   0.324246
  0.0416436
     1345.7    1522.87    1553.15    5846.77    5789.63   0.365317
  0.0425027
     1345.7    1553.15    1584.35    5789.63    5732.48   0.375014
  0.0430808
     1345.7    1584.35     1616.5    5732.48    5675.34   0.376427
  0.0439907
     1345.7     1616.5    1649.64    5675.34     5618.2   0.364509
  0.0441587
     1345.7    1649.64     1683.8     5618.2    5561.06   0.409735
  0.0529233
     1345.7     1683.8    1719.04    5561.06    5503.91   0.439757
  0.0504726
     1345.7    1719.04     1755.4    5503.91    5446.77   0.552866
  0.0548565
     1345.7     1755.4    1792.93    5446.77    5389.63   0.567458
  0.0537107
     1345.7    1792.93    1831.68    5389.63    5332.48   0.544871
  0.0584613
     1345.7    1831.68    1871.69    5332.48    5275.34    0.59661
  0.0570533
     1345.7    1871.69    1913.04    5275.34     5218.2   0.578102
  0.0592461
     1345.7    1913.04    1955.77     5218.2    5161.06   0.477135
  0.0567425
     1345.7    1955.77    1999.94    5161.06    5103.91   0.423889
  0.0559767
     1345.7    1999.94    2045.64    5103.91    5046.77   0.587308
  0.0633693
     1345.7    2045.64    2092.92    5046.77    4989.63   0.541207
  0.0603726
     1345.7    2092.92    2141.86    4989.63    4932.48   0.530138
  0.0618152
     1345.7    2141.86    2192.54    4932.48    4875.34    0.60805
  0.0621495
     1345.7    2192.54    2245.04    4875.34     4818.2   0.567045
  0.0653024
     1345.7    2245.04    2299.46     4818.2    4761.06    0.56073
  0.0646292
     1345.7    2299.46    2355.87    4761.06    4703.91     0.6009
  0.0676838
     1345.7    2355.87     2414.4    4703.91    4646.77   0.803292
  0.0722723
     1345.7     2414.4    2475.13    4646.77    4589.63   0.770751
  0.0728717
     1345.7    2475.13    2538.19    4589.63    4532.48    0.60006
  0.0707928
     1345.7    2538.19    2603.69    4532.48    4475.34   0.785272
  0.0779137
     1345.7    2603.69    2671.77    4475.34     4418.2    0.75844
  0.0764488
     1345.7    2671.77    2742.55     4418.2    4361.06   0.800407
  0.0855282
     1345.7    2742.55    2816.19    4361.06    4303.91   0.957754
  0.0841934
     1345.7    2816.19    2892.84    4303.91    4246.77   0.832316
  0.0832994
     1345.7    2892.84    2972.67    4246.77    4189.63   0.847884
   0.084241
     1345.7    2972.67    3055.85    4189.63    4132.48   0.939748
   0.087471
     1345.7    3055.85    3142.58    4132.48    4075.34   0.890048
  0.0906796
     1345.7    3142.58    3233.06    4075.34     4018.2    1.07977
   0.100424
     1345.7    3233.06    3327.51     4018.2    3961.06    1.03063
   0.104687
     1345.7    3327.51    3426.18    3961.06    3903.91    1.01304
    0.10345
     1345.7    3426.18     3529.3    3903.91    3846.77   0.953891
   0.109289
     1345.7     3529.3    3637.16    3846.77    3789.63   0.987269
   0.110947
     1345.7    3637.16    3750.05    3789.63    3732.48    1.16319
   0.116688
     1345.7    3750.05     3868.3    3732.48    3675.34   0.941144
    0.11539
     1345.7     3868.3    3992.23    3675.34     3618.2    1.26285
   0.119041
     1345.7    3992.23    4122.24     3618.2    3561.06    1.09289
   0.117114
     1345.7    4122.24    4258.71    3561.06    3503.91    1.29791
   0.122184
     1345.7    4258.71    4402.09    3503.91    3446.77    1.36551
    0.12215
     1345.7    4402.09    4552.85    3446.77    3389.63    1.28003
   0.122366
     1345.7    4552.85    4711.51    3389.63    3332.48    1.23443
    0.12368
     1345.7    4711.51    4878.64    3332.48    3275.34    1.43655
   0.131474
     1345.7    4878.64    5054.84    3275.34     3218.2     1.4356
   0.141801
     1345.7    5054.84    5240.79     3218.2    3161.06    1.40544
   0.135331
     1345.7    5240.79    5437.23    3161.06    3103.91    1.32578
   0.135545
     1345.7    5437.23    5644.95    3103.91    3046.77    1.43088
   0.132394
     1345.7    5644.95    5864.85    3046.77    2989.63     1.2891
   0.132659
     1345.7    5864.85     6097.9    2989.63    2932.48    1.33837
   0.131001
     1345.7     6097.9    6518.49    2932.48    2837.25    1.27824
   0.102217
     1345.7    6518.49    6984.31    2837.25    2742.01    1.29131
   0.109009
     1345.7    6984.31    7502.13    2742.01    2646.77     1.4457
    0.11577
     1345.7    7502.13    8080.01    2646.77    2551.53    1.19107
   0.122536
     1345.7    8080.01    8727.65    2551.53    2456.29    1.18662
   0.128179
     1345.7    8727.65    9456.83    2456.29    2361.06    1.44104
   0.154032
     1345.7    9456.83    10281.9    2361.06    2265.82    1.13588
     0.1669
     1345.7    10281.9    11220.5    2265.82    2170.58    1.09814
   0.196149
     1345.7    11220.5    12294.8    2170.58    2075.34   0.818528
   0.202057
     1345.7    12294.8    13532.2    2075.34     1980.1    0.58466
   0.257547
ENDDATA            138
ENDSUBENT          145
ENDENTRY             4
