ENTRY            C1226   20050525   20050801                  C074
SUBENT        C1226001   20050525   20050801                  C074
BIB                 10         12
INSTITUTE  (1USAWIS)
REFERENCE  (J,PR/C,24,1773,1981) Brief report
AUTHOR     (C.A.Davis)
TITLE      Scattering of alpha particles by 22Ne
FACILITY   (VDGT,1USAWIS)
INC-SOURCE He++ ion beam. Energy resolution is at worst 4 keV
            and arises mainly from straggling of the beam in the
            gas target.
SAMPLE     Differentially pumped natural neon gas.
METHOD     (BCINT)
DETECTOR   (SOLST) Thin depleted surface barrier detectors.
HISTORY    (20050525C) DR
ENDBIB              12
NOCOMMON             0          0
ENDSUBENT           15
SUBENT        C1226002   20050525   20050801                  C074
BIB                  3          3
REACTION   (10-NE-22(A,EL)10-NE-22,,DA)
ERR-ANALYS (DATA-ERR) No information
STATUS     Data received from author
ENDBIB               3
NOCOMMON             0          0
DATA                 4        892
ANG        EN         DATA       DATA-ERR
ADEG       MEV        MB/SR      MB/SR
 70.       13.415      6117.2     450.4
 70.       13.425      5610.0     432.0
 70.       13.435      6435.4     452.8
 70.       13.445      6560.9     457.2
 70.       13.455      6242.7     445.8
 70.       13.465      6237.2     445.5
 70.       13.475      6133.9     441.4
 70.       13.485      5411.7     414.7
 70.       13.495      3990.4     356.0
 70.       13.505      3258.1     321.4
 70.       13.515      2564.2     285.2
 70.       13.525      1678.2     230.7
 70.       13.535      1108.2     187.4
 70.       13.545       949.9     173.5
 70.       13.555      1203.3     195.3
 70.       13.565      2057.7     255.4
 70.       13.575      2343.3     272.7
 70.       13.585      4243.5     367.2
 70.       13.595      4655.6     384.7
 70.       13.605      6462.3     453.6
 70.       13.615      6176.8     443.4
 70.       13.625      7285.9     481.8
 70.       13.635      8479.3     519.7
 70.       13.645      6898.1     468.4
 70.       13.655      9461.2     549.2
 70.       13.665      8670.8     525.6
 70.       13.675      9808.7     559.2
 70.       13.685      9143.9     539.8
 70.       13.695      8418.0     517.8
 70.       13.705      8227.2     511.9
 70.       13.715      8511.6     520.7
 70.       13.725      6235.2     445.3
 70.       13.735      6836.0     466.4
 70.       13.745      4240.9     367.0
 70.       13.755      4493.4     377.7
 70.       13.765      4177.7     364.2
 70.       13.775      3417.5     329.3
 70.       13.785      2563.5     285.1
 70.       13.795      2626.6     288.6
 70.       13.805      2278.2     268.7
 70.       13.815      1835.3     241.2
 70.       13.825      2310.0     270.6
 70.       13.835      2151.8     261.2
 70.       13.845      2307.8     270.3
 70.       13.855      2311.6     270.8
 70.       13.865      2163.3     255.1
 70.       13.865      2881.9     302.4
 70.       13.875      1713.1     238.7
 70.       13.875      1931.4     247.5
 70.       13.885      1863.7     248.0
 70.       13.895      2434.3     280.6
 70.       13.895      1963.1     249.5
 70.       13.905      1862.8     251.5
 70.       13.915      1503.1     229.0
 70.       13.925      1350.9     218.6
 70.       13.935       750.7     167.2
 70.       13.945       900.8     180.2
 70.       13.955       330.2     116.3
 70.       13.965       299.9      94.9
 70.       13.975       180.1      73.5
 70.       13.985        90.0      52.0
 70.       13.995       150.0      67.1
 70.       14.005       390.8     108.4
 70.       14.015       600.3     134.3
 70.       14.025       811.6     161.9
 70.       14.035       360.2     112.3
 70.       14.055       209.9      79.4
 70.       14.065       839.2     179.9
 70.       14.075       839.4     174.8
 70.       14.095       600.3     134.3
 70.       14.105       602.0     134.6
 70.       14.115      1805.8     233.3
 70.       14.125      1083.2     208.5
 70.       14.135      2134.5     277.4
 70.       14.145      1923.4     262.1
 70.       14.155      1291.8     222.9
 70.       14.175      1772.0     253.2
 70.       14.185      1439.6     236.2
 70.       14.195      2795.9     317.0
 70.       14.205      2616.5     280.8
 70.       14.215      2551.3     301.9
 70.       14.225      3392.9     341.4
 70.       14.235      3453.4     322.4
 70.       14.245      3630.1     330.5
 70.       14.255      4441.9     365.7
 70.       14.265      3820.8     339.5
 70.       14.275      1951.9     242.3
 70.       14.285      2580.8     303.3
 70.       14.295      3699.1     334.0
 70.       14.305      2256.5     287.2
 70.       14.315      2976.1     322.7
 70.       14.325      3218.3     311.5
 70.       14.335      3184.5     309.7
 70.       14.345      3752.5     336.1
 70.       14.355      3184.3     309.7
 70.       14.365      3428.6     325.8
 70.       14.375      3119.6     306.3
 70.       14.385      3118.2     306.1
 90.       15.341      1983.8     250.1
 90.       15.351      1794.9     237.9
 90.       15.361      2298.7     269.3
 90.       15.371      2550.6     283.7
 90.       15.381      2770.9     295.7
 90.       15.391      2487.6     280.1
 90.       15.401      2708.1     292.3
 90.       15.411      2330.1     271.1
 90.       15.421      2865.5     300.7
 90.       15.431      2739.5     294.0
 90.       15.441      2298.6     269.3
 90.       15.451      1857.7     242.0
 90.       15.461      2015.1     252.1
 90.       15.471      1102.0     186.3
 90.       15.481      1227.9     196.7
 90.       15.491      1101.9     186.3
 90.       15.501      1039.0     180.9
 90.       15.511      1102.0     186.3
 90.       15.521       913.1     169.6
 90.       15.531       692.6     147.7
 90.       15.541       598.2     137.3
 90.       15.551      1007.6     178.2
 90.       15.561       598.3     137.3
 90.       15.571      1007.6     178.2
 90.       15.581       944.6     172.5
 90.       15.591      1290.9     201.7
 90.       15.601      1259.5     199.2
 90.       15.611      1480.1     216.0
 90.       15.621      1448.5     213.7
 90.       15.631      1700.5     231.5
 90.       15.641      1763.3     235.8
 90.       15.651      1889.3     244.1
 90.       15.661      1952.2     248.1
 90.       15.671      2204.2     263.7
 90.       15.681      2298.7     269.3
 90.       15.691      2424.6     276.5
 90.       15.711      2235.7     265.5
 90.       15.721      2109.7     257.9
 90.       15.731      2645.0     288.9
 90.       15.741      2676.9     290.6
 90.       15.751      2235.8     265.5
 90.       15.761      2201.9     263.4
 90.       15.771      2487.6     280.1
 90.       15.781      2391.6     274.6
 90.       15.791      2109.7     257.9
 90.       15.801      2235.6     265.5
 90.       15.811      2078.2     256.0
 90.       15.821      2075.7     255.7
 90.       15.831      1322.6     204.2
 90.       15.841      1039.2     181.0
 90.       15.851      1070.7     183.7
 90.       15.861       944.7     172.5
 90.       15.871       819.6     160.8
 90.       15.881      1228.4     196.8
 90.       15.891       661.3     144.3
 90.       15.901       913.2     169.6
 90.       15.911       787.3     157.5
 90.       15.921       912.1     169.4
 90.       15.931       975.6     175.3
 90.       15.941       913.3     169.7
 90.       15.951      1070.7     183.7
 90.       15.961       503.2     125.8
 90.       15.971       691.8     147.5
 90.       15.981      1037.8     180.7
 90.       15.991      1384.6     208.8
 90.       16.001      1133.7     189.0
 90.       16.011      1291.2     201.7
 90.       16.021      1165.3     191.6
 90.       16.031      1228.4     196.8
 90.       16.041      1165.4     191.7
 90.       16.051       850.4     163.7
 90.       16.061       754.8     154.1
 90.       16.071      1102.4     186.4
 90.       16.081      1007.6     178.2
 90.       16.091       692.8     147.7
 90.       16.101       724.3     151.1
 90.       16.111       787.2     157.5
 90.       16.121       408.9     113.4
 90.       16.131       346.4     104.4
 90.       16.141       409.4     113.6
 90.       16.151       409.4     113.6
 90.       16.161       440.3     117.7
 90.       16.171       440.9     117.8
 90.       16.181       629.8     140.9
 90.       16.191       661.3     144.3
 90.       16.201       724.2     151.1
 90.       16.211      1511.4     218.3
 90.       16.221      1070.6     183.7
 90.       16.231       974.8     175.1
 90.       16.241       880.5     166.5
 90.       16.251      1037.6     180.7
 90.       16.261       503.2     125.8
 90.       16.271       440.8     117.8
100.       14.333       696.3     168.9
100.       14.353       983.2     200.7
100.       14.373      1761.3     268.7
100.       14.393      1474.6     245.9
100.       14.403      2376.1     312.2
100.       14.413      1802.3     271.8
100.       14.423      1966.3     284.0
100.       14.433      2089.4     292.7
100.       14.443      2171.4     298.4
100.       14.453      1679.7     262.5
100.       14.463      2294.3     306.8
100.       14.473      3032.3     352.8
100.       14.493      1679.3     262.4
100.       14.503      1515.7     249.3
100.       14.513       819.3     183.2
100.       14.523       901.2     192.2
100.       14.533       245.8     100.3
100.       14.543       163.8      81.9
100.       14.553       122.9      70.9
100.       14.563        81.9      57.9
100.       14.573       163.9      81.9
100.       14.583        81.9      57.9
100.       14.593       204.8      91.6
100.       14.603        81.9      57.9
100.       14.623       286.9     108.4
100.       14.633       573.6     153.3
100.       14.643       450.7     135.9
100.       14.653       424.8     134.4
100.       14.663       409.7     129.6
100.       14.673       860.2     187.8
100.       14.683       819.6     183.3
100.       14.693       942.4     196.6
100.       14.703      1351.8     235.4
100.       14.713      1433.9     242.5
100.       14.723      1515.8     249.3
100.       14.733      1638.8     259.2
100.       14.738      1501.0     240.5
100.       14.743      1434.4     242.6
100.       14.748      2694.6     322.3
100.       14.753      2048.8     289.9
100.       14.758      2348.9     301.0
100.       14.763      2950.3     348.0
100.       14.768      2464.7     308.3
100.       14.773      2540.6     322.9
100.       14.778      3117.9     346.8
100.       14.788      2579.1     315.3
100.       14.793      2787.0     338.2
100.       14.798      2809.4     329.1
100.       14.808      2656.0     320.0
100.       14.818      2963.4     338.0
100.       14.828      2578.4     315.2
100.       14.838      2578.4     315.2
100.       14.848      2501.3     310.5
100.       14.858      3117.0     346.7
100.       14.868      2693.9     322.2
100.       14.878      3039.8     342.3
100.       14.888      2655.0     319.9
100.       14.898      1962.6     275.0
100.       14.908      1500.7     240.4
100.       14.918      2001.1     277.7
100.       14.928      1693.2     255.4
100.       14.938      1539.3     243.5
100.       14.948      1808.7     264.0
100.       14.958      1654.8     252.5
100.       14.968      1808.7     264.0
100.       14.978      1847.2     266.8
100.       14.988      2386.1     303.3
100.       14.998      2155.2     288.2
100.       15.008      2155.1     288.2
100.       15.018      1885.7     269.5
100.       15.028      2116.3     285.5
100.       15.038      2039.4     280.3
100.       15.048      2232.0     293.3
100.       15.058      2462.9     308.1
100.       15.068      1770.6     261.2
100.       15.078      1847.3     266.8
100.       15.088      1770.4     261.2
100.       15.098      1847.3     266.8
100.       15.108      1462.4     237.3
100.       15.118      1270.1     221.2
100.       15.128       962.2     192.5
100.       15.138      1039.2     200.1
100.       15.148      1039.2     200.0
100.       15.158       846.6     180.5
100.       15.168      1154.5     210.8
100.       15.178      1347.1     227.8
100.       15.188      1539.6     243.5
100.       15.198      1731.8     258.3
100.       15.208      1847.3     266.8
100.       15.218      2078.0     283.0
100.       15.228      2655.3     319.9
100.       15.238      2809.2     329.1
100.       15.248      2462.7     308.1
100.       15.258      2963.4     338.0
100.       15.268      2462.8     308.1
100.       15.278      2462.7     308.1
100.       15.288      2963.1     338.0
100.       15.298      3309.0     357.2
100.       15.308      4001.6     392.9
100.       15.318      3655.2     375.4
100.       15.328      4271.3     405.9
100.       15.338      4463.7     415.0
100.       15.348      4695.3     425.7
100.       15.368      6002.8     481.5
120.       19.186      7240.3    1810.3
120.       19.216      5429.6    1567.6
120.       19.246      6334.9    1693.3
120.       19.276      5430.1    1567.7
120.       19.306      5429.4    1567.5
120.       19.336      4977.0    1500.8
120.       19.366      2714.8    1108.4
120.       19.396      4072.7    1357.7
120.       19.426      6333.1    1692.8
120.       19.456     11764.2    2307.7
120.       19.486      8144.8    1920.1
120.       19.516     10860.4    2217.3
120.       19.546      9502.7    2074.0
120.       19.576     16743.5    2753.5
120.       19.606     15837.0    2677.8
120.       19.636     11764.6    2307.7
120.       19.666     12216.6    2351.6
120.       19.696      7692.3    1865.9
120.       19.726      4525.0    1431.0
120.       19.756      3167.6    1197.3
120.       19.786      1809.9     905.0
120.       19.816       905.0     639.9
120.       19.846      1351.9     780.6
120.       19.876      1805.9     903.0
120.       19.906       452.5     452.5
120.       19.936      2714.8    1108.4
120.       19.966      3614.9    1278.1
120.       19.996       903.7     639.0
120.       20.026      1355.6     782.7
120.       20.056       903.8     639.1
120.       20.086       903.7     639.0
120.       20.116      5861.4    1625.8
120.       20.146      4959.2    1495.4
120.       20.176      9940.3    2119.7
120.       20.206     12199.9    2876.0
120.       20.236     19655.3    3650.8
120.       20.266     14234.7    3106.8
120.       20.296     12878.3    2955.0
120.       20.326     21013.2    3775.1
120.       20.356     30502.7    4548.8
120.       20.386     39319.0    5165.4
120.       20.416     33740.7    4773.7
120.       20.446     29153.4    4447.5
120.       20.476     25621.6    4157.7
120.       20.536     18970.7    3587.1
120.       20.566     14819.6    3160.1
120.       20.596     14233.7    3106.6
120.       20.626     10115.8    2612.2
120.       20.686      8134.3    2348.4
120.       20.716      9481.7    3584.0
120.       20.746     17625.9    4889.1
120.       20.776      8133.3    3320.6
120.       20.806     24398.9    4067.7
170.       13.415      7515.1    1093.9
170.       13.425      5832.5    1003.6
170.       13.435      3926.6     890.7
170.       13.445      5832.6    1003.7
170.       13.455      2579.3    1322.2
170.       13.465      1232.5     537.4
170.       13.475       559.5     250.2
170.       13.485      1680.0     433.8
170.       13.495      2129.5    1148.5
170.       13.505      3246.3     603.0
170.       13.515      3585.0     634.0
170.       13.525      5490.9     784.9
170.       13.535      4594.0     717.8
170.       13.545      3697.6     643.9
170.       13.555      4818.5     735.2
170.       13.565      4481.1     708.9
170.       13.575      4594.6     717.9
170.       13.585      2801.7     560.5
170.       13.595      2465.7     525.8
170.       13.605      1457.3     404.3
170.       13.615      1681.4     434.2
170.       13.625      1233.1     371.9
170.       13.635      1343.6     387.9
170.       13.645       335.9     194.0
170.       13.655      1455.7     403.8
170.       13.665      1903.8     461.8
170.       13.675      2799.3     560.0
170.       13.685      5038.6     751.5
170.       13.695      4591.8     717.5
170.       13.705      1903.7     461.8
170.       13.715      2239.5     500.9
170.       13.725      2800.2     560.2
170.       13.735      3360.0     613.7
170.       13.745      2800.0     560.2
170.       13.755      3807.4     653.2
170.       13.765      7280.1     903.7
170.       13.775      9294.4    1021.2
170.       13.785     12431.9    1181.6
170.       13.795     14111.0    1259.0
170.       13.805     13885.3    1248.8
170.       13.815     16909.2    1378.6
170.       13.825     20604.7    1522.4
170.       13.835     21612.7    1559.4
170.       13.845     25060.5    1679.0
170.       13.855     34626.9    1977.3
170.       13.865     28495.7    1846.5
170.       13.865     36759.8    2037.9
170.       13.875     30738.3    1863.2
170.       13.875     37984.0    2071.6
170.       13.885     31169.0    3571.1
170.       13.895     31800.5    1845.2
170.       13.895     38433.0    2083.9
170.       13.905     37533.8    2005.6
170.       13.915     34680.6    1927.7
170.       13.925     32615.5    1867.8
170.       13.935     35065.7    1937.4
170.       13.945     26991.4    1698.4
170.       13.955     25177.6    1639.8
170.       13.965     28871.2    1755.9
170.       13.975     26241.3    1720.8
170.       13.985     26005.1    2107.8
170.       13.995     19325.4    2162.4
170.       14.005     18936.7    1422.2
170.       14.015     11789.6    1120.4
170.       14.025     12233.3    1142.2
170.       14.035     10197.2    1041.9
170.       14.045      4673.1    1764.6
170.       14.055      1379.8     382.7
170.       14.065      1272.7     367.5
170.       14.075      1591.3     410.9
170.       14.095      5948.5     795.4
170.       14.105      6604.4     839.3
170.       14.115      8946.6     977.1
170.       14.125     12244.9    1143.3
170.       14.135     12128.6    1137.4
170.       14.145     13613.1    1205.0
170.       14.155     13820.7    1213.9
170.       14.175     16368.2    1321.2
170.       14.185     15920.0    1302.0
170.       14.195     15426.6    1283.2
170.       14.205     16603.3    1331.6
170.       14.215     16570.1    1329.0
170.       14.225     19445.1    1440.3
170.       14.235     16472.0    1325.3
170.       14.245     15182.3    1271.6
170.       14.255     15188.4    1272.1
170.       14.265     12137.1    1138.2
170.       14.275     12008.7    1131.1
170.       14.285      8495.8     950.7
170.       14.295      4789.2     714.3
170.       14.305      3726.5     630.1
170.       14.315      1808.6     438.7
170.       14.325      1383.1     383.8
170.       14.333       114.5     114.5
170.       14.335       425.3     212.6
170.       14.345       212.5     150.2
170.       14.353       572.4     256.0
170.       14.355       318.9     184.1
170.       14.365       437.2     218.6
170.       14.373       457.8     228.9
170.       14.375      1273.8     367.8
170.       14.385       742.7     462.5
170.       14.393       686.8     280.4
170.       14.395       636.6     259.9
170.       14.403      2175.1     499.1
170.       14.413      3090.5     594.9
170.       14.423      3434.1     627.2
170.       14.433      5037.2     759.8
170.       14.443      4235.8     696.7
170.       14.453      5380.6     785.3
170.       14.463      3892.4     667.8
170.       14.473      2633.6     549.3
170.       14.493      2861.3     572.4
170.       14.503      3548.5     637.6
170.       14.513      4922.3     751.0
170.       14.523      6524.4     864.7
170.       14.533      4921.6     750.9
170.       14.543      7210.1     909.0
170.       14.553      6409.0     857.0
170.       14.563      6867.0     887.1
170.       14.573      7555.2     930.7
170.       14.583      7097.4     902.0
170.       14.593      8013.1     958.5
170.       14.603      6067.5     833.9
170.       14.623      8015.9     958.9
170.       14.633      6984.3     894.9
170.       14.643      6640.9     872.6
170.       14.653      7004.2     912.5
170.       14.663      5151.2     768.3
170.       14.673      3090.5     595.0
170.       14.683      2862.7     572.7
170.       14.693      2060.9     485.9
170.       14.703      1488.1     412.8
170.       14.713      1831.7     458.0
170.       14.723       915.8     323.8
170.       14.733      1831.7     458.0
170.       14.738      2688.7     537.9
170.       14.743      2977.5     584.1
170.       14.748      3442.1     608.7
170.       14.753      1374.0     396.7
170.       14.758      3765.9     636.8
170.       14.763      1259.5     379.8
170.       14.768      5165.3     746.0
170.       14.773      1488.6     412.9
170.       14.778      7098.9     874.5
170.       14.788      7744.7     913.5
170.       14.793      7444.3     924.0
170.       14.798      9033.3     986.6
170.       14.808     10003.2    1038.4
170.       14.818     10754.3    1076.7
170.       14.828     12044.1    1139.5
170.       14.838     10538.5    1065.7
170.       14.848     11613.2    1118.9
170.       14.858     12366.1    1154.7
170.       14.868     11613.9    1118.9
170.       14.878     10537.1    1065.6
170.       14.888      7526.5     900.3
170.       14.898      6021.7     805.2
170.       14.908      6128.9     812.3
170.       14.918      5484.2     768.4
170.       14.928      6021.9     805.2
170.       14.938      5807.0     790.7
170.       14.948     10215.8    1049.3
170.       14.958      7957.5     925.8
170.       14.968      8817.6     974.7
170.       14.978     10646.0    1071.2
170.       14.988     10001.4    1038.2
170.       14.998     12259.6    1149.7
170.       15.008     14732.4    1260.7
170.       15.018     17421.1    1371.3
170.       15.028     17525.7    1375.3
170.       15.038     13548.3    1208.7
170.       15.048     15162.3    1279.0
170.       15.058     17635.3    1379.7
170.       15.068     15273.1    1283.8
170.       15.078     15808.5    1306.1
170.       15.088     14303.5    1242.2
170.       15.098     12582.5    1164.8
170.       15.108     10539.0    1065.8
170.       15.118      6667.9     847.4
170.       15.128      8389.0     950.7
170.       15.138      9464.4    1009.9
170.       15.148      8711.3     968.8
170.       15.158      9140.4     992.4
170.       15.168     10323.1    1054.8
170.       15.178     10970.0    1087.5
170.       15.188      9357.1    1004.2
170.       15.198      8065.5     932.1
170.       15.208     10109.0    1043.8
170.       15.218     12473.8    1159.7
170.       15.228     10968.5    1087.3
170.       15.238     11720.9    1124.1
170.       15.248      9462.1    1009.7
170.       15.258      9248.5     998.3
170.       15.268      9032.4     986.5
170.       15.278     10000.0    1038.1
170.       15.288     12151.0    1144.6
170.       15.298     13117.2    1189.2
170.       15.308      9784.2    1026.7
170.       15.318      9568.7    1015.3
170.       15.328     11075.1    1092.6
170.       15.338     11397.8    1108.4
170.       15.341     14145.2    1145.5
170.       15.348     12690.2    1169.8
170.       15.351     13221.4    1107.4
170.       15.361     17659.0    1280.5
170.       15.368     20967.4    1504.9
170.       15.371     23205.6    1468.8
170.       15.381     25054.0    1526.5
170.       15.391     23483.5    1477.7
170.       15.401     24038.4    1495.1
170.       15.411     21911.3    1427.1
170.       15.421     15809.8    1211.3
170.       15.431     16179.0    1225.4
170.       15.441     13405.5    1115.1
170.       15.451     14884.0    1175.1
170.       15.461     12757.5    1087.7
170.       15.471     14421.6    1156.7
170.       15.481     10261.1     975.2
170.       15.491     11185.1    1018.2
170.       15.501      8505.0     887.6
170.       15.511      7210.6     817.2
170.       15.521      4437.4     640.8
170.       15.531      4806.8     667.0
170.       15.541      4159.8     620.4
170.       15.551      4899.6     673.4
170.       15.561      3235.9     547.2
170.       15.571      2588.7     489.4
170.       15.581      1849.0     413.5
170.       15.591       924.4     292.4
170.       15.601       554.7     226.5
170.       15.611       554.8     226.5
170.       15.621       462.3     206.7
170.       15.631       462.3     206.8
170.       15.641       184.9     130.7
170.       15.651       832.1     277.4
170.       15.661      1201.9     333.4
170.       15.671      1756.6     403.1
170.       15.681      2496.2     480.5
170.       15.691      1941.5     423.8
170.       15.711      5362.4     704.6
170.       15.721      7303.7     822.5
170.       15.731      8875.4     906.8
170.       15.741      7212.3     817.3
170.       15.751     11002.3    1009.9
170.       15.761      9420.3     933.8
170.       15.771     11834.1    1047.5
170.       15.781     10902.7    1005.0
170.       15.791      9152.9     920.9
170.       15.801      9152.6     920.9
170.       15.811     10909.0    1005.6
170.       15.821     11081.0    1012.9
170.       15.831     13498.7    1119.0
170.       15.841     12851.6    1091.8
170.       15.851     15995.7    1218.5
170.       15.861     11741.6    1043.4
170.       15.871     10736.7     998.2
170.       15.881      8138.3     868.4
170.       15.891      7026.4     806.7
170.       15.901      4437.8     640.9
170.       15.911      5640.1     722.6
170.       15.921      3509.2     569.5
170.       15.931      2956.9     522.9
170.       15.941      3883.7     599.5
170.       15.951      4345.8     634.2
170.       15.961      4802.1     666.3
170.       15.971      3970.0     605.7
170.       15.981      5540.4     715.7
170.       15.991      4804.3     666.6
170.       16.001      5270.3     698.5
170.       16.011      3606.2     577.7
170.       16.021      3143.9     539.4
170.       16.031      2404.4     471.7
170.       16.041      1202.2     333.5
170.       16.051      1941.9     423.9
170.       16.061      1477.4     369.4
170.       16.071      1757.0     403.2
170.       16.081       832.1     277.4
170.       16.091      1386.9     358.2
170.       16.101      1202.0     333.4
170.       16.111      1664.2     392.3
170.       16.121      1292.9     345.6
170.       16.131      1294.3     346.0
170.       16.141      2773.6     506.6
170.       16.151      2311.4     462.4
170.       16.161      2124.0     443.0
170.       16.171      3328.4     555.0
170.       16.181      4715.1     660.6
170.       16.191      3513.2     570.2
170.       16.201      5084.9     686.1
170.       16.211      3143.3     539.3
170.       16.221      1756.6     403.1
170.       16.231      1292.6     345.5
170.       16.241       461.7     206.5
170.       16.251       646.2     244.3
170.       16.257      2146.3     601.5
170.       16.261       554.0     226.2
170.       16.267      3317.2     690.1
170.       16.271       924.5     292.4
170.       16.277      3707.3     676.1
170.       16.287      3609.5     069.0
170.       16.297      3609.7     669.0
170.       16.307      4388.9     723.6
170.       16.317      5462.5     730.4
170.       16.327      6925.8     845.4
170.       16.337      8681.4     941.5
170.       16.347      7123.4     856.9
170.       16.357      5855.1     862.3
170.       16.367      0635.1     905.4
170.       16.377      3903.2     743.4
170.       16.387      1365.7     477.9
170.       16.397      2048.3     543.2
170.       16.407      3124.6     884.3
170.       16.417      1953.0     552.5
170.       16.427      2148.2     534.9
170.       16.437      2538.3     569.4
170.       16.447      2147.6     516.6
170.       16.457      2147.7     516.7
170.       16.467      3318.9     617.6
170.       16.477      3026.3     594.0
170.       16.487      3123.9     602.0
170.       16.497      4881.2     730.9
170.       16.507      6637.1     805.5
170.       16.517      5665.6     744.4
170.       16.527      5958.9     763.5
170.       16.537      8501.1     912.3
170.       16.547     10357.0    1007.1
170.       16.557      8798.0     928.3
170.       16.567      9864.9     982.7
170.       16.577     10262.8    1002.7
170.       16.587      9988.6     990.1
170.       16.597      8813.8     930.0
170.       16.607      6850.5     819.4
170.       16.617      6166.4     777.4
170.       16.627      6949.9     825.4
170.       16.637      6264.6     783.6
170.       16.647      5580.8     739.6
170.       16.657      3915.4     619.3
170.       16.667      6070.6     771.5
170.       16.677      4406.1     657.1
170.       16.687      4600.7     671.4
170.       16.697      4699.7     678.7
170.       16.707      5972.8     765.2
170.       16.717      6852.5     819.6
170.       16.727      7245.7     843.0
170.       16.737      8030.5     887.6
170.       16.747      8075.0     898.0
170.       16.757      7250.0     849.2
170.       16.767      6962.5     826.9
170.       16.777     10005.3     991.8
170.       16.787     13072.9    1139.5
170.       16.797     12375.5    1117.3
170.       16.807     10257.1    1026.8
170.       16.817      9434.0     984.5
170.       16.827      8554.7     928.7
170.       16.837      6162.0     783.1
170.       16.847      7462.9     862.4
170.       16.857      7112.6     863.2
170.       16.867      5619.8     751.4
170.       16.877      6521.1     803.3
170.       16.887      6744.4     824.5
170.       16.897      7426.0     942.0
170.       16.907      6156.5    1013.1
170.       16.917      3577.4     877.8
170.       16.927      6891.6    1069.9
170.       16.937      5537.1     927.9
170.       16.947      5829.6     759.4
170.       16.957      6123.6     778.2
170.       16.967      5968.0     764.6
170.       16.977      3625.0     596.2
170.       16.987      5672.0     745.2
170.       16.997      4303.9     649.1
170.       17.007      3815.8     611.3
170.       17.037      3814.0     611.0
170.       17.047      3227.1     562.0
170.       17.057      2249.2     469.1
170.       17.067      4106.9     634.0
170.       17.077      2640.0     508.2
170.       17.087      4204.6     641.5
170.       17.097      5378.1     725.6
170.       17.104      4521.9     540.9
170.       17.107      5182.0     712.2
170.       17.114      4656.7     776.4
170.       17.124      5945.7     877.1
170.       17.127      3813.9     611.0
170.       17.134      5166.0     817.2
170.       17.137      5091.4     706.4
170.       17.144      4258.0     741.5
170.       17.154      2841.8     606.0
170.       17.164      2082.7     520.8
170.       17.174      2972.6     620.0
170.       17.184      1679.1     465.8
170.       17.194      1550.4     447.6
170.       17.204      1678.7     465.7
170.       17.214      1807.1     483.1
170.       17.224      1938.0     500.5
170.       17.234      1419.9     428.2
170.       17.244      2326.5     548.5
170.       17.254      1810.4     483.9
170.       17.264      1034.2     365.7
170.       17.274      2844.9     606.7
170.       17.284      2069.0     517.3
170.       17.294      2844.9     606.7
170.       17.304      3102.7     633.5
170.       17.314      2233.3     576.7
170.       17.324      2195.8     532.7
170.       17.334      2584.6     578.1
170.       17.344      1809.0     483.6
170.       17.354      3359.7     659.1
170.       17.364      3358.3     658.8
170.       17.374      3871.3     708.1
170.       17.383      1995.8     283.5
170.       17.384      3230.7     646.3
170.       17.393      2337.3     277.5
170.       17.394      2112.5     592.1
170.       17.403      3065.0     318.1
170.       17.404      2842.6     606.2
170.       17.413      2538.9     289.5
170.       17.414      4262.7     742.3
170.       17.423      2869.9     307.9
170.       17.424      3487.6     671.4
170.       17.433      3659.6     347.7
170.       17.434      3617.6     683.9
170.       17.443      3422.4     329.6
170.       17.444      5166.7     817.3
170.       17.453      4840.8     399.7
170.       17.454      4520.9     764.5
170.       17.463      4369.8     379.3
170.       17.464      5939.5     816.2
170.       17.473      5469.6     425.1
170.       17.474      6067.3     885.5
170.       17.483      3788.4     353.6
170.       17.484      4908.3     796.6
170.       17.493      4513.0     386.0
170.       17.503      2865.9     307.5
170.       17.504      6587.5     923.0
170.       17.513      2734.1     300.3
170.       17.523      3030.6     316.2
170.       17.524      5683.5     857.3
170.       17.533      2668.1     296.7
170.       17.543      3063.4     317.9
170.       17.544      4908.5     796.6
170.       17.553      1811.7     244.4
170.       17.563      1350.5     211.0
170.       17.564      3360.6     659.3
170.       17.573      1021.1     183.4
170.       17.583       922.3     174.3
170.       17.584      1937.5     500.4
170.       17.593      1054.1     186.4
170.       17.603       988.2     180.5
170.       17.613      1251.7    203.1
170.       17.623      1054.1    186.4
170.       17.633      1317.6    208.4
170.       17.643      1218.8    200.4
170.       17.653      1350.5    211.0
170.       17.663      1284.6    205.8
170.       17.673      1218.8    200.4
170.       17.693      1218.9    115.8
170.       17.703      1405.7    124.4
170.       17.723      1361.8    122.4
170.       17.743      1241.1    116.9
170.       17.763      1372.9    122.9
170.       17.783       834.7     95.8
170.       17.803       944.5    101.9
170.       17.823      1998.9    148.4
170.       17.843      3009.3    182.2
170.       17.863      4623.7    226.1
170.       17.883      3931.9    208.4
170.       17.903      2712.8    173.0
170.       17.923      2152.8    154.0
170.       17.943      2119.9    152.8
170.       17.963      2658.1    171.2
170.       17.983      2581.1    168.7
170.       18.003      2218.7    156.4
170.       18.023      2207.6    156.0
170.       18.043      1999.1    148.4
170.       18.063      1515.8    129.2
170.       18.083      1614.6    133.3
170.       18.103      1351.0    121.9
170.       18.123      1120.3    111.0
170.       18.143       450.3     70.4
170.       18.163        98.9     33.0
170.       18.223       670.0     85.8
170.       18.243      1482.8    127.8
170.       18.263      2174.8    154.8
170.       18.283      2713.2    173.0
170.       18.303      3976.1    209.6
170.       18.323      4799.9    230.4
170.       18.343      4415.8    221.0
170.       18.363      4163.2    214.5
170.       18.383      4580.5    225.1
170.       18.403      3800.8    204.9
170.       18.423      4207.2    215.7
170.       18.443      4570.0    224.8
170.       18.472      4862.7    244.6
170.       18.492      4875.4    249.9
170.       18.512      4874.5    250.2
170.       18.532      7725.6    312.4
170.       18.552      8498.2    326.5
170.       18.572      9511.3    345.8
170.       18.592     11126.1    373.8
170.       18.612     11257.6    377.4
170.       18.632     11399.3    378.6
170.       18.652     10101.7    357.0
170.       18.672      7616.6    311.0
170.       18.692      6710.2    299.9
170.       18.712      4649.0    245.0
170.       18.732      3337.8    209.6
170.       18.752      2524.6    182.8
170.       18.772      2524.4    175.3
170.       18.792      2451.7    172.8
170.       18.812      3240.6    199.5
170.       18.832      3969.0    220.7
170.       18.852      4782.3    243.5
170.       18.872      5328.2    256.9
170.       18.882      4211.6    228.1
170.       18.892      3750.2    215.9
170.       18.902      3228.4    200.6
170.       18.912      1966.5    157.5
170.       18.922      1626.3    143.8
170.       18.932      1092.3    115.2
170.       18.942       910.3    105.2
170.       18.952       437.0     72.9
170.       18.962       339.9     64.2
170.       18.972        36.4     21.0
170.       18.982       522.0     79.6
170.       18.992       522.0     79.6
170.       19.002       570.5     97.9
170.       19.012       376.3     85.0
170.       19.022       424.8     88.4
170.       19.032       473.4     86.7
170.       19.042       521.9     80.0
170.       19.052       497.7     88.4
170.       19.062       558.4     92.5
170.       19.072       632.2     97.3
170.       19.082       595.8     95.0
170.       19.092       558.3     92.5
170.       19.102      1104.5    123.3
170.       19.112      1505.2    141.7
170.       19.122      2008.9    162.2
170.       19.132      1775.9    166.3
170.       19.142      2068.1    181.4
170.       19.152      2829.7    199.7
170.       19.162      3295.1    214.5
ENDDATA            894
ENDSUBENT          902
SUBENT        C1226003   20050525   20050801                  C074
BIB                  4          4
REACTION   (10-NE-22(A,INL)10-NE-22,PAR,DA)
EN-SEC     (Q-VAL,10-NE-22)
ERR-ANALYS (DATA-ERR) No information
STATUS     Data received from author
ENDBIB               4
NOCOMMON             0          0
DATA                 5       2171
Q-VAL      ANG        EN         DATA       DATA-ERR
MEV        ADEG       MEV        MB/SR      MB/SR
1.2746      45.       16.257      5654.8     349.9
1.2746      45.       16.267      5420.1     343.7
1.2746      45.       16.277      5131.1     333.0
1.2746      45.       16.287      5294.0     337.5
1.2746      45.       16.297      4300.1     312.5
1.2746      45.       16.307      5238.0     338.8
1.2746      45.       16.317      4913.2     329.9
1.2746      45.       16.327      5527.8     346.5
1.2746      45.       16.337      5636.7     349.4
1.2746      45.       16.347      6397.3     368.9
1.2746      45.       16.357      6398.0     377.7
1.2746      45.       16.367      6109.0     375.0
1.2746      45.       16.377      7212.3     405.2
1.2746      45.       16.387      6938.4     414.9
1.2746      45.       16.397      6359.6     417.8
1.2746      45.       16.407      7920.4     451.0
1.2746      45.       16.417      7468.8     441.7
1.2746      45.       16.427      7812.5     442.2
1.2746      45.       16.437      6890.0     422.6
1.2746      45.       16.447      6944.1     407.2
1.2746      45.       16.457      6727.0     423.7
1.2746      45.       16.467      5913.1     405.7
1.2746      45.       16.477      6618.0     422.1
1.2746      45.       16.487      7305.6     423.1
1.2746      45.       16.497      7016.8     411.3
1.2746      45.       16.507      6980.2     410.5
1.2746      45.       16.517      7142.5     425.0
1.2746      45.       16.527      6600.4     401.9
1.2746      45.       16.537      7541.0     428.2
1.2746      45.       16.547      6203.1     398.5
1.2746      45.       16.557      6402.2     403.1
1.2746      45.       16.567      5931.5     392.2
1.2746      45.       16.577      5027.1     364.2
1.2746      45.       16.587      4638.9     354.8
1.2746      45.       16.597      4348.9     347.2
1.2746      45.       16.607      4638.5     354.8
1.2746      45.       16.617      4439.1     349.6
1.2746      45.       16.627      3823.1     333.1
1.2746      45.       16.637      4548.3     352.5
1.2746      45.       16.647      4566.4     360.3
1.2746      45.       16.657      4276.3     352.9
1.2746      45.       16.667      3968.4     344.8
1.2746      45.       16.677      4004.6     345.7
1.2746      45.       16.687      4221.8     351.4
1.2746      45.       16.697      4095.2     348.1
1.2746      45.       16.707      4384.9     330.8
1.2746      45.       16.717      4710.9     339.7
1.2746      45.       16.727      5343.3     358.1
1.2746      45.       16.737      5162.5     353.5
1.2746      45.       16.747      5615.4     365.0
1.2746      45.       16.757      5651.8     358.7
1.2746      45.       16.767      5779.2     362.0
1.2746      45.       16.777      5508.3     365.1
1.2746      45.       16.787      5597.9     367.3
1.2746      45.       16.797      5344.7     360.9
1.2746      45.       16.807      5326.4     360.5
1.2746      45.       16.817      5689.1     369.6
1.2746      45.       16.827      5272.6     359.1
1.2746      45.       16.837      4420.4     336.6
1.2746      45.       16.847      4927.9     350.2
1.2746      45.       16.857      4493.1     338.6
1.2746      45.       16.867      4276.3     342.5
1.2746      45.       16.877      4910.0     359.0
1.2746      45.       16.887      3786.8     316.9
1.2746      45.       16.897      4167.6     327.7
1.2746      45.       16.907      4748.8     343.6
1.2746      45.       16.917      4911.2     347.9
1.2746      45.       16.927      5853.8     377.2
1.2746      45.       16.937      5835.5     368.8
1.2746      45.       16.947      5398.6     357.7
1.2746      45.       16.957      5923.6     366.5
1.2746      45.       16.967      5922.5     370.9
1.2746      45.       16.977      5923.4     354.6
1.2746      45.       16.987      6378.4     366.3
1.2746      45.       16.997      6652.0     373.2
1.2746      45.       17.007      5618.1     346.7
1.2746      45.       17.037      6087.2     350.6
1.2746      45.       17.047      5815.4     343.4
1.2746      45.       17.057      5562.8     358.3
1.2746      45.       17.067      5418.3     354.6
1.2746      45.       17.077      4800.8     330.3
1.2746      45.       17.087      4710.6     327.9
1.2746      45.       17.097      4511.5     327.3
1.2746      45.       17.104      4389.5     295.4
1.2746      45.       17.107      4039.8     323.1
1.2746      45.       17.114      5120.2     422.0
1.2746      45.       17.117      3732.7     303.7
1.2746      45.       17.124      3564.6     374.9
1.2746      45.       17.127      2880.6     276.9
1.2746      45.       17.134      3947.2     398.6
1.2746      45.       17.137      3501.0     296.9
1.2746      45.       17.144      3489.1     362.8
1.2746      45.       17.154      3827.5     395.0
1.2746      45.       17.164      4736.8     421.8
1.2746      45.       17.174      4138.9     404.4
1.2746      45.       17.184      3779.9     405.0
1.2746      45.       17.194      4187.1     417.0
1.2746      45.       17.204      3971.5     410.7
1.2746      45.       17.214      3302.8     399.4
1.2746      45.       17.224      2848.7     400.1
1.2746      45.       17.234      3253.8     411.9
1.2746      45.       17.244      2535.8     359.8
1.2746      45.       17.254      2273.7     351.1
1.2746      45.       17.264      2896.2     371.8
1.2746      45.       17.274      3135.7     379.5
1.2746      45.       17.284      3207.8     381.8
1.2746      45.       17.294      3782.9     393.8
1.2746      45.       17.304      3710.1     391.5
1.2746      45.       17.314      3863.4     438.5
1.2746      45.       17.324      3591.1     399.5
1.2746      45.       17.334      4189.5     417.2
1.2746      45.       17.344      3806.7     406.0
1.2746      45.       17.354      3639.3     377.5
1.2746      45.       17.364      4285.8     397.6
1.2746      45.       17.374      3949.7     387.2
1.2746      45.       17.383      6177.7     478.8
1.2746      45.       17.384      3590.6     396.6
1.2746      45.       17.393      3953.2     474.2
1.2746      45.       17.394      4404.4     420.6
1.2746      45.       17.403      4337.3     493.3
1.2746      45.       17.404      4620.3     426.8
1.2746      45.       17.413      4147.2     493.4
1.2746      45.       17.414      3016.5     366.5
1.2746      45.       17.423      4195.2     495.7
1.2746      45.       17.424      4405.2     409.7
1.2746      45.       17.433      4049.0     488.4
1.2746      45.       17.434      4117.7     401.1
1.2746      45.       17.443      2750.2     405.0
1.2746      45.       17.444      4045.6     406.0
1.2746      45.       17.453      3668.6     464.6
1.2746      45.       17.454      3973.8     403.9
1.2746      45.       17.463      3280.1     443.6
1.2746      45.       17.473      2765.5     415.8
1.2746      45.       17.474      3565.0     391.3
1.2746      45.       17.483      2907.8     423.9
1.2746      45.       17.484      2682.2     363.4
1.2746      45.       17.493      2955.3     426.5
1.2746      45.       17.503      2765.0     415.8
1.2746      45.       17.504      2586.1     360.2
1.2746      45.       17.513      2288.1     330.4
1.2746      45.       17.523      2097.3     369.3
1.2746      45.       17.524      2226.4     336.2
1.2746      45.       17.533      2478.7     393.2
1.2746      45.       17.543      2383.3     387.4
1.2746      45.       17.544      2585.4     348.8
1.2746      45.       17.553      2907.6     418.4
1.2746      45.       17.563      3050.7     426.5
1.2746      45.       17.564      2658.5     351.4
1.2746      45.       17.573      2478.6     393.2
1.2746      45.       17.583      2955.3     421.2
1.2746      45.       17.584      2467.2     344.8
1.2746      45.       17.593      2431.0     390.3
1.2746      45.       17.603      2669.1     404.6
1.2746      45.       17.613      2716.8     407.4
1.2746      45.       17.623      3431.9     447.4
1.2746      45.       17.633      2240.2     378.4
1.2746      45.       17.643      3288.7     439.6
1.2746      45.       17.653      3193.5     434.4
1.2746      45.       17.663      3288.7     439.6
1.2746      45.       17.673      1954.1     359.9
1.2746      45.       17.683      3417.0     253.2
1.2746      45.       17.703      3242.8     246.6
1.2746      45.       17.723      3529.7     264.5
1.2746      45.       17.743      3515.0     264.1
1.2746      45.       17.763      4087.8     281.0
1.2746      45.       17.783      3435.7     258.8
1.2746      45.       17.803      4230.8     284.1
1.2746      45.       17.823      4262.6     285.0
1.2746      45.       17.843      4628.6     295.2
1.2746      45.       17.863      4660.1     296.0
1.2746      45.       17.883      4803.6     303.3
1.2746      45.       17.903      4437.9     293.4
1.2746      45.       17.923      4597.1     297.8
1.2746      45.       17.943      3706.4     269.9
1.2746      45.       17.963      3261.0     256.3
1.2746      45.       17.983      2608.6     235.1
1.2746      45.       18.003      2926.7     245.7
1.2746      45.       18.023      2067.8     212.4
1.2746      45.       18.043      2576.8     230.7
1.2746      45.       18.063      2418.1     225.2
1.2746      45.       18.073      2656.6     233.5
1.2746      45.       18.103      2592.7     239.9
1.2746      45.       18.123      1940.5     255.6
1.2746      45.       18.143      1733.8     249.1
1.2746      45.       18.163      1495.3     241.3
1.2746      45.       18.183      1383.9     215.3
1.2746      45.       18.203      1447.6     212.9
1.2746      45.       18.223       875.0     259.0
1.2746      45.       19.132      2226.4     304.4
1.2746      45.       19.142      2357.4     321.4
1.2746      45.       19.152      2917.0     322.7
1.2746      45.       19.162      2678.9     291.5
1.2746      45.       19.172      2369.9     281.8
1.2746      45.       19.182      2773.2     294.6
1.2746      45.       19.192      2791.2     303.0
1.2746      45.       19.202      2750.5     301.5
1.2746      45.       19.212      1823.1     305.5
1.2746      45.       19.222      1399.9     292.4
1.2746      45.       19.232      1877.7     300.3
1.2746      45.       19.242      1702.8     293.6
1.2746      45.       19.252      1957.6     292.3
1.2746      45.       19.262      1739.4     285.5
1.2746      45.       19.272       989.6     260.5
1.2746      45.       19.282      1485.6     277.6
1.2746      45.       19.292      1705.7     284.8
1.2746      45.       19.302      2423.8     273.8
1.2746      45.       19.312      1267.3     284.0
1.2746      45.       19.322      1687.3     310.2
1.2746      45.       19.332      1173.4     294.5
1.2746      45.       19.342      1411.1     289.2
1.2746      45.       19.352      1430.3     280.6
1.2746      45.       19.362      1081.8     268.9
1.2746      45.       19.372      1594.4     295.0
1.2746      45.       19.382      1191.1     264.9
1.2746      45.       19.392       934.5     250.6
1.2746      45.       19.402      1172.5     259.1
1.2746      45.       19.412      1117.2     249.1
1.2746      45.       19.422      1502.1     263.0
1.2746      45.       19.432      1062.4     233.2
1.2746      45.       19.442       641.1     216.0
1.2746      45.       19.452      1355.3     247.1
1.2746      45.       19.462      1025.3     234.5
1.2746      45.       19.472      1226.6     242.2
1.2746      45.       19.482      1336.2     246.3
1.2746      45.       19.492      1428.5     253.8
1.2746      45.       19.502      1063.0     240.4
1.2746      45.       19.512      1117.6     242.4
1.2746      45.       19.522      1392.4     252.6
1.2746      45.       19.532      1370.7     251.3
1.2746      45.       19.542      1529.9     258.8
1.2746      45.       19.552      1847.3     263.9
1.2746      45.       19.562      2088.0     282.2
1.2746      45.       19.572      1552.9     264.1
1.2746      45.       19.582      1976.9     295.1
1.2746      45.       19.592      1694.5     286.3
1.2746      45.       19.602      1313.0     247.5
1.2746      45.       19.612      1425.9     251.9
1.2746      45.       19.622      1501.8     255.0
1.2746      45.       19.632      1482.1     254.1
1.2746      45.       19.642       759.4     261.3
1.2746      45.       19.652      1373.1     242.0
1.2746      45.       19.662      1364.7     228.6
1.2746      45.       19.672      1194.7     222.5
1.2746      45.       19.682      1379.6     228.8
1.2746      45.       19.692      1603.2     237.1
1.2746      45.       19.702      1259.6     203.5
1.2746      45.       19.712      1662.8     220.6
1.2746      45.       19.722      1192.6     227.4
1.2746      45.       19.732      1457.9     246.7
1.2746      45.       19.742      1281.5     240.0
1.2746      45.       19.752      1511.9     248.9
1.2746      45.       19.762      1491.3     247.7
1.2746      45.       19.772      1697.6     232.5
1.2746      45.       19.782      1907.1     240.4
1.2746      45.       19.792      1524.0     225.9
1.2746      45.       19.802      1039.1     225.8
1.2746      45.       19.812      1369.5     253.1
1.2746      45.       19.822      1577.6     243.4
1.2746      45.       19.832      1470.9     239.2
1.2746      45.       19.842      1539.3     224.9
1.2746      45.       19.852      1519.5     223.9
1.2746      45.       19.862      1743.7     232.4
1.2746      45.       19.872      1416.1     219.9
1.2746      45.       19.882      1658.1     243.1
1.2746      45.       19.892      1966.9     244.1
1.2746      45.       19.902      1547.7     228.2
1.2746      45.       19.912      1866.9     255.3
1.2746      45.       19.922      1909.1     248.8
1.2746      45.       19.932      1817.4     230.4
1.2746      45.       19.942      2128.6     253.9
1.2746      45.       19.952      1883.9     239.0
1.2746      45.       19.962      2074.8     245.9
1.2746      45.       19.972      1694.8     232.1
1.2746      45.       19.982      2197.9     250.3
1.2746      45.       19.992      2024.5     244.2
1.2746      45.       20.002      2575.2     262.9
1.2746      45.       20.012      2853.9     272.1
1.2746      45.       20.022      2627.1     264.6
1.2746      45.       20.032      2315.4     254.1
1.2746      45.       20.042      2351.8     255.5
1.2746      45.       20.052      1781.6     249.0
1.2746      45.       20.062      1764.1     248.3
1.2746      45.       20.072      1884.6     252.4
1.2746      45.       20.082      2126.0     260.5
1.2746      45.       20.092      2469.1     271.5
1.2746      45.       20.102      2109.7     260.1
1.2746      45.       20.112      2231.8     264.2
1.2746      45.       20.122      2558.7     274.6
1.2746      45.       20.132      1884.8     252.5
1.2746      45.       20.142      2177.9     262.3
1.2746      45.       20.152      2211.6     263.3
1.2746      45.       20.162      1816.0     250.1
1.2746      45.       20.172      1865.2     251.6
1.2746      45.       20.182      1711.5     255.9
1.2746      45.       20.192      1794.6     258.4
1.2746      45.       20.202      1817.0     259.7
1.2746      45.       20.212      1835.4     268.3
1.2746      45.       20.222      1817.5     267.7
1.2746      45.       20.232      1851.6     268.7
1.2746      45.       20.242      1575.2     259.7
1.2746      45.       20.252      1590.3     259.9
1.2746      45.       20.262      1608.5     260.7
1.2746      45.       20.272      1660.5     262.4
1.2746      45.       20.282      2092.3     276.2
1.2746      45.       20.292      1210.5     247.0
1.2746      45.       20.302      1728.0     264.4
1.2746      45.       20.312      1762.1     263.2
1.2746      45.       20.322      1883.2     276.0
1.2746      45.       20.332      1676.8     259.4
1.2746      45.       20.342      1901.6     266.8
1.2746      45.       20.352      2160.5     283.6
1.2746      45.       20.362      2194.2     284.5
1.2746      45.       20.372      1742.0     270.1
1.2746      45.       20.382      1934.1     276.4
1.2746      45.       20.392      1935.7     276.6
1.2746      45.       20.402      2108.4     282.0
1.2746      45.       20.412      1763.4     253.0
1.2746      45.       20.422      1643.2     248.9
1.2746      45.       20.432      1556.1     245.8
1.2746      45.       20.442      2056.7     278.3
1.2746      45.       20.452      1685.9     258.7
1.2746      45.       20.462      1464.6     251.5
1.2746      45.       20.472      1632.8     258.9
1.2746      45.       20.482      1951.5     270.0
1.2746      45.       20.492      1309.3     248.8
1.2746      45.       20.502      1467.7     254.5
1.2746      45.       20.512      1588.6     258.4
1.2746      45.       20.522      2060.2     274.0
1.2746      45.       20.532      1834.4     266.8
1.2746      45.       20.542      1570.0     246.8
1.2746      45.       20.552      2247.5     269.5
1.2746      45.       20.562      1955.2     260.2
1.2746      45.       20.572      1968.0     260.2
1.2746      45.       20.582      1675.9     250.7
1.2746      45.       20.592      1745.3     253.0
1.2746      45.       20.602      2111.9     265.4
1.2746      45.       20.612      2126.6     265.6
1.2746      45.       20.622      1776.0     253.6
1.2746      45.       20.632      1672.7     250.2
1.2746      45.       20.642      1843.9     255.8
1.2746      45.       20.652      2102.8     264.3
1.2746      45.       20.662      1789.7     261.9
1.2746      45.       20.672      1547.3     264.3
1.2746      45.       20.682      1735.5     270.1
1.2746      45.       20.692      1632.0     266.8
1.2746      45.       20.702      1977.7     272.2
1.2746      45.       20.712      1526.7     257.4
1.2746      45.       20.722      1319.1     250.4
1.2746      45.       20.732      1891.3     269.5
1.2746      45.       20.742      1680.2     252.9
1.2746      45.       20.752      1521.3     247.0
1.2746      45.       20.762      1314.1     229.4
1.2746      45.       20.772      2090.3     266.1
1.2746      45.       20.782      1588.1     249.0
1.2746      45.       20.792      1588.0     249.0
1.2746      70.       13.415      2742.0     317.0
1.2746      70.       13.425      4633.1     403.0
1.2746      70.       13.435      3530.7     357.1
1.2746      70.       13.445      3467.0     351.4
1.2746      70.       13.455      4380.2     392.9
1.2746      70.       13.465      3400.3     351.0
1.2746      70.       13.475      3270.0     369.7
1.2746      70.       13.485      4185.7     387.3
1.2746      70.       13.495      5165.0     425.6
1.2746      70.       13.505      5095.9     420.4
1.2746      70.       13.515      6579.6     473.3
1.2746      70.       13.525      5699.6     445.1
1.2746      70.       13.535      6738.1     480.7
1.2746      70.       13.545      6108.5     459.5
1.2746      70.       13.555      6329.5     467.1
1.2746      70.       13.565      5666.6     439.4
1.2746      70.       13.575      6172.3     457.4
1.2746      70.       13.585      5070.4     417.4
1.2746      70.       13.595      5385.8     431.5
1.2746      70.       13.605      5450.0     433.9
1.2746      70.       13.615      6205.8     460.8
1.2746      70.       13.625      5324.1     429.3
1.2746      70.       13.635      5380.5     431.1
1.2746      70.       13.645      6325.2     464.6
1.2746      70.       13.655      5947.6     451.5
1.2746      70.       13.665      5381.7     431.2
1.2746      70.       13.675      5034.8     418.2
1.2746      70.       13.685      5726.9     443.7
1.2746      70.       13.695      5350.5     430.1
1.2746      70.       13.705      5759.0     444.9
1.2746      70.       13.715      5223.8     425.3
1.2746      70.       13.725      5130.9     421.9
1.2746      70.       13.735      5036.1     418.3
1.2746      70.       13.745      5256.5     426.6
1.2746      70.       13.755      5224.2     425.4
1.2746      70.       13.765      4501.2     397.5
1.2746      70.       13.775      5098.3     420.6
1.2746      70.       13.785      5665.7     441.6
1.2746      70.       13.795      5445.1     433.5
1.2746      70.       13.805      4972.4     415.9
1.2746      70.       13.815      4406.0     393.7
1.2746      70.       13.825      4500.5     391.5
1.2746      70.       13.835      3997.0     374.2
1.2746      70.       13.845      4810.7     407.0
1.2746      70.       13.855      3590.4     356.8
1.2746      70.       13.865      3496.3     323.7
1.2746      70.       13.865      3496.3     352.6
1.2746      70.       13.875      3617.0     329.3
1.2746      70.       13.875      3810.4     366.4
1.2746      70.       13.885      3677.5     332.0
1.2746      70.       13.895      3288.1     313.9
1.2746      70.       13.895      3054.7     332.1
1.2746      70.       13.905      3466.5     322.3
1.2746      70.       13.915      2661.0     282.3
1.2746      70.       13.925      2747.1     286.7
1.2746      70.       13.935      2568.4     277.2
1.2746      70.       13.945      2628.3     280.5
1.2746      70.       13.955      2717.1     285.1
1.2746      70.       13.965      3251.8     311.8
1.2746      70.       13.975      3463.8     322.0
1.2746      70.       13.985      3371.1     317.5
1.2746      70.       13.995      4357.3     361.2
1.2746      70.       14.005      4335.7     360.6
1.2746      70.       14.015      4358.5     361.3
1.2746      70.       14.025      4514.8     389.3
1.2746      70.       14.035      4269.3     379.4
1.2746      70.       14.055      5399.8     402.2
1.2746      70.       14.065      5902.5     420.4
1.2746      70.       14.075      4711.2     375.5
1.2746      70.       14.095      3851.5     360.0
1.2746      70.       14.105      4640.8     414.4
1.2746      70.       14.115      4760.0     418.6
1.2746      70.       14.125      5297.4     437.5
1.2746      70.       14.135      4904.4     427.7
1.2746      70.       14.145      4185.1     401.6
1.2746      70.       14.155      4452.5     411.4
1.2746      70.       14.175      3435.7     372.3
1.2746      70.       14.185      4236.2     403.0
1.2746      70.       14.195      4276.4     405.1
1.2746      70.       14.205      3171.2     361.8
1.2746      70.       14.215      3941.1     392.0
1.2746      70.       14.225      3673.8     381.7
1.2746      70.       14.235      3644.4     380.6
1.2746      70.       14.245      3730.5     383.8
1.2746      70.       14.255      3075.1     357.3
1.2746      70.       14.265      3202.2     365.6
1.2746      70.       14.275      2897.7     328.9
1.2746      70.       14.285      2806.1     324.5
1.2746      70.       14.295      2812.2     325.2
1.2746      70.       14.305      3142.6     340.3
1.2746      70.       14.315      3169.9     333.3
1.2746      70.       14.325      2573.2     305.4
1.2746      70.       14.335      2361.0     291.5
1.2746      70.       14.345      1762.0     258.8
1.2746      70.       14.355      2958.5     320.8
1.2746      70.       14.365      2673.3     312.1
1.2746      70.       14.375      3043.7     301.7
1.2746      70.       14.385      3221.3     310.3
1.2746      70.       14.395      3728.0     333.9
1.2746      90.       15.341       757.1     154.6
1.2746      90.       15.351      1198.9     194.6
1.2746      90.       15.361      1198.8     194.6
1.2746      90.       15.371      1167.2     192.0
1.2746      90.       15.381      1640.4     227.6
1.2746      90.       15.391      1766.7     236.2
1.2746      90.       15.401      1987.5     250.6
1.2746      90.       15.411      1672.0     229.8
1.2746      90.       15.421      1766.7     236.2
1.2746      90.       15.431      2082.1     256.5
1.2746      90.       15.441      2145.2     260.3
1.2746      90.       15.451      1955.8     248.6
1.2746      90.       15.461      1671.9     229.8
1.2746      90.       15.471      1482.6     216.4
1.2746      90.       15.481      1387.9     209.3
1.2746      90.       15.491      1324.8     204.5
1.2746      90.       15.501      1798.0     238.3
1.2746      90.       15.511      1766.4     236.2
1.2746      90.       15.521      1545.7     220.9
1.2746      90.       15.531      2271.0     267.9
1.2746      90.       15.541      1608.6     225.4
1.2746      90.       15.551      2113.5     258.4
1.2746      90.       15.561      2019.0     252.6
1.2746      90.       15.571      1766.6     236.2
1.2746      90.       15.581      2460.5     278.8
1.2746      90.       15.591      1514.1     218.7
1.2746      90.       15.601      2018.9     252.5
1.2746      90.       15.611      1609.0     225.4
1.2746      90.       15.621      1766.6     236.2
1.2746      90.       15.631      1798.2     238.3
1.2746      90.       15.641      1829.6     240.4
1.2746      90.       15.651      1671.9     229.8
1.2746      90.       15.661      1577.3     223.2
1.2746      90.       15.671      1987.4     250.6
1.2746      90.       15.681      1892.8     244.5
1.2746      90.       15.691      1514.2     218.7
1.2746      90.       15.711      1672.0     229.8
1.2746      90.       15.721      1198.7     194.5
1.2746      90.       15.731      1829.6     240.4
1.2746      90.       15.741      1703.7     232.0
1.2746      90.       15.751      1388.1     209.4
1.2746      90.       15.761      1449.6     213.8
1.2746      90.       15.771      1766.6     236.2
1.2746      90.       15.781      1103.4     186.6
1.2746      90.       15.791      1924.3     246.5
1.2746      90.       15.801      1230.2     197.1
1.2746      90.       15.811      1293.3     202.1
1.2746      90.       15.821      1228.8     196.9
1.2746      90.       15.831      1293.4     202.1
1.2746      90.       15.841      1009.5     178.5
1.2746      90.       15.851      1293.5     202.1
1.2746      90.       15.861      1104.1     186.7
1.2746      90.       15.871       789.5     157.9
1.2746      90.       15.881      1167.5     192.0
1.2746      90.       15.891      1167.2     192.0
1.2746      90.       15.901      1009.4     178.5
1.2746      90.       15.911      1041.1     181.3
1.2746      90.       15.921      1197.4     194.3
1.2746      90.       15.931      1292.6     202.0
1.2746      90.       15.941      1356.7     207.0
1.2746      90.       15.951      1293.5     202.1
1.2746      90.       15.961      1575.4     222.9
1.2746      90.       15.971       882.0     166.7
1.2746      90.       15.981      1102.7     186.5
1.2746      90.       15.991      1134.8     189.2
1.2746      90.       16.001      1293.5     202.1
1.2746      90.       16.011      1388.2     209.4
1.2746      90.       16.021      1325.1     204.6
1.2746      90.       16.031      1451.5     214.1
1.2746      90.       16.041      1167.5     192.0
1.2746      90.       16.051      1451.4     214.1
1.2746      90.       16.061      2016.3     252.2
1.2746      90.       16.071      1483.0     216.4
1.2746      90.       16.081      1388.0     209.3
1.2746      90.       16.091      1230.3     197.1
1.2746      90.       16.101      1135.7     189.4
1.2746      90.       16.111      1041.0     181.3
1.2746      90.       16.121       693.2     147.8
1.2746      90.       16.131       788.6     157.8
1.2746      90.       16.141       914.8     169.9
1.2746      90.       16.151       599.4     137.5
1.2746      90.       16.161      1008.3     178.3
1.2746      90.       16.171       914.8     169.9
1.2746      90.       16.181      1041.0     181.3
1.2746      90.       16.191       725.5     151.3
1.2746      90.       16.201      1198.7     194.5
1.2746      90.       16.211      1261.7     199.6
1.2746      90.       16.221      1072.5     184.0
1.2746      90.       16.231       819.0     160.7
1.2746      90.       16.241       882.1     166.7
1.2746      90.       16.251       976.4     175.4
1.2746      90.       16.261      1228.6     196.8
1.2746      90.       16.271      1104.0     186.7
1.2746     100.       14.333      2142.5     297.3
1.2746     100.       14.353      1813.1     273.5
1.2746     100.       14.373      2307.3     308.5
1.2746     100.       14.393      2183.8     300.1
1.2746     100.       14.403      1689.5     264.0
1.2746     100.       14.413      2018.9     288.6
1.2746     100.       14.423      1483.4     247.3
1.2746     100.       14.433      1401.1     240.4
1.2746     100.       14.443      1277.5     229.5
1.2746     100.       14.453       865.4     188.9
1.2746     100.       14.463      1359.9     236.8
1.2746     100.       14.473       824.3     184.4
1.2746     100.       14.493       618.0     159.6
1.2746     100.       14.503       782.8     179.6
1.2746     100.       14.513       659.3     164.8
1.2746     100.       14.523       659.2     164.8
1.2746     100.       14.533       824.0     184.3
1.2746     100.       14.543       700.3     169.9
1.2746     100.       14.553       947.5     197.6
1.2746     100.       14.563      1359.4     236.7
1.2746     100.       14.573      1318.5     233.2
1.2746     100.       14.583      1400.9     240.4
1.2746     100.       14.593      1442.1     243.9
1.2746     100.       14.603      1689.4     264.0
1.2746     100.       14.623      1854.8     276.6
1.2746     100.       14.633      1895.7     279.7
1.2746     100.       14.643      1895.7     279.7
1.2746     100.       14.653      2264.6     311.3
1.2746     100.       14.663      1854.1     276.5
1.2746     100.       14.673      1977.5     285.6
1.2746     100.       14.693      1648.3     260.7
1.2746     100.       14.703      1442.0     243.8
1.2746     100.       14.713      1359.7     236.8
1.2746     100.       14.723      1318.5     233.2
1.2746     100.       14.733      1153.7     218.1
1.2746     100.       14.738      1006.4     197.4
1.2746     100.       14.743       783.1     179.7
1.2746     100.       14.748       813.0     177.5
1.2746     100.       14.753       783.0     179.7
1.2746     100.       14.758       813.2     177.5
1.2746     100.       14.763       906.6     193.3
1.2746     100.       14.768       929.5     189.8
1.2746     100.       14.773       947.9     197.7
1.2746     100.       14.778      1045.2     201.2
1.2746     100.       14.788       929.1     189.7
1.2746     100.       14.793       700.7     170.0
1.2746     100.       14.798       696.7     164.2
1.2746     100.       14.808       735.5     168.8
1.2746     100.       14.818       812.8     177.4
1.2746     100.       14.828      1006.3     197.4
1.2746     100.       14.838      1161.1     212.1
1.2746     100.       14.848       812.7     177.4
1.2746     100.       14.858       657.9     159.6
1.2746     100.       14.868       696.6     164.2
1.2746     100.       14.878       851.3     181.5
1.2746     100.       14.888       696.5     164.2
1.2746     100.       14.898       774.0     173.1
1.2746     100.       14.908      1006.1     197.4
1.2746     100.       14.918      1006.2     197.4
1.2746     100.       14.928       812.7     177.4
1.2746     100.       14.938       928.8     189.6
1.2746     100.       14.948       851.4     181.6
1.2746     100.       14.958       967.5     193.6
1.2746     100.       14.968      1006.2     197.4
1.2746     100.       14.978       580.5     149.9
1.2746     100.       14.988      1045.0     201.2
1.2746     100.       14.998       812.7     177.4
1.2746     100.       15.008       851.4     181.6
1.2746     100.       15.018       812.7     177.4
1.2746     100.       15.028       928.6     189.6
1.2746     100.       15.038       735.2     168.7
1.2746     100.       15.048       890.1     185.6
1.2746     100.       15.058      1006.1     197.4
1.2746     100.       15.068      1161.2     212.1
1.2746     100.       15.078       890.1     185.6
1.2746     100.       15.088      1044.9     201.2
1.2746     100.       15.098      1393.2     232.3
1.2746     100.       15.108      1006.2     197.4
1.2746     100.       15.118       890.1     185.7
1.2746     100.       15.128       735.4     168.7
1.2746     100.       15.138      1006.2     197.4
1.2746     100.       15.148      1199.7     215.6
1.2746     100.       15.158      1470.5     238.6
1.2746     100.       15.168       812.6     177.4
1.2746     100.       15.178      1432.0     235.5
1.2746     100.       15.188      1354.6     229.1
1.2746     100.       15.198       735.3     168.7
1.2746     100.       15.208       851.4     181.6
1.2746     100.       15.218      1083.5     204.8
1.2746     100.       15.228       541.7     144.8
1.2746     100.       15.238       851.3     181.5
1.2746     100.       15.248      1315.5     225.7
1.2746     100.       15.258       812.6     177.4
1.2746     100.       15.268       619.1     154.8
1.2746     100.       15.278       812.5     177.4
1.2746     100.       15.288      1083.4     204.8
1.2746     100.       15.298       812.5     177.3
1.2746     100.       15.308      1044.6     201.1
1.2746     100.       15.318      1005.9     197.3
1.2746     100.       15.328       773.8     173.1
1.2746     100.       15.338      1006.0     197.3
1.2746     100.       15.348      1509.2     241.8
1.2746     170.       13.415      1383.0     798.5
1.2746     170.       13.425      3457.3     847.0
1.2746     170.       13.435      2535.9     781.9
1.2746     170.       13.445      3687.7    1164.0
1.2746     170.       13.455      2419.5    1397.0
1.2746     170.       13.465       115.1     718.9
1.2746     170.       13.475      1954.2     640.1
1.2746     170.       13.485      4487.2     942.0
1.2746     170.       13.495      1036.2    1276.9
1.2746     170.       13.505      2989.8     813.3
1.2746     170.       13.515      5063.7     906.5
1.2746     170.       13.525      4489.3     869.3
1.2746     170.       13.535      5179.3     913.9
1.2746     170.       13.545      6560.4     997.3
1.2746     170.       13.555     10359.2    1197.3
1.2746     170.       13.565      7479.4    1049.0
1.2746     170.       13.575      4719.2     853.9
1.2746     170.       13.585      5294.8     892.0
1.2746     170.       13.595      6331.2     884.8
1.2746     170.       13.605      8174.6     997.9
1.2746     170.       13.615      7368.1     950.1
1.2746     170.       13.625      6332.2     884.9
1.2746     170.       13.635      5519.4     920.3
1.2746     170.       13.645      4485.0     853.1
1.2746     170.       13.655      3679.9     905.7
1.2746     170.       13.665      2875.1     853.0
1.2746     170.       13.675      2759.7     845.1
1.2746     170.       13.685      4024.3     821.4
1.2746     170.       13.695      2760.0     727.5
1.2746     170.       13.705      5174.3     788.7
1.2746     170.       13.715      4254.2     718.3
1.2746     170.       13.725      7130.4     920.7
1.2746     170.       13.735      7474.8     942.0
1.2746     170.       13.745      7589.8     949.0
1.2746     170.       13.755      8623.2    1009.8
1.2746     170.       13.765     10464.2    1110.1
1.2746     170.       13.775     10347.2    1103.9
1.2746     170.       13.785      8853.8    1009.9
1.2746     170.       13.795      8393.2     983.2
1.2746     170.       13.805      7702.2     941.7
1.2746     170.       13.815      5862.9     821.5
1.2746     170.       13.825      4713.3     736.5
1.2746     170.       13.835      4138.5     690.0
1.2746     170.       13.845      2641.4     550.9
1.2746     170.       13.855      2530.7     845.4
1.2746     170.       13.865      3710.9    1205.7
1.2746     170.       13.865      1495.5     414.9
1.2746     170.       13.875      1419.3     809.7
1.2746     170.       13.875      2070.2     488.1
1.2746     170.       13.885      3166.6    2948.2
1.2746     170.       13.895      3384.1     866.6
1.2746     170.       13.895      1380.1     630.0
1.2746     170.       13.905      1855.3     764.0
1.2746     170.       13.915      1965.4     772.1
1.2746     170.       13.925      2944.1     823.4
1.2746     170.       13.935      1854.0     626.6
1.2746     170.       13.945      4798.8     845.1
1.2746     170.       13.955      5451.4     886.1
1.2746     170.       13.965      5446.6     885.3
1.2746     170.       13.975      4906.3    1768.3
1.2746     170.       13.985      7407.2    1991.1
1.2746     170.       13.995      6538.0    2362.5
1.2746     170.       14.005      4585.2     802.5
1.2746     170.       14.015      1961.9     597.0
1.2746     170.       14.025      3165.6     699.1
1.2746     170.       14.035      4250.9    1209.0
1.2746     170.       14.045      2288.6    1928.1
1.2746     170.       14.055      2287.1     864.5
1.2746     170.       14.065      2067.7     606.0
1.2746     170.       14.075      2830.0     671.1
1.2746     170.       14.095      1743.8     635.5
1.2746     170.       14.105      1202.2     588.6
1.2746     170.       14.115      4261.6     825.2
1.2746     170.       14.125      4588.0     846.4
1.2746     170.       14.135      4911.7     866.7
1.2746     170.       14.145      4146.1     816.7
1.2746     170.       14.155      6325.7     963.7
1.2746     170.       14.175      5560.7     919.1
1.2746     170.       14.185      4355.0     843.6
1.2746     170.       14.195      4038.0     794.7
1.2746     170.       14.205      1200.9     567.3
1.2746     170.       14.215      1852.2     626.0
1.2746     170.       14.225      1525.9     597.0
1.2746     170.       14.235       763.0     522.8
1.2746     170.       14.245       762.3     522.3
1.2746     170.       14.255      1416.2     586.7
1.2746     170.       14.265       873.6     535.0
1.2746     170.       14.275      3705.9     770.9
1.2746     170.       14.285      2178.4     785.5
1.2746     170.       14.295      4038.6     906.9
1.2746     170.       14.305      3603.4     795.1
1.2746     170.       14.315      4582.4     859.4
1.2746     170.       14.325      4912.2     880.4
1.2746     170.       14.333      7747.2     954.3
1.2746     170.       14.335      5015.4     886.1
1.2746     170.       14.345      7190.6     987.2
1.2746     170.       14.353      6104.3     847.0
1.2746     170.       14.355      7522.3    1005.7
1.2746     170.       14.365      7061.9     996.9
1.2746     170.       14.373      5751.2     822.1
1.2746     170.       14.375      7293.2     992.3
1.2746     170.       14.385      7289.6    1187.4
1.2746     170.       14.393      4108.0     694.7
1.2746     170.       14.395      5113.1     877.4
1.2746     170.       14.403      2347.7     525.1
1.2746     170.       14.413      2582.1     550.6
1.2746     170.       14.423      2464.8     538.0
1.2746     170.       14.433      3169.3     610.1
1.2746     170.       14.443      3873.5     674.5
1.2746     170.       14.453      3403.9     632.3
1.2746     170.       14.463      3286.5     621.3
1.2746     170.       14.473      3169.7     632.4
1.2746     170.       14.493      1056.0     389.2
1.2746     170.       14.503      1056.2     352.1
1.2746     170.       14.553      4575.4     733.0
1.2746     170.       14.563      5983.3     838.3
1.2746     170.       14.573      5984.4     838.5
1.2746     170.       14.583      4224.3     704.3
1.2746     170.       14.593      2816.1     575.0
1.2746     170.       14.603      2229.5     511.6
1.2746     170.       14.623      2934.3     587.0
1.2746     170.       14.633      2816.5     575.1
1.2746     170.       14.643      3520.6     643.0
1.2746     170.       14.653      4258.5     720.1
1.2746     170.       14.663      5162.1     778.6
1.2746     170.       14.673      4575.1     732.9
1.2746     170.       14.693      6570.8     878.6
1.2746     170.       14.703      4692.3     742.3
1.2746     170.       14.713      4340.9     713.9
1.2746     170.       14.723      4106.1     694.3
1.2746     170.       14.733      4692.7     742.3
1.2746     170.       14.738      4628.8     714.6
1.2746     170.       14.743      6571.9     878.8
1.2746     170.       14.748      4849.9     731.5
1.2746     170.       14.753      4106.6     694.4
1.2746     170.       14.758      6284.6     833.0
1.2746     170.       14.768      4410.6     697.7
1.2746     170.       14.778      3526.8     731.3
1.2746     170.       14.788      3416.7     722.9
1.2746     170.       14.793      5632.8     909.4
1.2746     170.       14.798      3966.7     763.6
1.2746     170.       14.808      2865.4     623.6
1.2746     170.       14.818      4848.3     779.5
1.2746     170.       14.828      3525.7     623.5
1.2746     170.       14.838      2313.7     505.0
1.2746     170.       14.848      1872.9     454.3
1.2746     170.       14.858      1432.2     397.3
1.2746     170.       14.868      1652.6     426.8
1.2746     170.       14.878      3194.5     593.4
1.2746     170.       14.888      3414.7     613.5
1.2746     170.       14.898      3965.8     661.2
1.2746     170.       14.908      2643.6     539.8
1.2746     170.       14.918      3745.4     642.6
1.2746     170.       14.928      4406.3     697.0
1.2746     170.       14.938      3855.5     652.0
1.2746     170.       14.948      3855.3     651.9
1.2746     170.       14.958      3084.3     583.1
1.2746     170.       14.968      2974.0     572.5
1.2746     170.       14.978      4626.3     714.2
1.2746     170.       14.988      4296.0     688.2
1.2746     170.       14.998      2863.9     561.8
1.2746     170.       15.008      3744.9     642.5
1.2746     170.       15.018      3744.9     642.5
1.2746     170.       15.028      3854.3     651.8
1.2746     170.       15.038      4845.6     730.9
1.2746     170.       15.048      4845.9     730.9
1.2746     170.       15.058      5616.6     786.9
1.2746     170.       15.068      6058.4     817.4
1.2746     170.       15.078      5286.5     163.5
1.2746     170.       15.088      4735.9     722.6
1.2746     170.       15.098      3083.7     583.0
1.2746     170.       15.108      3854.5     651.8
1.2746     170.       15.118      4185.1     679.2
1.2746     170.       15.128      4515.5     705.5
1.2746     170.       15.138      5065.9     747.3
1.2746     170.       15.148      4735.3     722.5
1.2746     170.       15.158      5285.4     763.3
1.2746     170.       15.168      4074.0     670.1
1.2746     170.       15.178      3744.2     713.9
1.2746     170.       15.188      4515.2     771.2
1.2746     170.       15.198      3193.2     670.0
1.2746     170.       15.208      2973.0     651.6
1.2746     170.       15.218      1761.6     539.4
1.2746     170.       15.228      3192.9     669.9
1.2746     170.       15.238      2091.8     593.0
1.2746     170.       15.248      1761.4     561.4
1.2746     170.       15.258      1981.8     582.7
1.2746     170.       15.268      2972.4     669.8
1.2746     170.       15.278      3082.3     642.1
1.2746     170.       15.288      2862.2     622.9
1.2746     170.       15.298      2201.4     561.4
1.2746     170.       15.308      3632.3     687.6
1.2746     170.       15.318      1761.0     516.3
1.2746     170.       15.328      3962.6     660.7
1.2746     170.       15.338      3632.4     632.6
1.2746     170.       15.341      4353.5     745.5
1.2746     170.       15.348      5504.4     824.2
1.2746     170.       15.351      4637.5     763.4
1.2746     170.       15.361      4732.0     780.7
1.2746     170.       15.371      4731.9     780.7
1.2746     170.       15.381      5299.4     814.4
1.2746     170.       15.391      5678.2     836.2
1.2746     170.       15.401      5015.6     797.8
1.2746     170.       15.411      4353.0     757.3
1.2746     170.       15.421      4447.7     763.2
1.2746     170.       15.431      4920.6     792.0
1.2746     170.       15.441      4541.9     769.0
1.2746     170.       15.451      3784.8     720.8
1.2746     170.       15.461      2933.1     662.5
1.2746     170.       15.471      4163.0     745.3
1.2746     170.       15.481      2838.3     655.6
1.2746     170.       15.491      3595.0     708.2
1.2746     170.       15.501      5771.3     841.4
1.2746     170.       15.511      5203.3     808.7
1.2746     170.       15.521      7852.4     951.5
1.2746     170.       15.531      7851.7     942.0
1.2746     170.       15.541      8324.5     965.5
1.2746     170.       15.551     13811.8    1213.3
1.2746     170.       15.561     14948.2    1257.1
1.2746     170.       15.571     12393.5    1156.3
1.2746     170.       15.581     14000.9    1213.3
1.2746     170.       15.591     14945.0    1249.8
1.2746     170.       15.601     13906.2    1209.6
1.2746     170.       15.611     14569.5    1235.5
1.2746     170.       15.621     12960.1    1186.9
1.2746     170.       15.631     13812.0    1220.6
1.2746     170.       15.641     10688.9    1075.5
1.2746     170.       15.651     11067.5    1108.4
1.2746     170.       15.661      9648.3    1028.5
1.2746     170.       15.671     10310.4    1058.7
1.2746     170.       15.681     12296.7    1144.4
1.2746     170.       15.691     13809.8    1205.7
1.2746     170.       15.711     12390.9    1171.4
1.2746     170.       15.721     13336.1    1209.2
1.2746     170.       15.731     12579.3    1179.0
1.2746     170.       15.741     10310.7    1083.8
1.2746     170.       15.751     10687.8    1100.1
1.2746     170.       15.761     12754.5    1185.3
1.2746     170.       15.771     12011.4    1140.3
1.2746     170.       15.781     10680.3    1083.0
1.2746     170.       15.791      7660.5     922.5
1.2746     170.       15.801      7849.3     932.1
1.2746     170.       15.811      7659.9     922.4
1.2746     170.       15.821      8217.7     950.1
1.2746     170.       15.831     10592.1    1062.8
1.2746     170.       15.841     10308.2    1116.0
1.2746     170.       15.851     10592.1    1128.1
1.2746     170.       15.861     10212.9    1111.9
1.2746     170.       15.871     10318.8    1117.2
1.2746     170.       15.881     10783.0    1136.2
1.2746     170.       15.891     12954.6    1223.5
1.2746     170.       15.901     11347.0    1212.1
1.2746     170.       15.911     12482.4    1205.1
1.2746     170.       15.921     10200.4    1217.8
1.2746     170.       15.931      9261.2    1127.0
1.2746     170.       15.941     10118.7    1193.4
1.2746     170.       15.951      6146.5     950.8
1.2746     170.       15.961      5760.8     930.5
1.2746     170.       15.971      5098.5     935.0
1.2746     170.       15.981      4060.5     881.0
1.2746     170.       15.991      2078.6     767.6
1.2746     170.       16.001      2552.9     796.8
1.2746     170.       16.011      3498.6     851.2
1.2746     170.       16.021      3971.3     936.2
1.2746     170.       16.031      5201.1     996.6
1.2746     170.       16.041      6430.3    1001.2
1.2746     170.       16.051      5578.9     960.0
1.2746     170.       16.061      6892.2     986.2
1.2746     170.       16.071      9266.5    1095.4
1.2746     170.       16.081      8980.5    1082.8
1.2746     170.       16.091      9926.6    1123.6
1.2746     170.       16.101      7657.5    1023.2
1.2746     170.       16.111      7278.9    1005.5
1.2746     170.       16.121      6609.4     972.6
1.2746     170.       16.131      5198.8     871.8
1.2746     170.       16.141      5576.9     892.1
1.2746     170.       16.151      4915.2     856.3
1.2746     170.       16.161      5287.2     875.9
1.2746     170.       16.171      3402.8     744.4
1.2746     170.       16.181      3591.7     756.3
1.2746     170.       16.191      4253.3     796.7
1.2746     170.       16.201      3308.0     807.7
1.2746     170.       16.211      3874.9     840.2
1.2746     170.       16.221      5292.7     916.7
1.2746     170.       16.231      4719.2     875.6
1.2746     170.       16.241      3869.8     828.4
1.2746     170.       16.251      5095.8     833.8
1.2746     170.       16.257     11568.0    1361.1
1.2746     170.       16.261      7173.4     944.5
1.2746     170.       16.267      9673.8    1218.2
1.2746     170.       16.271      5292.4     845.7
1.2746     170.       16.277      9872.7    1226.3
1.2746     170.       16.287     10769.5    1262.3
1.2746     170.       16.297     12764.0    1375.8
1.2746     170.       16.307     14754.1    1446.3
1.2746     170.       16.317     16251.6    1497.4
1.2746     170.       16.327     19043.3    1613.2
1.2746     170.       16.337     20737.6    1665.1
1.2746     170.       16.347     20346.0    1653.6
1.2746     170.       16.357     20246.6    1854.9
1.2746     170.       16.367     21840.1    1902.7
1.2746     170.       16.387     14954.6    2000.1
1.2746     170.       16.397     18043.2    1842.7
1.2746     170.       16.407     18161.9    1847.4
1.2746     170.       16.417     13671.9    1721.0
1.2746     170.       16.427     12274.2    1679.7
1.2746     170.       16.437     10675.3    1631.0
1.2746     170.       16.447     11073.2    1555.9
1.2746     170.       16.457      9377.8    1500.4
1.2746     170.       16.467      7681.1    1421.7
1.2746     170.       16.477      6883.4    1327.6
1.2746     170.       16.487      5087.6    1258.1
1.2746     170.       16.497      7880.8    1312.6
1.2746     170.       16.507      5884.5    1234.0
1.2746     170.       16.517      5789.2    1147.1
1.2746     170.       16.527      5989.0    1155.8
1.2746     170.       16.537      5990.6    1156.1
1.2746     170.       16.547      5790.5    1147.3
1.2746     170.       16.557      4195.1    1076.0
1.2746     170.       16.567      4690.5    1098.0
1.2746     170.       16.577      3894.8    1023.5
1.2746     170.       16.587      3902.2    1025.4
1.2746     170.       16.597      4302.5    1044.8
1.2746     170.       16.607      2099.7     932.7
1.2746     170.       16.617      5200.1     990.3
1.2746     170.       16.627      3100.2     877.7
1.2746     170.       16.637      1900.1     806.3
1.2746     170.       16.647      3200.9     883.5
1.2746     170.       16.657      3700.0     911.2
1.2746     170.       16.667      3701.1     911.5
1.2746     170.       16.677      4001.1     927.8
1.2746     170.       16.687      2700.1     854.5
1.2746     170.       16.697      5101.2     985.4
1.2746     170.       16.707      5401.4    1068.3
1.2746     170.       16.717      4800.1    1039.5
1.2746     170.       16.727      5101.2    1082.2
1.2746     170.       16.737      3801.5     990.5
1.2746     170.       16.747      5091.8    1068.3
1.2746     170.       16.757      3550.7     988.9
1.2746     170.       16.767      2904.9     945.1
1.2746     170.       16.777      3406.7     971.6
1.2746     170.       16.787      3136.0     965.1
1.2746     170.       16.797      2980.3     969.6
1.2746     170.       16.807      3876.4    1032.0
1.2746     170.       16.817      2932.7     948.5
1.2746     170.       16.827      3392.3     828.9
1.2746     170.       16.837      4060.5     873.4
1.2746     170.       16.847      5081.5     953.7
1.2746     170.       16.857      5021.0     985.2
1.2746     170.       16.867      5637.2     988.8
1.2746     170.       16.877      5550.1     952.3
1.2746     170.       16.887      6065.6    1212.4
1.2746     170.       16.897      5739.3    1159.8
1.2746     170.       16.907      4259.3    1054.1
1.2746     170.       16.917      4160.9    1049.9
1.2746     170.       16.927      6233.8    1231.8
1.2746     170.       16.937      4846.9    1285.4
1.2746     170.       16.947      8475.9    1323.9
1.2746     170.       16.957      6354.4    1239.8
1.2746     170.       16.967     11289.8    1389.0
1.2746     170.       16.977     10305.0    1354.3
1.2746     170.       16.987      9986.3    1340.6
1.2746     170.       16.997     10488.0    1359.5
1.2746     170.       17.007      9091.7    1307.2
1.2746     170.       17.037      6291.0    1023.6
1.2746     170.       17.047      8687.3    1099.1
1.2746     170.       17.057      8687.1    1186.4
1.2746     170.       17.067      6889.3    1107.8
1.2746     170.       17.077      5790.5    1056.9
1.2746     170.       17.087      7687.6    1043.0
1.2746     170.       17.097      6888.9     931.8
1.2746     170.       17.104      7057.2     800.4
1.2746     170.       17.107      7686.8     993.9
1.2746     170.       17.114      7395.9    1225.3
1.2746     170.       17.117      9484.6    1080.8
1.2746     170.       17.124      7126.2    1210.0
1.2746     170.       17.127     11681.7    1195.2
1.2746     170.       17.134     10944.2    1402.7
1.2746     170.       17.137      8696.9    1144.9
1.2746     170.       17.144     10538.6    1382.6
1.2746     170.       17.154     10814.0    1396.6
1.2746     170.       17.164     10631.3    1394.7
1.2746     170.       17.174     11743.4    1440.5
1.2746     170.       17.184     14240.6    1616.4
1.2746     170.       17.194     11870.6    1516.4
1.2746     170.       17.204      7909.6    1318.8
1.2746     170.       17.214      6984.0    1271.2
1.2746     170.       17.224      8440.9    1319.5
1.2746     170.       17.234      6852.0    1236.5
1.2746     170.       17.244      9895.5    1352.8
1.2746     170.       17.254      8448.6    1280.5
1.2746     170.       17.264      6598.4    1180.8
1.2746     170.       17.274      7920.0    1252.8
1.2746     170.       17.284      7391.9    1224.6
1.2746     170.       17.294      6599.8    1181.0
1.2746     170.       17.304     12536.2    1476.6
1.2746     170.       17.314      9726.5    1474.2
1.2746     170.       17.324     11602.2    1469.2
1.2746     170.       17.334     10288.5    1421.5
1.2746     170.       17.344     11738.3    1487.4
1.2746     170.       17.354     11078.9    1457.8
1.2746     170.       17.364      9360.4    1377.1
1.2746     170.       17.374      8574.4    1286.4
1.2746     170.       17.384      9100.7    1313.1
1.2746     170.       17.394      6855.2    1194.2
1.2746     170.       17.404      6593.5    1179.9
1.2746     170.       17.414      7778.3    1244.3
1.2746     170.       17.424      8964.5    1305.8
1.2746     170.       17.434     11735.5    1439.5
1.2746     170.       17.444      7645.7    1164.8
1.2746     170.       17.454     11995.9    1326.1
1.2746     170.       17.463      5968.5     462.8
1.2746     170.       17.473      6119.9     469.0
1.2746     170.       17.474      7114.0    1054.5
1.2746     170.       17.483      5042.7     428.4
1.2746     170.       17.484      9886.2    1216.2
1.2746     170.       17.493      4740.1     416.3
1.2746     170.       17.503      3126.3     344.7
1.2746     170.       17.504      8436.1    1134.6
1.2746     170.       17.513      2252.2     298.9
1.2746     170.       17.523      2117.8     291.2
1.2746     170.       17.524      4481.6     874.6
1.2746     170.       17.533      1983.2     271.1
1.2746     170.       17.543      2383.3     387.4
1.2746     170.       17.543      2084.0     277.3
1.2746     170.       17.544      2899.9     745.8
1.2746     170.       17.553      2756.3     304.6
1.2746     170.       17.563      2857.0     310.1
1.2746     170.       17.564      3956.8     834.4
1.2746     170.       17.573      2420.1     285.4
1.2746     170.       17.583      2924.2     313.7
1.2746     170.       17.584      2767.8     734.0
1.2746     170.       17.593      3058.7     320.9
1.2746     170.       17.603      3663.5     351.2
1.2746     170.       17.613      2957.7     315.5
1.2746     170.       17.623      2823.2     308.3
1.2746     170.       17.633      2991.2     317.3
1.2746     170.       17.643      2419.8     285.4
1.2746     170.       17.653      1613.2     232.9
1.2746     170.       17.663      1680.4     237.7
1.2746     170.       17.673      1512.3     225.5
1.2746     170.       17.683       907.5     112.7
1.2746     170.       17.703       616.2      93.1
1.2746     170.       17.723       526.6      87.5
1.2746     170.       17.743       459.4      71.8
1.2746     170.       17.763       481.8      73.5
1.2746     170.       17.783       907.6     100.9
1.2746     170.       17.803       795.4      94.5
1.2746     170.       17.823       773.0      99.6
1.2746     170.       17.843       571.4      87.5
1.2746     170.       17.863       425.7      77.6
1.2746     170.       17.883       616.2      90.4
1.2746     170.       17.903       571.3      87.5
1.2746     170.       17.923       806.6     101.5
1.2746     170.       17.943       997.1     111.5
1.2746     170.       17.963      1377.9     129.3
1.2746     170.       17.983      2374.9     167.9
1.2746     170.       18.003      2408.4     169.1
1.2746     170.       18.023      2049.8     156.6
1.2746     170.       18.043      2677.2     177.8
1.2746     170.       18.063      1792.3     147.9
1.2746     170.       18.073      1668.9     212.3
1.2746     170.       18.103      1366.5     204.2
1.2746     170.       18.123      1288.0     194.4
1.2746     170.       18.143       582.4     148.6
1.2746     170.       18.163       492.8     137.2
1.2746     170.       18.223       683.2      99.6
1.2746     170.       18.243      1343.9     131.7
1.2746     170.       18.263      2004.6     157.4
1.2746     170.       18.283      1780.6     147.5
1.2746     170.       18.303      1623.7     141.4
1.2746     170.       18.323      1914.8     152.5
1.2746     170.       18.343      2116.5     160.6
1.2746     170.       18.363      2676.4     179.2
1.2746     170.       18.383      2754.7     181.6
1.2746     170.       18.403      2833.1     184.0
1.2746     170.       18.423      2866.6     184.4
1.2746     170.       18.443      1198.2     181.0
1.2746     170.       18.472      1359.7     228.7
1.2746     170.       18.492      1211.5     224.6
1.2746     170.       18.512      1053.2     215.7
1.2746     170.       18.532      1162.0     242.3
1.2746     170.       18.552      1561.4     249.2
1.2746     170.       18.572      1193.1     185.2
1.2746     170.       18.592       956.4     267.9
1.2746     170.       18.612       750.7     235.4
1.2746     170.       18.632       519.1     246.0
1.2746     170.       18.652       433.6     198.6
1.2746     170.       18.672       433.3     198.5
1.2746     170.       18.692       182.0     208.0
1.2746     170.       18.712       556.6     162.7
1.2746     170.       18.732       618.4     184.3
1.2746     170.       18.752       259.7     171.8
1.2746     170.       18.772       754.4     146.9
1.2746     170.       18.792       470.0     134.4
1.2746     170.       18.812       395.8     135.5
1.2746     170.       18.832       680.2     202.1
1.2746     170.       18.852       890.5     182.6
1.2746     170.       18.872      1001.7     186.4
1.2746     170.       18.882      1038.8     150.5
1.2746     170.       18.892       902.7     179.7
1.2746     170.       18.902      1422.1     180.6
3.3572      45.       16.277      2458.2     232.9
3.3572      45.       16.287      2688.3     241.5
3.3572      45.       16.297      2140.0     220.4
3.3572      45.       16.307      2386.9     234.2
3.3572      45.       16.317      2563.9     240.8
3.3572      45.       16.327      2440.4     236.2
3.3572      45.       16.337      2281.5     242.1
3.3572      45.       16.347      2565.2     252.3
3.3572      45.       16.357      2264.8     255.4
3.3572      45.       16.367      2724.9     271.0
3.3572      45.       16.377      3026.1     280.7
3.3572      45.       16.387      2193.5     279.9
3.3572      45.       16.397      2069.5     275.9
3.3572      45.       16.407      2213.1     280.7
3.3572      45.       16.417      2195.5     280.1
3.3572      45.       16.427      2266.4     282.4
3.3572      45.       16.437      1699.8     263.9
3.3572      45.       16.447      2496.6     289.6
3.3572      45.       16.457      2709.0     296.0
3.3572      45.       16.467      2461.1     288.5
3.3572      45.       16.477      2425.6     287.4
3.3572      45.       16.487      2886.2     301.3
3.3572      45.       16.497      1788.6     266.9
3.3572      45.       16.507      2248.9     281.8
3.3572      45.       16.517      1682.1     252.4
3.3572      45.       16.527      2107.3     259.8
3.3572      45.       16.537      2266.8     265.3
3.3572      45.       16.547      1983.6     255.6
3.3572      45.       16.557      2178.5     262.3
3.3572      45.       16.567      2107.5     259.9
3.3572      45.       16.577      2107.4     259.9
3.3572      45.       16.587      1668.2     244.7
3.3572      45.       16.597      1881.1     252.4
3.3572      45.       16.607      1845.6     251.1
3.3572      45.       16.617      1898.8     253.0
3.3572      45.       16.627      1739.1     247.3
3.3572      45.       16.637      1703.8     246.1
3.3572      45.       16.647      1757.1     248.0
3.3572      45.       16.657      1277.9     230.1
3.3572      45.       16.667      1366.6     225.3
3.3572      45.       16.677      1650.6     236.3
3.3572      45.       16.687      1561.8     223.2
3.3572      45.       16.697      1402.2     216.8
3.3572      45.       16.707      1987.9     235.6
3.3572      45.       16.717      1579.6     219.7
3.3572      45.       16.727      2129.1     240.9
3.3572      45.       16.737      1863.2     230.8
3.3572      45.       16.747      1951.9     234.2
3.3572      45.       16.757      2058.5     238.3
3.3572      45.       16.767      2129.7     240.9
3.3572      45.       16.777      2236.6     244.9
3.3572      45.       16.787      2875.1     271.8
3.3572      45.       16.797      2005.7     241.6
3.3572      45.       16.807      2591.4     262.3
3.3572      45.       16.817      2272.1     241.0
3.3572      45.       16.827      2414.2     251.3
3.3572      45.       16.837      2396.2     250.6
3.3572      45.       16.847      2573.8     261.8
3.3572      45.       16.857      2360.9     254.4
3.3572      45.       16.867      2503.3     259.4
3.3572      45.       16.877      2822.6     270.1
3.3572      45.       16.887      2574.2     261.8
3.3572      45.       16.897      2343.6     253.8
3.3572      45.       16.907      2664.0     264.9
3.3572      45.       16.917      2557.1     261.3
3.3572      45.       16.927      2095.5     245.0
3.3572      45.       16.937      2148.8     246.9
3.3572      45.       16.947      2041.5     242.9
3.3572      45.       16.957      2165.6     247.4
3.3572      45.       16.967      2236.3     254.9
3.3572      45.       16.977      2538.4     253.2
3.3572      45.       16.987      2113.1     237.8
3.3572      45.       16.997      1900.6     225.6
3.3572      45.       17.037      2219.4     241.7
3.3572      45.       17.047      2183.9     240.4
3.3572      45.       17.057      2006.7     229.7
3.3572      45.       17.067      2113.5     233.8
3.3572      45.       17.077      2148.4     235.1
3.3572      45.       17.087      1846.8     223.4
3.3572      45.       17.097      2237.6     238.5
3.3572      45.       17.104      1699.8     221.0
3.3572      45.       17.107      1988.7     229.0
3.3572      45.       17.114      2087.2     310.4
3.3572      45.       17.117      1705.0     230.3
3.3572      45.       17.124      1805.6     299.5
3.3572      45.       17.127      1793.5     233.7
3.3572      45.       17.134      1735.2     313.0
3.3572      45.       17.137      1724.7     231.3
3.3572      45.       17.144      1311.8     281.2
3.3572      45.       17.154      1430.4     286.3
3.3572      45.       17.164      1618.1     305.0
3.3572      45.       17.174      1078.8     283.4
3.3572      45.       17.184      1055.3     282.4
3.3572      45.       17.194      1196.2     272.6
3.3572      45.       17.204      1524.5     286.4
3.3572      45.       17.214      1384.2     280.6
3.3572      45.       17.224      1619.2     317.6
3.3572      45.       17.234      1172.7     300.4
3.3572      45.       17.234      1172.7     300.4
3.3572      45.       17.254      1032.4     328.5
3.3572      45.       17.264       915.2     324.3
3.3572      45.       17.274       586.7     312.2
3.3572      45.       17.284      1079.6     338.5
3.3572      45.       17.294      1032.8     328.7
3.3572      45.       17.304      1103.0     331.1
3.3572      45.       17.314      1028.1     296.4
3.3572      45.       17.324      1173.7     269.7
3.3572      45.       17.334      1901.3     299.8
3.3572      45.       17.344      1760.6     308.9
3.3572      45.       17.354      2418.0     333.0
3.3572      45.       17.364      2136.4     317.8
3.3572      45.       17.374      2323.7     324.6
3.3572      45.       17.383      2181.5     362.6
3.3572      45.       17.384      2370.6     353.8
3.3572      45.       17.393      2662.1     404.6
3.3572      45.       17.394      2018.6     330.4
3.3572      45.       17.403      2710.8     407.6
3.3572      45.       17.404      2394.4     343.6
3.3572      45.       17.413      2056.7     368.2
3.3572      45.       17.414      2582.3     350.0
3.3572      45.       17.423      2617.9     402.3
3.3572      45.       17.424      2699.9     342.9
3.3572      45.       17.433      2615.9     402.0
3.3572      45.       17.434      2582.4     338.8
3.3572      45.       17.443      1977.8     354.0
3.3572      45.       17.444      2324.0     329.7
3.3572      45.       17.453      2429.6     396.6
3.3572      45.       17.454      2441.4     333.9
3.3572      45.       17.463      2703.9     411.9
3.3572      45.       17.473      2338.0     391.3
3.3572      45.       17.474      2721.8     343.5
3.3572      45.       17.483      2056.9     374.1
3.3572      45.       17.484      2560.0     338.1
3.3572      45.       17.493      2617.8     402.3
3.3572      45.       17.503      2150.7     374.1
3.3572      45.       17.504      2677.1     342.2
3.3572      45.       17.513      2103.7     359.2
3.3572      45.       17.523      2244.0     368.2
3.3572      45.       17.524      3216.7     349.4
3.3572      45.       17.533      1916.8     353.0
3.3572      45.       17.543      2103.7     365.2
3.3572      45.       17.544      2441.8     322.1
3.3572      45.       17.553      2805.0     413.0
3.3572      45.       17.563      1963.6     362.2
3.3572      45.       17.564      2278.6     316.2
3.3572      45.       17.573      3038.8     426.1
3.3572      45.       17.583      2150.6     374.1
3.3572      45.       17.584      2466.9     323.2
3.3572      45.       17.593      2571.4     399.6
3.3572      45.       17.603      2337.5     385.6
3.3572      45.       17.613      1916.8     359.2
3.3572      45.       17.623      1870.1     356.1
3.3572      45.       17.633      2197.4     377.0
3.3572      45.       17.643      1636.3     340.4
3.3572      45.       17.653      2104.0     371.2
3.3572      45.       17.663      3600.0     410.5
3.3572      45.       17.673      3553.3     407.8
3.3572      45.       17.683      3164.9     227.9
3.3572      45.       17.703      3571.0     241.5
3.3572      45.       17.723      3259.9     246.5
3.3572      45.       17.743      3510.7     254.4
3.3572      45.       17.763      3401.9     251.0
3.3572      45.       17.783      3043.1     239.5
3.3572      45.       17.803      2559.2     223.1
3.3572      45.       17.823      2543.7     222.6
3.3572      45.       17.843      2184.9     207.2
3.3572      45.       17.863      2278.4     210.7
3.3572      45.       17.883      2512.8     219.3
3.3572      45.       17.903      2388.1     214.8
3.3572      45.       17.923      2091.6     203.1
3.3572      45.       17.943      2201.0     201.9
3.3572      45.       17.963      1701.5     191.9
3.3572      45.       17.983      1373.7     178.1
3.3572      45.       18.003      1264.4     170.4
3.3572      45.       18.023      1061.5     160.8
3.3572      45.       18.043      1155.2     165.3
3.3572      45.       18.063       890.0     152.2
3.3572      45.       18.083      1030.5     159.3
3.3572      45.       18.103      1295.8     171.8
3.3572      45.       18.123      1358.3     173.2
3.3572      45.       18.143      1608.2     184.2
3.3572      45.       18.163      1733.2     189.4
3.3572      45.       18.183      1514.6     180.2
3.3572      45.       18.203      2233.0     213.7
3.3572      45.       18.223      2623.7     225.5
3.3572      45.       18.243      2467.5     220.0
3.3572      45.       18.263      2811.2     231.9
3.3572      45.       18.263      2186.8     209.8
3.3572      45.       18.303      2483.6     220.6
3.3572      45.       18.323      2359.0     216.1
3.3572      45.       18.343      2327.9     212.7
3.3572      45.       18.363      3124.6     242.4
3.3572      45.       18.383      3140.1     242.9
3.3572      45.       18.423      3797.1     263.3
3.3572      45.       18.443      3672.5     259.6
3.3572      45.       18.472      4019.2     273.8
3.3572      45.       18.492      4053.6     275.9
3.3572      45.       18.512      3743.4     267.1
3.3572      45.       18.532      3605.2     261.4
3.3572      45.       18.552      3260.3     259.1
3.3572      45.       18.572      2845.8     244.8
3.3572      45.       18.592      3570.7     282.2
3.3572      45.       18.612      3069.9     266.4
3.3572      45.       18.632      3536.2     281.2
3.3572      45.       18.652      3260.7     272.6
3.3572      45.       18.672      3519.7     280.7
3.3572      45.       18.692      2795.1     262.0
3.3572      45.       18.712      3263.9     269.5
3.3572      45.       18.732      3367.5     272.8
3.3572      45.       18.752      3039.4     262.2
3.3572      45.       18.772      3436.4     275.0
3.3572      45.       18.792      3471.2     285.7
3.3572      45.       18.812      2884.3     271.7
3.3572      45.       18.832      2677.6     265.0
3.3572      45.       18.852      3420.1     288.3
3.3572      45.       18.872      3230.2     282.6
3.3572      45.       18.882      3316.6     285.2
3.3572      45.       18.892      3523.5     291.4
3.3572      45.       18.902      3679.2     296.0
3.3572      45.       18.912      3109.4     278.8
3.3572      45.       18.922      3403.1     287.8
3.3572      45.       18.932      3541.4     292.0
3.3572      45.       18.942      3299.6     284.7
3.3572      45.       18.952      3560.4     292.6
3.3572      45.       18.962      3456.3     289.5
3.3572      45.       18.972      3285.4     284.4
3.3572      45.       18.982      3630.7     294.8
3.3572      45.       18.992      3025.4     272.0
3.3572      45.       19.002      3094.7     274.2
3.3572      45.       19.012      3146.5     275.8
3.3572      45.       19.022      2731.6     266.9
3.3572      45.       19.032      3042.3     276.9
3.3572      45.       19.042      3111.6     279.0
3.3572      45.       19.052      2609.9     262.9
3.3572      45.       19.062      2696.4     265.8
3.3572      45.       19.072      1935.8     239.6
3.3572      45.       19.082      2126.1     246.4
3.3572      45.       19.092      2074.1     244.6
3.3572      45.       19.102      1676.5     230.0
3.3572      45.       19.112      1866.7     237.1
3.3572      45.       19.122      1970.5     240.9
3.3572      45.       19.132      2313.5     259.4
3.3572      45.       19.132      2092.0     245.3
3.3572      45.       19.142      2496.3     256.1
3.3572      45.       19.142      2161.2     247.7
3.3572      45.       19.152      2091.4     242.0
3.3572      45.       19.152      1867.2     226.9
3.3572      45.       19.162      2921.2     271.3
3.3572      45.       19.162      2299.3     247.7
3.3572      45.       19.172      2455.5     255.5
3.3572      45.       19.182      2815.7     267.9
3.3572      45.       19.192      2689.0     263.6
3.3572      45.       19.202      2901.5     270.6
3.3572      45.       19.212      2696.7     264.4
3.3572      45.       19.222      2154.3     245.0
3.3572      45.       19.232      2460.7     256.1
3.3572      45.       19.242      2393.4     252.8
3.3572      45.       19.252      2247.8     257.6
3.3572      45.       19.262      2141.5     254.0
3.3572      45.       19.272      1999.4     249.1
3.3572      45.       19.282      2343.6     261.4
3.3572      45.       19.292      1910.8     235.2
3.3572      45.       19.302      2129.7     243.6
3.3572      45.       19.312      1769.2     222.7
3.3572      45.       19.322      1388.1     191.7
3.3572      45.       19.332      1513.8     197.5
3.3572      45.       19.342      1351.0     189.9
3.3572      45.       19.352      1514.1     197.5
3.3572      45.       19.362      1550.0     213.3
3.3572      45.       19.372      1098.9     188.1
3.3572      45.       19.382      1152.8     190.7
3.3572      45.       19.392      1657.1     217.7
3.3572      45.       19.402      1332.7     203.8
3.3572      45.       19.412      1152.3     195.6
3.3572      45.       19.422      1368.6     205.4
3.3572      45.       19.432      1620.7     216.2
3.3572      45.       19.442      1116.5     194.0
3.3572      45.       19.452      1368.4     205.4
3.3572      45.       19.462       989.9     210.7
3.3572      45.       19.472      1439.9     229.2
3.3572      45.       19.482      1421.6     221.2
3.3572      45.       19.492      1116.3     188.9
3.3572      45.       19.502      1495.5     206.3
3.3572      45.       19.512      1963.3     225.8
3.3572      45.       19.522      2017.4     232.2
3.3572      45.       19.532      1742.9     216.5
3.3572      45.       19.542      1612.9     212.2
3.3572      45.       19.552      2179.5     235.6
3.3572      45.       19.562      1653.2     214.3
3.3572      45.       19.572      1635.9     213.6
3.3572      45.       19.582      2416.0     244.6
3.3572      45.       19.592      2129.5     229.7
3.3572      45.       19.602      1782.0     215.3
3.3572      45.       19.612      2767.7     253.8
3.3572      45.       19.622      2151.2     235.0
3.3572      45.       19.632      2349.9     242.5
3.3572      45.       19.642      2640.8     253.2
3.3572      45.       19.652      2371.9     243.6
3.3572      45.       19.662      1851.5     223.5
3.3572      45.       19.672      2230.3     237.9
3.3572      45.       19.682      2730.1     245.4
3.3572      45.       19.692      2796.9     247.6
3.3572      45.       19.702      2850.4     249.6
3.3572      45.       19.712      2623.0     242.3
3.3572      45.       19.722      2872.5     250.6
3.3572      45.       19.732      2782.0     248.2
3.3572      45.       19.742      2690.8     244.7
3.3572      45.       19.752      2785.5     248.5
3.3572      45.       19.762      2762.5     247.4
3.3572      45.       19.772      3100.4     258.6
3.3572      45.       19.782      2694.0     244.9
3.3572      45.       19.792      2708.0     245.3
3.3572      45.       19.802      2657.0     243.5
3.3572      45.       19.812      2779.0     251.4
3.3572      45.       19.822      1824.3     216.5
3.3572      45.       19.832      2229.4     231.6
3.3572      45.       19.842      1922.1     219.9
3.3572      45.       19.852      2411.5     237.9
3.3572      45.       19.862      2479.0     240.3
3.3572      45.       19.872      2055.2     224.8
3.3572      45.       19.882      2004.6     222.9
3.3572      45.       19.892      1561.2     205.1
3.3572      45.       19.902      1725.2     211.4
3.3572      45.       19.912      1683.1     210.4
3.3572      45.       19.922      1691.7     210.0
3.3572      45.       19.932      1702.4     198.6
3.3572      45.       19.942      2195.8     218.8
3.3572      45.       19.952      2465.0     231.4
3.3572      45.       19.962      1921.8     204.9
3.3572      45.       19.972      2177.3     215.3
3.3572      45.       19.982      1940.6     205.8
3.3572      45.       19.992      2076.5     211.4
3.3572      45.       20.002      1938.1     205.6
3.3572      45.       20.012      2007.6     208.5
3.3572      45.       20.022      2312.7     220.6
3.3572      45.       20.032      2311.6     220.5
3.3572      45.       20.042      2279.4     219.3
3.3572      45.       20.052      2024.8     209.2
3.3572      45.       20.062      1905.5     204.3
3.3572      45.       20.072      1751.8     197.7
3.3572      45.       20.082      1989.3     218.5
3.3572      45.       20.092      2310.0     230.6
3.3572      45.       20.102      1922.3     216.0
3.3572      45.       20.112      1855.2     213.4
3.3572      45.       20.122      1615.8     203.5
3.3572      45.       20.132      1650.0     204.9
3.3572      45.       20.142      1411.4     194.7
3.3572      45.       20.152      1699.8     206.9
3.3572      45.       20.162      1905.7     215.4
3.3572      45.       20.172      1546.2     200.4
3.3572      45.       20.182      1360.6     192.5
3.3572      45.       20.192      2071.2     225.4
3.3572      45.       20.202      1957.9     221.5
3.3572      45.       20.212      1362.8     197.3
3.3572      45.       20.222      1992.5     222.8
3.3572      45.       20.232      2094.1     226.7
3.3572      45.       20.242      1975.6     222.2
3.3572      45.       20.252      1785.8     214.6
3.3572      45.       20.262      1769.8     214.0
3.3572      45.       20.272      2025.2     232.9
3.3572      45.       20.282      1939.5     229.6
3.3572      45.       20.292      1922.7     229.0
3.3572      45.       20.302      2261.3     241.2
3.3572      45.       20.312      2226.8     240.0
3.3572      45.       20.322      2210.0     239.4
3.3572      45.       20.332      2092.2     235.2
3.3572      45.       20.342      2007.2     232.1
3.3572      45.       20.352      2721.2     257.0
3.3572      45.       20.362      2159.1     237.6
3.3572      45.       20.372      2359.1     244.4
3.3572      45.       20.382      2175.1     238.1
3.3572      45.       20.392      1853.8     226.4
3.3572      45.       20.402      2176.8     238.2
3.3572      45.       20.412      2347.7     244.3
3.3572      45.       20.422      1923.3     229.1
3.3572      45.       20.432      2041.7     240.7
3.3572      45.       20.442      1972.9     244.2
3.3572      45.       20.452      1676.0     232.8
3.3572      45.       20.462      1543.0     221.8
3.3572      45.       20.472      1743.6     230.7
3.3572      45.       20.482      1954.8     228.9
3.3572      45.       20.492      2078.7     233.8
3.3572      45.       20.502      1444.4     209.3
3.3572      45.       20.512      2199.1     238.2
3.3572      45.       20.522      2010.4     231.3
3.3572      45.       20.532      1822.6     224.3
3.3572      45.       20.542      2712.6     256.0
3.3572      45.       20.552      2709.2     255.7
3.3572      45.       20.562      2268.0     245.6
3.3572      45.       20.572      2022.6     236.4
3.3572      45.       20.582      2594.5     256.8
3.3572      45.       20.592      2250.3     244.9
3.3572      45.       20.602      2301.9     246.7
3.3572      45.       20.612      2436.2     251.2
3.3572      45.       20.622      2005.1     235.7
3.3572      45.       20.632      2006.5     235.9
3.3572      45.       20.642      1814.9     228.5
3.3572      45.       20.652      1676.3     223.1
3.3572      45.       20.662      1829.9     228.9
3.3572      45.       20.672      1659.9     222.6
3.3572      45.       20.682      1486.1     202.9
3.3572      45.       20.692      1726.1     212.9
3.3572      45.       20.702      1383.2     198.5
3.3572      45.       20.712      1485.7     202.9
3.3572      45.       20.722      1588.8     207.2
3.3572      45.       20.732      1844.6     217.5
3.3572      45.       20.742      1534.6     228.8
3.3572      45.       20.752      1769.8     237.1
3.3572      45.       20.762      1293.5     219.3
3.3572      45.       20.772      1632.5     232.0
3.3572      45.       20.782      1648.2     232.5
3.3572      45.       20.792      1784.1     237.4
3.3572      70.       13.415      2772.8     319.5
3.3572      70.       13.425      2336.7     322.5
3.3572      70.       13.435      1682.8     289.1
3.3572      70.       13.445      2274.5     325.5
3.3572      70.       13.455      1806.8     302.2
3.3572      70.       13.465      1369.5     264.2
3.3572      70.       13.475      1460.9     269.3
3.3572      70.       13.485      1555.6     274.9
3.3572      70.       13.495      1432.2     267.9
3.3572      70.       13.505      1492.7     271.2
3.3572      70.       13.515      1711.8     283.7
3.3572      70.       13.525      1494.3     271.5
3.3572      70.       13.535      1307.4     260.5
3.3572      70.       13.545      1774.4     287.1
3.3572      70.       13.555      1463.2     269.7
3.3572      70.       13.565      1774.1     287.1
3.3572      70.       13.575      2739.9     335.6
3.3572      70.       13.585      2553.2     332.7
3.3572      70.       13.595      2304.4     320.8
3.3572      70.       13.605      2213.8     319.4
3.3572      70.       13.615      2896.6     348.5
3.3572      70.       13.625      2361.3     323.9
3.3572      70.       13.635      1648.9     286.9
3.3572      70.       13.645      1804.7     295.3
3.3572      70.       13.655      1866.9     298.6
3.3572      70.       13.665      1524.8     251.0
3.3572      70.       13.675      1835.8     269.6
3.3572      70.       13.685      1275.7     235.0
3.3572      70.       13.695      1805.1     267.9
3.3572      70.       13.705      1804.9     267.8
3.3572      70.       13.715      1369.2     241.1
3.3572      70.       13.725      1774.2     266.1
3.3572      70.       13.735      2209.9     290.5
3.3572      70.       13.745      2365.6     298.8
3.3572      70.       13.755      2707.6     316.1
3.3572      70.       13.765      2116.6     285.5
3.3572      70.       13.775      2147.4     287.1
3.3572      70.       13.785      2552.4     308.4
3.3572      70.       13.795      2427.8     302.0
3.3572      70.       13.805      2023.0     280.3
3.3572      70.       13.815      2178.7     288.8
3.3572      70.       13.825      2241.0     292.2
3.3572      70.       13.835      1929.8     275.1
3.3572      70.       13.845      2518.8     306.5
3.3572      70.       13.855      2273.8     294.1
3.3572      70.       13.865      2216.6     282.1
3.3572      70.       13.865      2492.1     305.5
3.3572      70.       13.875      3547.7     324.3
3.3572      70.       13.875      2335.9     297.3
3.3572      70.       13.885      3400.5     317.5
3.3572      70.       13.895      2690.3     282.3
3.3572      70.       13.895      2522.9     307.0
3.3572      70.       13.905      2423.6     267.9
3.3572      70.       13.915      2365.8     264.7
3.3572      70.       13.925      2244.5     257.7
3.3572      70.       13.935      2038.2     245.6
3.3572      70.       13.945      2097.4     249.1
3.3572      70.       13.955      1890.1     236.4
3.3572      70.       13.965      2567.2     275.5
3.3572      70.       13.975      2215.1     256.0
3.3572      70.       13.985      2065.6     247.1
3.3572      70.       13.995      2774.9     286.5
3.3572      70.       14.005      2011.2     271.2
3.3572      70.       14.015      2332.8     278.8
3.3572      70.       14.025      1449.2     227.3
3.3572      70.       14.035      1565.2     234.5
3.3572      70.       14.055      1416.5     270.6
3.3572      70.       14.065      1386.0     255.5
3.3572      70.       14.075      1091.4     237.9
3.3572      70.       14.095      1181.4     264.2
3.3572      70.       14.105      1540.2     284.2
3.3572      70.       14.115      1303.1     229.5
3.3572      70.       14.125      2161.3     285.7
3.3572      70.       14.135      2544.2     304.8
3.3572      70.       14.145      2395.5     297.4
3.3572      70.       14.155      2394.6     294.4
3.3572      70.       14.175      2128.1     307.3
3.3572      70.       14.185      2597.3     328.9
3.3572      70.       14.195      2307.7     316.1
3.3572      70.       14.205      2338.3     317.6
3.3572      70.       14.215      2363.1     318.3
3.3572      70.       14.225      2334.5     294.2
3.3572      70.       14.235      2689.5     311.6
3.3572      70.       14.245      2686.9     314.1
3.3572      70.       14.255      2038.2     282.0
3.3572      70.       14.265      1806.2     263.3
3.3572      70.       14.275      2423.6     295.8
3.3572      70.       14.285      2097.1     278.8
3.3572      70.       14.295      1657.6     254.8
3.3572      70.       14.305      1747.2     263.3
3.3572      70.       14.315      2041.7     279.3
3.3572      70.       14.325      1332.3     238.8
3.3572      70.       14.335      1715.1     261.3
3.3572      70.       14.345      1654.8     257.7
3.3572      70.       14.355      1123.7     225.3
3.3572      70.       14.365      1094.6     227.6
3.3572      70.       14.375      1181.1     228.8
3.3572      70.       14.385      1151.1     226.8
3.3572      70.       14.395      1475.6     243.5
3.3572      90.       15.341       855.3     176.4
3.3572      90.       15.351       697.0     161.6
3.3572      90.       15.361       633.6     155.2
3.3572      90.       15.371       506.8     141.7
3.3572      90.       15.381       633.5     155.2
3.3572      90.       15.391       696.9     161.6
3.3572      90.       15.401       506.9     141.7
3.3572      90.       15.411       760.3     167.7
3.3572      90.       15.421       823.6     113.5
3.3572      90.       15.431       823.6     173.5
3.3572      90.       15.441       665.2     158.4
3.3572      90.       15.451       886.9     179.2
3.3572      90.       15.461       886.9     179.2
3.3572      90.       15.471       855.2     176.4
3.3572      90.       15.481       696.8     161.5
3.3572      90.       15.491      1108.5     197.9
3.3572      90.       15.501      1076.9     210.2
3.3572      90.       15.511       918.5     197.8
3.3572      90.       15.521      1203.6     219.5
3.3572      90.       15.531      1836.9     241.4
3.3572      90.       15.541      1583.5     224.1
3.3572      90.       15.551      2122.1     259.4
3.3572      90.       15.611      2914.2     304.1
3.3572      90.       15.621      2597.3     287.1
3.3572      90.       15.631      1900.5     245.5
3.3572      90.       15.641      2248.7     267.1
3.3572      90.       15.651      2312.1     270.8
3.3572      90.       15.661      2153.7     261.4
3.3572      90.       15.671      1678.7     230.7
3.3572      90.       15.681      1203.6     195.3
3.3572      90.       15.691      1552.0     221.8
3.3572      90.       15.711      1425.3     212.6
3.3572      90.       15.721      1900.3     245.5
3.3572      90.       15.731      1710.3     232.9
3.3572      90.       15.741      1425.4     212.6
3.3572      90.       15.751      1425.3     212.6
3.3572      90.       15.761      1455.4     214.7
3.3572      90.       15.771      1330.2     205.4
3.3572      90.       15.781      1202.8     195.2
3.3572      90.       15.791      1330.2     205.3
3.3572      90.       15.801      1140.1     190.1
3.3572      90.       15.811      1013.4     179.2
3.3572      90.       15.821       949.0     173.3
3.3572      90.       15.831       665.1     145.2
3.3572      90.       15.841       855.1     164.6
3.3572      90.       15.851       886.8     167.6
3.3572      90.       15.861       886.8     167.6
3.3572      90.       15.871       760.9     155.4
3.3572      90.       15.881      1108.8     187.5
3.3572      90.       15.891      1013.4     179.2
3.3572      90.       15.901      1045.1     182.0
3.3572      90.       15.911      1266.9     200.4
3.3572      90.       15.921      1233.7     197.6
3.3572      90.       15.931       569.7     134.3
3.3572      90.       15.941       791.8     158.4
3.3572      90.       15.951       823.5     161.5
3.3572      90.       15.961       949.0     173.3
3.3572      90.       15.971       853.9     181.7
3.3572      90.       15.981      1043.8     197.6
3.3572      90.       15.991       791.2     164.5
3.3572      90.       16.001       696.8     155.2
3.3572      90.       16.011       981.8     182.0
3.3572      90.       16.021      1108.5     202.9
3.3572      90.       16.031      1140.3     200.4
3.3572      90.       16.041       791.9     170.0
3.3572      90.       16.051      1013.6     190.1
3.3572      90.       16.061      1012.1     189.8
3.3572      90.       16.071      1140.3     200.4
3.3572      90.       16.081      1108.3     197.8
3.3572      90.       16.091      1425.1     221.8
3.3572      90.       16.101      1710.1     241.3
3.3572      90.       16.111      1583.4     232.8
3.3572      90.       16.121      1202.0     205.1
3.3572      90.       16.131      1615.0     235.0
3.3572      90.       16.141      1330.0     214.9
3.3572      90.       16.151      1076.7     195.3
3.3572      90.       16.161       917.3     181.8
3.3572      90.       16.171      1235.0     207.7
3.3572      90.       16.181       855.0     176.4
3.3572      90.       16.191       981.6     187.4
3.3572      90.       16.201       886.6     179.2
3.3572      90.       16.211      1108.2     197.8
3.3572      90.       16.221       886.6     179.2
3.3572      90.       16.231      1201.6     205.0
3.3572      90.       16.241      1423.0     225.9
3.3572      90.       16.251       758.8     173.2
3.3572      90.       16.261       822.2     178.9
3.3572      90.       16.271      1139.9     205.3
3.3572     170.       13.415     11978.1    1668.0
3.3572     170.       13.425     13321.3    1608.8
3.3572     170.       13.435     12100.8    1636.4
3.3572     170.       13.445     14663.5    1729.6
3.3572     170.       13.455      9895.1    1758.3
3.3572     170.       13.465      7078.4    1610.2
3.3572     170.       13.475     12186.7    1542.7
3.3572     170.       13.485     10611.5    1712.8
3.3572     170.       13.495     12326.7    1972.7
3.3572     170.       13.505      8410.3    1594.4
3.3572     170.       13.515     15369.0    1843.4
3.3572     170.       13.525     14761.5    1994.8
3.3572     170.       13.535     15490.9    1949.3
3.3572     170.       13.545     23417.6    2044.2
3.3572     170.       13.555     19148.8    1911.4
3.3572     170.       13.565     19385.7    1956.9
3.3572     170.       13.575     20365.7    1987.8
3.3572     170.       13.585     14633.4    1751.7
3.3572     170.       13.595     13292.3    1704.2
3.3572     170.       13.605     11830.6    1650.9
3.3572     170.       13.615     14633.6    1708.8
3.3572     170.       13.625     13048.0    1650.9
3.3572     170.       13.635     14248.9    1844.3
3.3572     170.       13.645     11813.5    1761.7
3.3572     170.       13.655     13395.7    1979.8
3.3572     170.       13.665     11690.8    1757.3
3.3572     170.       13.675     14361.0    1847.9
3.3572     170.       13.685     18382.8    1844.5
3.3572     170.       13.695     12419.2    1634.1
3.3572     170.       13.705     16190.1    1770.0
3.3572     170.       13.715     13875.7    1687.9
3.3572     170.       13.725     10104.5    1545.5
3.3572     170.       13.735     10589.8    1564.4
3.3572     170.       13.745      4381.7    1430.0
3.3572     170.       13.755      8882.9    1610.3
3.3572     170.       13.765      8397.0    1646.8
3.3572     170.       13.775     12166.4    1780.8
3.3572     170.       13.785     13992.3    1583.3
3.3572     170.       13.795      9610.8    1403.8
3.3572     170.       13.805      1297.9    1299.2
3.3572     170.       13.815      4865.0    1354.6
3.3572     170.       13.825      6324.1    1418.6
3.3572     170.       13.835      6688.5    1434.1
3.3572     170.       13.845      4494.9    1336.5
3.3572     170.       13.855      5475.3    1198.6
3.3572     170.       13.865      2424.2    1900.4
3.3572     170.       13.865      4137.0    1128.6
3.3572     170.       13.875      1616.5    1395.2
3.3572     170.       13.875      4622.3    1128.3
3.3572     170.       13.885      3002.4    2688.5
3.3572     170.       13.895      2078.0    1574.5
3.3572     170.       13.895      4864.9    1321.4
3.3572     170.       13.905      1846.5    1264.2
3.3572     170.       13.915      2540.0    1478.6
3.3572     170.       14.115      1500.4    1088.8
3.3572     170.       14.125      3807.3    1350.5
3.3572     170.       14.135      5763.5    1630.4
3.3572     170.       14.145      6106.7    1425.5
3.3572     170.       14.155      9559.1    1452.9
3.3572     170.       14.175     15426.4    1777.5
3.3572     170.       14.185     13679.1    1879.4
3.3572     170.       14.195      8756.6    1554.9
3.3572     170.       14.205      6684.8    1344.5
3.3572     170.       14.215      8856.3    1432.6
3.3572     170.       14.225     11159.8    1726.5
3.3572     170.       14.235     10815.3    1595.1
3.3572     170.       14.245      7470.9    1467.8
3.3572     170.       14.255      8278.2    1674.5
3.3572     170.       14.265      8527.9    1686.3
3.3572     170.       14.275      2530.5    1897.1
3.3572     170.       14.285      2643.5    1835.4
3.3572     170.       14.333      3095.8     830.8
3.3572     170.       14.353      6191.3    1036.4
3.3572     170.       14.373     10151.2    1251.2
3.3572     170.       14.393     10892.8    1287.4
3.3572     170.       14.403     12007.5    1317.2
3.3572     170.       14.413      7673.3    1093.7
3.3572     170.       14.423      9901.1    1226.1
3.3572     170.       14.433      5693.3    1107.4
3.3572     170.       14.443      6188.0    1121.1
3.3572     170.       14.453      7425.0    1187.5
3.3572     170.       14.463      5815.9    1292.2
3.3572     170.       14.473      3589.0    1540.9
3.3572     170.       14.493     13358.0    1516.2
3.3572     170.       14.503     10637.4    1400.3
3.3572     170.       14.523     16324.4    1614.4
3.3572     170.       14.533     18177.2    1953.2
3.3572     170.       14.543     12239.8    1361.3
3.3572     170.       14.553     12239.0    1405.4
3.3572     170.       14.563     13351.1    1411.0
3.3572     170.       14.573     16814.7    1660.7
3.3572     170.       14.583     12734.0    1500.2
3.3572     170.       14.593     13845.6    1525.6
3.3572     170.       14.603     14216.4    1510.5
3.3572     170.       14.623     13724.0    1550.6
3.3572     170.       14.633     11866.9    1474.1
3.3572     170.       14.643     13596.6    1484.7
3.3572     170.       14.653     11661.7    1511.9
3.3572     170.       14.663     11861.8    1483.8
3.3572     170.       14.673     10130.7    1409.5
3.3572     170.       14.693      7660.6    1296.4
3.3572     170.       14.703      8028.8    1313.6
3.3572     170.       14.713      4570.6    1139.1
3.3572     170.       14.723      4693.7    1062.8
3.3572     170.       14.733      5928.7    1132.4
3.3572     170.       14.738      3480.8     998.2
3.3572     170.       14.743      4447.7    1048.6
3.3572     170.       14.748      4641.4    1249.9
3.3572     170.       14.753      2470.3     924.4
3.3572     170.       14.768      5803.2    1343.8
3.3572     170.       14.768      4758.8    1407.4
3.3572     170.       14.778      3132.2    1154.4
3.3572     170.       14.788      4060.2    1499.2
3.3572     170.       14.798      4754.7    1188.5
3.3572     170.       14.808      4523.4    1177.3
3.3572     170.       14.818      1855.3     836.2
3.3572     170.       14.828      1855.1     836.1
3.3572     170.       14.838      2666.5    1130.1
3.3572     170.       14.848      3477.6     970.0
3.3572     170.       14.858      4636.6    1037.0
3.3572     170.       14.868      3593.3     905.5
3.3572     170.       14.878      3360.8     890.3
3.3572     170.       14.888      4635.2     969.8
3.3572     170.       14.898      5678.3    1030.3
3.3572     170.       14.908      4055.5     934.4
3.3572     170.       14.918      7068.1    1141.7
3.3572     170.       14.928     10080.2    1296.3
3.3572     170.       14.938      8226.1    1210.3
3.3572     170.       14.948      5445.0    1055.8
3.3572     170.       14.958      5676.3    1016.9
3.3572     170.       14.968      4633.3     955.4
3.3572     170.       14.978      7065.6    1093.3
3.3572     170.       14.988      4401.6     941.3
3.3572     170.       14.998      6022.7    1030.3
3.3572     170.       15.008      4400.8     941.1
3.3572     170.       15.018      4748.0     962.2
3.3572     170.       15.028      4746.8     962.0
3.3572     170.       15.038      5441.5    1003.0
3.3572     170.       15.048      4283.8     933.7
3.3572     170.       15.058      4746.5     947.9
3.3572     170.       15.068      3126.3    1220.0
3.3572     170.       15.078      4514.7    1284.0
3.3572     170.       15.088      4398.9    1146.2
3.3572     170.       15.098      3472.5    1098.2
3.3572     170.       15.108      3009.3    1009.1
3.3572     170.       15.118      3125.0    1015.7
3.3572     170.       15.128      3240.2     881.5
3.3572     170.       15.138      3355.7     889.0
3.3572     170.       15.148      2545.5     834.4
3.3572     170.       15.158      4049.4     933.0
3.3572     170.       15.168      1388.3     865.8
3.3572     170.       15.178      1272.1    1219.0
3.3572     170.       15.341      4272.6    1119.9
3.3572     170.       15.351      7054.7    1307.3
3.3572     170.       15.361      4470.9    1065.7
3.3572     170.       15.371      5762.0    1184.1
3.3572     170.       15.381      3973.5    1032.5
3.3572     170.       15.391      2384.0     952.9
3.3572     170.       15.401      4966.5    1150.1
3.3572     170.       15.411      3277.6     915.8
3.3572     170.       15.421      3674.7    1046.5
3.3572     170.       15.431      2284.1     978.1
3.3572     170.       15.441      2681.1     998.0
3.3572     170.       15.451      2383.0     983.0
3.3572     170.       15.461      2184.2     899.1
3.3572     170.       15.471      3574.0     972.9
3.3572     170.       15.501      2481.5    1055.2
3.3572     170.       15.511      4367.2    1140.5
3.3572     170.       15.521      9230.2    1414.8
3.3572     170.       15.531     11511.4    1124.1
3.3572     170.       15.541     10319.8    1279.4
3.3572     170.       15.551     13495.6    1397.8
3.3572     170.       15.611      7936.9    1339.0
3.3572     170.       15.621      7836.8    1170.1
3.3572     170.       15.631      6745.6    1148.8
3.3572     170.       15.641      7240.5    1169.9
3.3572     170.       15.651      6843.5    1152.8
3.3572     170.       15.661      6248.0    1126.8
3.3572     170.       15.671      7239.5    1169.7
3.3572     170.       15.681      9222.4    1251.2
3.3572     170.       15.691      9618.4    1266.8
3.3572     170.       15.711     10609.2    1305.1
3.3572     170.       15.721      5651.1    1054.2
3.3572     170.       15.731      5948.2    1130.7
3.3572     170.       15.741      1685.5     966.4
3.3572     170.       15.751      1387.8     950.8
3.3572     170.       15.761      1881.3     760.6
3.3572     170.       15.771      1982.3     700.9
3.3572     170.       15.831      3368.9     829.2
3.3572     170.       15.841      3864.1     924.3
3.3572     170.       15.851      3864.1     924.3
3.3572     170.       15.861      2872.9     869.4
3.3572     170.       15.871      2677.7     986.8
3.3572     170.       15.881      4161.6    1076.5
3.3572     170.       15.891      4457.2    1176.3
3.3572     170.       15.901      4754.1    1221.3
3.3572     170.       15.911      5051.4    1354.7
3.3572     170.       15.921      3759.0    1440.4
3.3572     170.       15.931      4156.9    1454.7
3.3572     170.       15.941      2376.9    1393.6
3.3572     170.       15.951      1287.4    1295.0
3.3572     170.       15.961      4153.7    1312.2
3.3572     170.       15.971      1977.4    1289.2
3.3572     170.       15.981       791.0    1178.3
3.3572     170.       15.991      4253.9    1316.3
3.3572     170.       16.001      2178.0    1236.5
3.3572     170.       16.011      6138.0    1386.3
3.3572     170.       16.021      5048.8    1346.7
3.3572     170.       16.031      5247.1    1294.9
3.3572     170.       16.041      3959.9    1244.5
3.3572     170.       16.051      2573.6    1212.4
3.3572     170.       16.061      3360.3    1273.5
3.3572     170.       16.071      4453.9    1240.4
3.3572     170.       16.081      4254.8     879.7
3.3572     170.       16.091      4650.8    1023.8
3.3572     170.       16.101      4056.8    1052.0
3.3572     170.       16.111      3363.8    1018.7
3.3572     170.       16.121      3458.5     855.9
3.3572     170.       16.131      2275.2     785.2
3.3572     170.       16.141      1483.8     912.0
3.3572     170.       16.151      1187.0     895.7
3.3572     170.       16.241      2764.6     777.6
3.3572     170.       16.251      2665.2     771.1
3.3572     170.       16.257      8032.1    1639.8
3.3572     170.       16.261      4146.6     860.9
3.3572     170.       16.267     11474.5    1746.3
3.3572     170.       16.271      5832.1     953.7
3.3572     170.       16.277      9700.4    1692.1
3.3572     170.       16.287      9907.8    1613.0
3.3572     170.       16.297      9699.2    1606.2
3.3572     170.       16.307      6776.8    1507.6
3.3572     170.       16.317     10218.1    1622.7
3.3572     170.       16.327      8028.2    1441.4
3.3572     170.       16.337      9904.3    1507.9
3.3572     170.       16.347     10011.8    1643.0
3.3572     170.       16.357     10428.8    1656.2
3.3572     170.       16.367      6464.9    1525.7
3.3572     170.       16.377      5317.9    1485.9
3.3572     170.       16.387      6045.6    1510.8
3.3572     170.       16.397      6774.2    1535.6
3.3572     170.       16.407      9180.4    1801.4
3.3572     170.       16.417      7407.0    1672.8
3.3572     170.       16.427      9284.2    1558.4
3.3572     170.       16.437      6570.4    1464.1
3.3572     170.       16.447      8446.1    1599.0
3.3572     170.       16.457      4275.4    1456.3
3.3572     170.       16.467      6985.6    1550.3
3.3572     170.       16.477      4379.2    1459.9
3.3572     170.       16.487      5734.2    1193.6
3.3572     170.       16.497      5942.5    1281.4
3.3572     170.       16.507      7191.9    1331.1
3.3572     170.       16.517      5424.0    1216.7
3.3572     170.       16.527      4485.2    1175.7
3.3572     170.       16.537      5842.5    1739.7
3.3572     170.       16.547      2920.9    1649.5
3.3572     170.       16.557      5113.9    1810.8
3.3572     170.       16.567      4588.0    1581.5
3.3572     170.       16.577      5947.3    1544.3
3.3572     170.       16.587      4913.0    1429.6
3.3572     170.       16.597      7630.8    1489.8
3.3572     170.       16.607      6267.4    1245.1
3.3572     170.       16.617      4910.0    1100.9
3.3572     170.       16.627      8148.6    1209.9
3.3572     170.       16.637     10341.7    1267.4
3.3572     170.       16.647     10970.6    1293.4
3.3572     170.       16.657      8669.4    1196.2
3.3572     170.       16.667     11074.6    1297.5
3.3572     170.       16.677      9402.5    1228.0
3.3572     170.       16.687      9086.3    1214.2
3.3572     170.       16.697      9088.0    1214.4
3.3572     170.       16.707      5327.4    1039.6
3.3572     170.       16.717      3341.8     934.2
3.3572     170.       16.727      5640.3    1163.4
3.3572     170.       16.737      5745.4    1168.2
3.3572     170.       16.747      4997.7    1140.5
3.3572     170.       16.757      3707.5    1054.1
3.3572     170.       16.767      5229.4    1117.0
3.3572     170.       16.777      4079.8    1061.9
3.3572     170.       16.787      4858.3    1107.9
3.3572     170.       16.797      3862.5    1073.1
3.3572     170.       16.807      4593.6    1071.8
3.3572     170.       16.817      4810.9    1115.3
3.3572     170.       16.827      3219.3     923.2
3.3572     170.       16.837      5827.9    1054.7
3.3572     170.       16.847      3500.8    1023.2
3.3572     170.       16.857      5240.9    1131.9
3.3572     170.       16.867      8558.3    1328.2
3.3572     170.       16.877      9268.4    1341.2
3.3572     170.       16.887      8583.8    1332.1
3.3572     170.       16.897      9626.6    1725.3
3.3572     170.       16.907      9948.4    1720.2
3.3572     170.       16.917      6354.3    1444.7
3.3572     170.       16.927     13430.2    1952.7
3.3572     170.       16.937     12749.9    1531.7
3.3572     170.       16.947     11582.0    1381.9
3.3572     170.       16.957     13681.7    1459.7
3.3572     170.       16.967     10945.8    1298.8
3.3572     170.       16.977      9916.7    1275.0
3.3572     170.       16.987      8856.2    1193.2
3.3572     170.       16.997      6982.2    1108.3
3.3572     170.       17.037      5208.4    1042.0
3.3572     170.       17.047      6458.0    1062.7
3.3572     170.       17.057      8436.5    1477.2
3.3572     170.       17.067      8331.5    1317.9
3.3572     170.       17.077     11142.2    1346.1
3.3572     170.       17.087     14474.2    1470.5
3.3572     170.       17.097     17909.8    1588.2
3.3572     170.       17.104     14170.1    1236.2
3.3572     170.       17.107     14055.4    1455.3
3.3572     170.       17.114     14737.5    1874.7
3.3572     170.       17.117     21657.0    1745.1
3.3572     170.       17.124     22294.5    2006.6
3.3572     170.       17.127     24572.6    1866.0
3.3572     170.       17.134     17875.8    2167.2
3.3572     170.       17.137     23559.6    1790.8
3.3572     170.       17.144     15934.8    1771.5
3.3572     170.       17.154     18839.6    1882.7
3.3572     170.       17.164     13164.1    1916.1
3.3572     170.       17.174     12244.7    1789.5
3.3572     170.       17.184     10173.7    1706.8
3.3572     170.       17.194      9901.3    1684.9
3.3572     170.       17.204      9620.9    1672.7
3.3572     170.       17.214     11952.1    1765.6
3.3572     170.       17.224      8799.8    1544.0
3.3572     170.       17.234      7967.4    1332.4
3.3572     170.       17.234      7967.4    1332.4
3.3572     170.       17.254     10871.0    2018.4
3.3572     170.       17.264      7703.5    1783.4
3.3572     170.       17.274      7154.8    1762.4
3.3572     170.       17.284      6741.7    1513.8
3.3572     170.       17.294      7291.0    1538.6
3.3572     170.       17.304      7702.1    1616.1
3.3572     170.       17.314      8394.8    1638.9
3.3572     170.       17.324      8793.9    1493.2
3.3572     170.       17.334      8385.3    1253.0
3.3572     170.       17.344      7834.4    1311.7
3.3572     170.       17.354      7422.0    1289.8
3.3572     170.       17.364      6594.3    1530.1
3.3572     170.       17.374      5773.2    1493.4
3.3572     170.       17.383      3375.1     395.4
3.3572     170.       17.384      6734.2    1395.2
3.3572     170.       17.393      3535.9     404.0
3.3572     170.       17.394      6044.0    1332.1
3.3572     170.       17.403      3609.8     389.0
3.3572     170.       17.404      7007.4    1237.1
3.3572     170.       17.413      4978.8     457.6
3.3572     170.       17.414      3159.2     981.0
3.3572     170.       17.423      4805.3     451.0
3.3572     170.       17.424      5081.9    1107.6
3.3572     170.       17.433      3856.1     406.1
3.3572     170.       17.434      7830.4    1267.1
3.3572     170.       17.443      2661.7     342.1
3.3572     170.       17.444      7416.0    1244.1
3.3572     170.       17.453      2135.7     299.3
3.3572     170.       17.454      6866.5    1213.3
3.3572     170.       17.463      2619.7     347.7
3.3572     170.       17.473      2767.3     355.7
3.3572     170.       17.474      5352.2    1123.6
3.3572     170.       17.483      2626.4     348.6
3.3572     170.       17.484      6178.9    1157.4
3.3572     170.       17.493      2381.2     309.4
3.3572     170.       17.503      1890.8     284.6
3.3572     170.       17.504      6590.3    1243.7
3.3572     170.       17.513      1925.7     286.7
3.3572     170.       17.523      2520.9     321.1
3.3572     170.       17.524      4118.7    1098.5
3.3572     170.       17.533      3045.8     348.6
3.3572     170.       17.543      4095.9     398.0
3.3572     170.       17.544      4804.8    1107.0
3.3572     170.       17.553      4655.9     422.0
3.3572     170.       17.563      4025.4     394.8
3.3572     170.       17.564      5768.9    1479.6
3.3572     170.       17.573      3605.3     375.6
3.3572     170.       17.583      3780.2     383.7
3.3572     170.       17.584      9744.9    1251.3
3.3572     170.       17.593      3955.1     391.7
3.3572     170.       17.603      4479.8     414.5
3.3572     170.       17.613      4234.6     404.0
3.3572     170.       17.623      3394.6     365.6
3.3572     170.       17.633      3569.4     373.9
3.3572     170.       17.643      3639.2     380.4
3.3572     170.       17.653      3429.0     370.6
3.3572     170.       17.663      3988.7     396.2
3.3572     170.       17.673      3918.6     393.1
3.3572     170.       17.683      3709.1     234.9
3.3572     170.       17.703      3207.5     211.3
3.3572     170.       17.723      2297.6     184.3
3.3572     170.       17.743       839.7     120.1
3.3572     170.       17.763       699.7     113.1
3.3572     170.       17.793       454.8      99.6
3.3572     170.       17.803       478.0     105.0
3.3572     170.       17.823       909.4     126.7
3.3572     170.       17.843       536.2     108.1
3.3572     170.       17.863       291.4      94.0
3.3572     170.       17.883       291.4      91.0
3.3572     170.       17.903       396.3      97.5
3.3572     170.       17.923       313.0      96.1
3.3572     170.       17.943       536.1     105.6
3.3572     170.       17.963       384.5      96.8
3.3572     170.       17.983       256.3      88.7
3.3572     170.       18.003       384.5      96.8
3.3572     170.       18.023       407.7      98.2
3.3572     170.       18.043       361.1      91.0
3.3572     170.       18.063       244.6      83.2
3.3572     170.       18.083       384.4      92.5
3.3572     170.       18.103       326.1      88.7
3.3572     170.       18.123       221.3      81.5
3.3572     170.       18.143       209.6      80.1
3.3572     170.       18.163       417.4      98.1
3.3572     170.       18.223       523.8     100.8
3.3572     170.       18.243       686.8     109.8
3.3572     170.       18.263       209.5      75.4
3.3572     170.       18.283       302.6      83.9
3.3572     170.       18.303       384.0      92.4
3.3572     170.       18.323       430.5      86.3
3.3572     170.       18.343       442.2      87.1
3.3572     170.       18.363       430.5      84.7
3.3572     170.       18.383       151.2      62.1
3.3572     170.       18.403       488.6      88.6
3.3572     170.       18.423       546.8      92.4
3.3572     170.       18.443       325.7      73.6
ENDDATA           2173
ENDSUBENT         2182
ENDENTRY             3
