ENTRY            C0516   19990729   19991118
SUBENT        C0516001   19990729   19991118
BIB                 14         33
INSTITUTE  (1USAPEN)
REFERENCE  (J,PR/C,45,576,199202)
           (T,LAYMON,,1989)
AUTHOR     (C.M.LAYMON,K.D.BROWN,D.P.BALAMUTH)
TITLE      [16O(0(2)+)+a] parentage of comtinuum levels in 20Ne.
FACILITY   (VDGT,1USAPEN) University of Pennsylvania 10 MV tandem
            accelerator.
SAMPLE     Self-supporting SiO2 (quartz) foil targets. Thickness
            ranged from 37 to 71 microg/cm**2.
METHOD     (COINC) Alpha-particle energy spectra recorded in
            coincidence with electron-positron pair decay
            radiation.
DETECTOR   (COIN,GELI,SCIN) Silicon surface-barrier detectors
            for alphas and a thin (0.4 mm) antracene crystal
            for electron-positron pair decay radiation.
MONITOR    (8-O-16(A,EL)8-O-16,,DA)
            Target thickness determined by comparison with
            elastic scattering around 13 MeV.
MONIT-REF  (,G.CASKEY,J,PR/C,31,717,1985)
CORRECTION Corrected for accidental coincidences.
ERR-ANALYS (DATA-ERR) Overall normalization uncertainty of 7%
            resulting from adding in quadrature:
            . uncertainty of relative normalizaion of the data
              to the elastic scattering data (6%);
            . uncertainty in the overall normalization of the
              elastic data (2%);
            . uncertainty in electron detector efficiency (3%).
            Uncertainty in beam energy estimated to be about 0.1%,
            Uncertainty in detector laboratory angles about 0.5
             degrees. Relative detector solid angle uncertainties
             estimated to be 4%.
STATUS     No reply from C. Laymon to author proof.
HISTORY    (19990420C)
ENDBIB              33
NOCOMMON             0          0
ENDSUBENT           36
SUBENT        C0516002   19990420   19991118
BIB                  2          3
REACTION   (8-O-16(A,INL)8-O-16,PAR,DA)
STATUS     Data for selected energies taken from Table A-1 of the
            Laymon thesis.
ENDBIB               3
COMMON               2          3
E-LVL      MONIT-ERR
MEV        PER-CENT
  6.05       6.
ENDCOMMON            3
DATA                 4       1718
EN         ANG-CM     DATA       DATA-ERR
MEV        ADEG       MB/SR      MB/SR
   10.200      36.27   0.2876E+01   0.10E+01
   10.200      54.93   0.1536E+01   0.17E+00
   10.200      64.67   0.1872E+01   0.10E+01
   10.200      82.02   0.1749E+01   0.17E+00
   10.200      90.87   0.1421E+01   0.10E+01
   10.200     106.20   0.8008E+00   0.13E+00
   10.200     132.89   0.7276E+00   0.10E+01
   10.200     139.50   0.8899E+00   0.14E+00
   10.200     143.39   0.8132E+00   0.15E+00
   10.200     148.39   0.1296E+01   0.10E+01
   10.200     149.10   0.1042E+01   0.10E+01
   10.200     156.89   0.1638E+01   0.19E+00
   10.200     161.10   0.1749E+01   0.10E+01
   10.200     168.40   0.1956E+01   0.20E+00
   10.250      36.18   0.18555+01   0.42E+00
   10.250      54.80   0.1558E+01   0.17E+00
   10.250      64.53   0.2357E+01   0.42E+00
   10.250      81.83   0.2192E+01   0.19E+00
   10.250      90.67   0.2364E+01   0.42E+00
   10.250     106.00   0.1177E+01   0.16E+00
   10.250     132.70   0.6941E+00   0.42E+00
   10.250     139.30   0.7283E+00   0.13E+00
   10.250     143.20   0.1567E+01   0.22E+00
   10.250     148.20   0.1276E+01   0.42E+00
   10.250     148.89   0.9275E+00   0.42E+00
   10.250     156.80   0.1295E+01   0.17E+00
   10.250     161.00   0.1777E+01   0.42E+00
   10.250     168.30   0.1824E+01   0.20E+00
   10.300      36.11   0.4891E+01   0.12E+01
   10.300      54.68   0.2432E+01   0.30E+00
   10.300      64.39   0.2360E+01   0.12E+01
   10.300      81.66   0.1876E+01   0.25E+00
   10.300      90.48   0.1791E+00   0.12E+01
   10.300     105.80   0.9341E+00   0.20E+00
   10.300     132.50   0.9656E+00   0.12E+01
   10.300     139.10   0.6590E+00   0.17E+00
   10.300     143.00   0.5789E+00   0.16E+00
   10.300     148.10   0.8310E+00   0.12E+01
   10.300     148.80   0.8347E+00   0.12E+01
   10.300     156.60   0.8559E+00   0.19E+00
   10.300     160.89   0.9407E+00   0.12E+01
   10.300     168.20   0.8298E+00   0.28E+00
   10.350      36.03   0.4454E+01   0.47E+00
   10.350      54.57   0.3883E+01   0.38E+00
   10.350      64.25   0.5426E+01   0.47E+00
   10.350      81.49   0.8274E+01   0.53E+00
   10.350      90.29   0.8279E+01   0.47E+00
   10.350     105.60   0.4359E+01   0.44E+00
   10.350     132.30   0.1722E+00   0.47E+00
   10.350     139.00   0.4367E+00   0.19E+00
   10.350     142.80   0.8845E+00   0.27E+00
   10.350     147.89   0.1551E+01   0.47E+00
   10.350     148.60   0.1495E+01   0.47E+00
   10.350     156.50   0.2331E+01   0.31E+00
   10.350     160.80   0.4059E+01   0.47E+00
   10.350     168.10   0.5905E+01   0.64E+00
   10.400      35.96   0.2870E+01   0.62E+00
   10.400      54.45   0.3117E+01   0.34E+00
   10.400      64.12   0.7594E+01   0.62E+00
   10.400      81.33   0.1233E+02   0.65E+00
   10.400      90.12   0.1236E+02   0.62E+00
   10.400     105.40   0.5648E+01   0.50E+00
   10.400     132.10   0.5468E+00   0.62E+00
   10.400     138.80   0.8251E+00   0.19E+00
   10.400     142.60   0.4350E+01   0.62E+00
   10.400     147.80   0.5079E+01   0.62E+00
   10.400     148.50   0.4546E+01   0.62E+00
   10.400     156.39   0.8564E+01   0.60E+00
   10.400     160.70   0.1137E+02   0.62E+00
   10.400     168.10   0.1456E+02   0.87E+00
   10.450      35.88   0.1048E+01   0.15E+00
   10.450      54.34   0.3239E+01   0.35E+00
   10.450      63.99   0.7989E+01   0.15E+00
   10.450      81.17   0.1696E+02   0.76E+00
   10.450      89.94   0.1693E+02   0.15E+00
   10.450     105.20   0.7026E+01   0.56E+00
   10.450     131.89   0.7859E+00   0.15E+00
   10.450     138.60   0.3239E+01   0.37E+00
   10.450     142.50   0.6942E+01   0.55E+00
   10.450     147.60   0.1086E+02   0.15E+00
   10.450     148.30   0.9974E+01   0.15E+00
   10.450     156.30   0.1839E+02   0.87E+00
   10.450     160.50   0.2594E+02   0.15E+00
   10.450     168.00   0.3060E+02   0.11E+01
   10.500      35.81   0.2483E+01   0.74E+00
   10.500      54.24   0.1524E+01   0.27E+00
   10.500      63.86   0.4955E+01   0.74E+00
   10.500      81.01   0.1281E+02   0.76E+00
   10.500      89.77   0.1301E+02   0.74E+00
   10.500     105.00   0.7548E+01   0.73E+00
   10.500     131.80   0.7118E+00   0.74E+00
   10.500     138.39   0.2600E+01   0.44E+00
   10.500     142.30   0.8792E+01   0.71E+00
   10.500     147.39   0.1135E+02   0.74E+00
   10.500     148.20   0.1193E+02   0.74E+00
   10.500     156.10   0.1970E+02   0.10E+01
   10.500     160.39   0.2902E+02   0.74E+00
   10.500     167.90   0.3499E+02   0.14E+01
   10.550      35.74   0.1884E+01   0.31E+00
   10.550      54.13   0.2848E+01   0.33E+00
   10.550      63.74   0.4600E+01   0.31E+00
   10.550      80.86   0.7101E+01   0.49E+00
   10.550      89.61   0.8471E+01   0.31E+00
   10.550     104.80   0.3957E+01   0.42E+00
   10.550     131.60   0.4403E+00   0.31E+00
   10.550     138.20   0.2521E+01   0.33E+00
   10.550     142.10   0.4227E+01   0.43E+00
   10.550     147.30   0.6192E+01   0.31E+00
   10.550     148.00   0.5967E+01   0.31E+00
   10.550     156.00   0.1247E+02   0.71E+00
   10.550     160.30   0.1430E+02   0.31E+00
   10.550     167.90   0.1886E+01   0.86E+00
   10.600      35.68   0.1409E+01   0.47E+00
   10.600      54.03   0.1325E+01   0.19E+00
   10.600      63.62   0.3244E+01   0.47E+00
   10.600      80.72   0.5077E+01   0.36E+00
   10.600      89.45   0.4894E+01   0.47E+00
   10.600     104.60   0.1667E+01   0.24E+00
   10.600     131.39   0.6411E+00   0.47E+00
   10.600     138.10   0.1180E+01   0.19E+00
   10.600     142.00   0.2252E+01   0.27E+00
   10.600     147.20   0.2524E+01   0.47E+00
   10.600     147.89   0.2136E+01   0.47E+00
   10.600     155.89   0.5931E+01   0.42E+00
   10.600     160.20   0.7020E+01   0.47E+00
   10.600     167.80   0.9278E+01   0.52E+00
   10.650      53.93   0.7917E+00   0.15E+00
   10.650      80.57   0.1246E+01   0.18E+00
   10.650     104.50   0.3702E+01   0.35E+00
   10.650     137.89   0.4443E+00   0.12E+00
   10.650     141.80   0.1887E+01   0.25E+00
   10.650     155.80   0.1177E+02   0.60E+00
   10.650     167.70   0.2098E+02   0.78E+00
   10.700      35.55   0.1010E+01   0.22E+00
   10.700      53.84   0.3572E+01   0.31E+00
   10.700      63.40   0.3805E+01   0.22E+00
   10.700      80.44   0.2425E+01   0.25E+00
   10.700      89.15   0.1794E+01   0.22E+00
   10.700     104.30   0.1828E+01   0.24E+00
   10.700     131.10   0.3008E+00   0.22E+00
   10.700     137.80   0.6985E+00   0.15E+00
   10.700     141.70   0.4895E+00   0.46E+00
   10.700     146.89   0.2653E+01   0.22E+00
   10.700     147.60   0.2603E+01   0.22E+00
   10.700     155.70   0.6478E+01   0.43E+00
   10.700     160.10   0.9043E+01   0.22E+00
   10.700     167.70   0.1187E+02   0.63E+00
   10.725      25.47   0.1508E+00   0.36E-01
   10.725      32.66   0.3639E+00   0.39E-01
   10.725      46.84   0.9140E+00   0.64E-01
   10.725      60.64   0.3689E+01   0.13E+00
   10.725      73.95   0.2908E+01   0.13E+00
   10.725      80.37   0.2161E+01   0.97E-01
   10.725      92.70   0.1572E+01   0.89E-01
   10.725      98.57   0.1382E+01   0.87E-01
   10.725     104.24   0.1305E+01   0.88E-01
   10.725     114.91   0.1181E+01   0.91E-01
   10.725     124.69   0.7262E+00   0.72E-01
   10.725     133.57   0.8049E+00   0.83E-01
   10.725     148.95   0.1655E+01   0.13E+00
   10.725     161.84   0.7879E+01   0.38E+00
   10.725     170.47   0.1048E+02   0.40E+00
   10.750      25.44   0.2043E+00   0.41E-01
   10.750      32.63   0.3674E+00   0.39E-01
   10.750      46.80   0.1046E+01   0.68E-01
   10.750      60.59   0.3471E+01   0.13E+00
   10.750      73.88   0.2775E+01   0.12E+00
   10.750      80.31   0.2114E+01   0.95E-01
   10.750      92.62   0.1242E+01   0.78E-01
   10.750      98.50   0.9395E+00   0.70E-01
   10.750     104.16   0.8525E+00   0.70E-01
   10.750     114.83   0.7070E+00   0.69E-01
   10.750     124.61   0.6502E+00   0.67E-01
   10.750     133.50   0.9250E+00   0.88E-01
   10.750     148.88   0.1429E+01   0.12E+00
   10.750     161.80   0.5285E+01   0.31E+00
   10.750     170.44   0.7106E+01   0.32E+00
   10.770      25.42   0.2950E+00   0.50E-01
   10.775      46.76   0.1317E+01   0.78E-01
   10.775      60.54   0.3922E+01   0.14E+00
   10.775      73.82   0.2729E+01   0.12E+00
   10.775      80.24   0.1674E+01   0.86E-01
   10.775      92.55   0.8013E+00   0.64E-01
   10.775      98.42   0.7939E+00   0.66E-01
   10.775     104.08   0.5775E+00   0.58E-01
   10.775     114.75   0.5738E+00   0.63E-01
   10.775     124.53   0.4747E+00   0.58E-01
   10.775     133.42   0.6829E+00   0.77E-01
   10.775     148.82   0.1093E+01   0.11E+00
   10.775     161.76   0.4568E+01   0.29E+00
   10.775     170.42   0.6134E+01   0.30E+00
   10.800      25.40   0.4568E+00   0.62E-01
   10.800      32.57   0.4455E+00   0.43E-01
   10.800      46.72   0.1234E+01   0.75E-01
   10.800      60.49   0.3614E+01   0.13E+00
   10.800      73.76   0.2399E+01   0.11E+00
   10.800      80.17   0.1786E+01   0.88E-01
   10.800      92.48   0.5505E+00   0.52E-01
   10.800      98.34   0.4601E+00   0.50E-01
   10.800     104.00   0.3536E+00   0.45E-01
   10.800     114.67   0.4196E+00   0.54E-01
   10.800     124.45   0.3886E+00   0.52E-01
   10.800     133.34   0.6196E+00   0.73E-01
   10.800     148.76   0.1270E+01   0.11E+00
   10.800     161.72   0.4038E+01   0.27E+00
   10.800     170.40   0.5406E+01   0.28E+00
   10.825      25.38   0.2030E+00   0.41E-01
   10.825      32.55   0.4580E+00   0.44E-01
   10.825      46.68   0.1220E+01   0.75E-01
   10.825      60.44   0.3051E+01   0.12E+00
   10.825      73.70   0.2491E+01   0.12E+00
   10.825      80.11   0.1672E+01   0.86E-01
   10.825      92.41   0.7314E+00   0.61E-01
   10.825      98.27   0.3319E+00   0.42E-01
   10.825     103.93   0.2122E+00   0.35E-01
   10.825     114.59   0.3705E+00   0.51E-01
   10.825     124.37   0.3229E+00   0.48E-01
   10.825     133.27   0.5340E+00   0.68E-01
   10.825     148.70   0.6839E+00   0.83E-01
   10.825     161.68   0.2432E+01   0.21E+00
   10.825     170.38   0.4568E+01   0.26E+00
   10.850      25.36   0.9233E+00   0.88E-01
   10.850      32.52   0.5107E+00   0.47E-01
   10.850      46.64   0.1222E+01   0.75E-01
   10.850      60.39   0.3100E+01   0.12E+00
   10.850      73.64   0.2311E+01   0.11E+00
   10.850      80.05   0.1762E+01   0.88E-01
   10.850      92.34   0.6409E+00   0.57E-01
   10.850      98.20   0.3319E+00   0.43E-01
   10.850     103.85   0.2122E+00   0.35E-00
   10.850     114.51   0.3563E+00   0.50E-00
   10.850     124.29   0.4587E+00   0.57E-01
   10.850     133.20   0.5159E+00   0.67E-01
   10.850     148.64   0.7019E+00   0.84E-01
   10.850     161.64   0.2569E+01   0.22E+00
   10.850     170.36   0.3116E+01   0.21E+00
   10.875      25.34   0.1609E+01   0.11E+00
   10.875      32.49   0.9857E+00   0.64E-01
   10.875      46.60   0.7433E+00   0.58E-01
   10.875      60.34   0.1632E+01   0.89E-01
   10.875      73.58   0.1318E+01   0.84E-01
   10.875      79.98   0.1109E+01   0.69E-01
   10.875      92.27   0.6205E+00   0.55E-01
   10.875      98.12   0.5847E+00   0.55E-01
   10.875     103.78   0.4562E+00   0.51E-01
   10.875     114.44   0.4257E+00   0.54E-01
   10.875     124.22   0.3672E+00   0.50E-01
   10.875     133.12   0.1910E+00   0.40E-01
   10.875     148.58   0.5418E+00   0.72E-01
   10.875     161.60   0.2017E+01   0.19E+00
   10.875     170.34   0.2191E+01   0.18E+00
   10.900      25.32   0.8525E+00   0.84E-01
   10.900      32.47   0.9095E+00   0.62E-01
   10.900      46.56   0.6841E+00   0.56E-01
   10.900      60.29   0.9484E+00   0.68E-01
   10.900      73.53   0.7030E+00   0.62E-01
   10.900      79.92   0.6509E+00   0.53E-01
   10.900      92.20   0.5366E+00   0.52E-01
   10.900      98.05   0.6265E+00   0.58E-01
   10.900     103.70   0.4753E+00   0.52E-01
   10.900     114.36   0.4530E+00   0.56E-01
   10.900     124.14   0.3868E+00   0.52E-01
   10.900     133.05   0.1433E+00   0.35E-01
   10.900     148.53   0.5099E+00   0.71E-01
   10.900     161.56   0.2418E+01   0.21E+00
   10.900     170.32   0.2607E+01   0.19E+00
   10.925      25.30   0.6298E+00   0.73E-01
   10.925      32.44   0.7043E+00   0.55E-01
   10.925      46.53   0.8625E+00   0.63E-01
   10.925      60.24   0.1301E+01   0.81E-01
   10.925      73.47   0.9040E+00   0.71E-01
   10.925      79.86   0.7065E+00   0.56E-01
   10.925      92.13   0.5155E+00   0.51E-01
   10.925      97.98   0.5173E+00   0.53E-01
   10.925     103.63   0.4597E+00   0.52E-01
   10.925     114.29   0.4046E+00   0.53E-01
   10.925     124.07   0.4143E+00   0.54E-01
   10.925     132.98   0.2053E+00   0.42E-01
   10.925     148.47   0.5367E+00   0.73E-01
   10.925     170.30   0.2275E+01   0.18E+00
   10.950      25.28   0.5796E+00   0.70E-01
   10.950      32.41   0.6270E+00   0.52E-01
   10.950      46.49   0.8036E+00   0.61E-01
   10.950      60.20   0.1107E+01   0.74E-01
   10.950      73.41   0.7439E+00   0.64E-01
   10.950      79.80   0.7778E+00   0.59E-01
   10.950      92.06   0.6472E+00   0.57E-01
   10.950      97.91   0.4684E+00   0.51E-01
   10.950     103.56   0.4715E+00   0.53E-01
   10.950     114.21   0.5089E+00   0.60E-01
   10.950     123.99   0.5066E+00   0.60E-01
   10.950     132.91   0.8965E+00   0.87E-01
   10.950     148.41   0.9813E+00   0.99E-01
   10.950     161.49   0.2205E+01   0.20E+00
   10.950     170.28   0.3094E+01   0.21E+00
   10.975      25.26   0.6573E+00   0.75E-01
   10.975      32.39   0.5668E+00   0.50E-01
   10.975      46.45   0.5596E+00   0.51E-01
   10.975      60.15   0.1048E+01   0.72E-01
   10.975      73.36   0.8335E+00   0.68E-01
   10.975      79.74   0.8845E+00   0.63E-01
   10.975      92.00   0.7031E+00   0.60E-01
   10.975      97.84   0.7736E+00   0.65E-01
   10.975     103.49   0.9783E+00   0.76E-01
   10.975     114.14   0.1387E+01   0.98E-01
   10.975     123.92   0.2224E+01   0.13E+00
   10.975     132.84   0.2805E+01   0.15E+00
   10.975     148.36   0.4606E+01   0.21E+00
   10.975     161.45   0.7997E+01   0.38E+00
   10.975     170.26   0.8521E+01   0.35E+00
   11.000      25.24   0.1342E+01   0.11E+00
   11.000      32.36   0.1306E+01   0.76E-01
   11.000      46.42   0.1987E+01   0.96E-01
   11.000      60.10   0.2656E+01   0.12E+00
   11.000      73.30   0.2002E+01   0.11E+00
   11.000      79.68   0.1593E+01   0.84E-01
   11.000      91.93   0.9817E+00   0.70E-01
   11.000      97.77   0.9319E+00   0.71E-01
   11.000     103.42   0.1025E+01   0.78E-01
   11.000     114.07   0.2424E+01   0.13E+00
   11.000     123.85   0.4371E+01   0.18E+00
   11.000     132.77   0.7396E+01   0.25E+00
   11.000     148.30   0.8329E+01   0.29E+00
   11.000     161.42   0.1684E+02   0.55E+00
   11.000     170.24   0.1654E+02   0.49E+00
   11.025      25.22   0.1618E+01   0.12E+00
   11.025      32.34   0.1347E+01   0.77E-01
   11.025      46.38   0.1461E+01   0.82E-01
   11.025      60.06   0.2714E+01   0.12E+00
   11.025      73.25   0.2639E+01   0.12E+00
   11.025      79.62   0.2153E+01   0.98E-01
   11.025      91.87   0.1266E+01   0.80E-01
   11.025      97.71   0.9212E+00   0.71E-01
   11.025     103.35   0.6895E+00   0.64E-01
   11.025     114.00   0.1357E+01   0.97E-01
   11.025     123.78   0.2296E+01   0.15E+00
   11.025     132.71   0.5395E+01   0.21E+00
   11.025     148.25   0.5486E+01   0.23E+00
   11.025     161.38   0.1325E+02   0.49E+00
   11.025     170.22   0.1369E+02   0.44E+00
   11.050      25.20   0.1278E+01   0.10E+00
   11.050      32.31   0.7182E+00   0.56E-01
   11.050      46.35   0.4179E+00   0.44E-01
   11.050      60.01   0.1364E+01   0.83E-01
   11.050      73.20   0.1816E+01   0.10E+00
   11.050      79.57   0.1512E+01   0.82E-01
   11.050      91.80   0.1190E+01   0.78E-01
   11.050      97.64   0.9159E+00   0.71E-01
   11.050     103.28   0.6895E+00   0.64E-01
   11.050     113.93   0.6958E+00   0.70E-01
   11.050     123.71   0.1748E+01   0.11E+00
   11.050     132.64   0.3393E+01   0.17E+00
   11.050     148.20   0.4363E+01   0.21E+00
   11.050     161.35   0.9892E+01   0.42E+00
   11.050     170.20   0.1004E+02   0.38E+00
   11.075      25.18   0.1237E+01   0.10E+00
   11.075      32.29   0.4561E+00   0.45E-01
   11.075      46.31   0.1767E+00   0.29E-01
   11.075      59.97   0.7808E+00   0.63E-01
   11.075      73.14   0.1188E+01   0.81E-01
   11.075      79.51   0.1087E+01   0.69E-01
   11.075      91.74   0.7955E+00   0.63E-01
   11.075      97.57   0.6308E+00   0.59E-01
   11.075     103.21   0.5835E+00   0.59E-01
   11.075     113.86   0.5703E+00   0.63E-01
   11.075     123.64   0.1157E+01   0.91E-01
   11.075     132.57   0.2134E+01   0.13E+00
   11.075     148.14   0.3178E+01   0.18E+00
   11.075     161.31   0.7016E+01   0.35E+00
   11.075     170.18   0.6981E+01   0.32E-01
   11.100      25.16   0.1230E+01   0.10E+00
   11.100      32.27   0.5665E+00   0.50E-01
   11.100      46.28   0.2328E+00   0.33E-01
   11.100      59.93   0.7968E+00   0.63E-01
   11.100      73.09   0.1111E+01   0.79E-01
   11.100      79.45   0.1021E+01   0.67E-01
   11.100      91.68   0.8871E+00   0.67E-01
   11.100      97.51   0.7745E+00   0.65E-01
   11.100     103.14   0.4051E+00   0.54E-01
   11.100     113.79   0.4240E+00   0.54E-01
   11.100     123.57   0.7942E+00   0.75E-01
   11.100     132.51   0.2402E+01   0.14E+00
   11.100     148.09   0.2877E+01   0.17E+00
   11.100     161.28   0.6355E+01   0.34E+00
   11.100     170.16   0.5706E+01   0.28E+00
   11.125      25.14   0.8009E+00   0.83E-01
   11.125      32.24   0.4705E+00   0.45E-01
   11.125      46.25   0.3170E+00   0.38E-01
   11.125      59.88   0.7219E+00   0.60E-01
   11.125      73.04   0.9721E+00   0.74E-01
   11.125      79.40   0.8531E+00   0.62E-01
   11.125      91.61   0.8266E+00   0.65E-01
   11.125      97.45   0.6656E+00   0.60E-01
   11.125     103.08   0.3890E+00   0.48E-01
   11.125     113.72   0.4447E+00   0.56E-01
   11.125     123.50   0.4392E+00   0.56E-01
   11.125     132.45   0.1072E+01   0.95E-01
   11.125     148.04   0.2004E+01   0.14E+00
   11.125     161.25   0.3652E+01   0.25E+00
   11.125     170.14   0.4440E+01   0.25E+00
   11.150      25.12   0.5605E+00   0.70E-01
   11.150      32.22   0.3567E+00   0.40E-01
   11.150      46.21   0.4247E+00   0.45E-01
   11.150      59.84   0.7429E+00   0.61E-01
   11.150      72.99   0.6095E+00   0.58E-01
   11.150      79.34   0.7381E+00   0.57E-01
   11.150      91.55   0.6494E+00   0.57E-01
   11.150      97.38   0.6221E+00   0.58E-01
   11.150     103.01   0.4951E+00   0.54E-01
   11.150     113.65   0.3056E+00   0.46E-01
   11.150     123.44   0.4317E+00   0.55E-01
   11.150     132.38   0.7925E+00   0.82E-01
   11.150     147.99   0.1572E+01   0.12E+00
   11.150     161.21   0.3236E+01   0.24E+00
   11.150     170.12   0.3452E+01   0.22E+00
   11.175      25.11   0.4663E+00   0.63E-01
   11.175      32.20   0.2910E+00   0.36E-01
   11.175      46.18   0.6168E+00   0.54E-01
   11.175      59.80   0.7437E+00   0.61E-01
   11.175      72.94   0.5932E+00   0.58E-01
   11.175      79.29   0.5206E+00   0.48E-01
   11.175      91.49   0.6344E+00   0.57E-01
   11.175      97.32   0.6495E+00   0.60E-01
   11.175     102.95   0.4951E+00   0.54E-01
   11.175     113.59   0.3540E+00   0.50E-01
   11.175     123.37   0.2828E+00   0.45E-01
   11.175     132.32   0.6819E+00   0.76E-01
   11.175     147.94   0.1036E+01   0.10E+00
   11.175     161.18   0.2612E+01   0.21E+00
   11.175     170.11   0.2794E+01   0.20E+00
   11.200      25.09   0.4756E+00   0.64E-01
   11.200      32.17   0.3797E+00   0.41E-01
   11.200      46.15   0.7486E+00   0.59E-01
   11.200      59.76   0.8053E+00   0.64E-01
   11.200      72.89   0.5938E+00   0.58E-01
   11.200      79.24   0.4497E+00   0.45E-01
   11.200      91.43   0.5890E+00   0.55E-01
   11.200      97.26   0.6278E+00   0.59E-01
   11.200     102.89   0.5364E+00   0.56E-01
   11.200     113.52   0.2984E+00   0.46E-01
   11.200     123.31   0.2331E+00   0.41E-01
   11.200     132.26   0.6053E+00   0.71E-01
   11.200     147.89   0.9464E+00   0.96E-01
   11.200     161.15   0.2149E+01   0.19E+00
   11.200     170.09   0.2336E+01   0.18E+00
   11.225      25.07   0.4243E+00   0.61E-01
   11.225      32.15   0.2741E+00   0.35E-01
   11.225      46.11   0.7776E+00   0.60E-01
   11.225      59.72   0.8924E+00   0.67E-01
   11.225      72.84   0.4485E+00   0.50E-01
   11.225      79.18   0.4233E+00   0.43E-01
   11.225      91.38   0.4775E+00   0.49E-01
   11.225      97.20   0.5734E+00   0.56E-01
   11.225     102.82   0.4774E+00   0.53E-01
   11.225     113.46   0.1665E+00   0.34E-01
   11.225     123.24   0.1270E+00   0.30E-01
   11.225     132.20   0.3610E+00   0.55E-01
   11.225     147.84   0.9634E+00   0.96E-01
   11.225     161.11   0.2212E+01   0.20E+00
   11.225     170.07   0.2482E+01   0.19E+00
   11.250      25.05   0.2254E+00   0.44E-01
   11.250      32.13   0.2523E+00   0.33E-01
   11.250      46.08   0.7363E+00   0.59E-01
   11.250      59.68   0.9339E+00   0.69E-01
   11.250      72.79   0.2918E+00   0.40E-01
   11.250      79.13   0.3255E+00   0.38E-01
   11.250      91.32   0.4014E+00   0.45E-01
   11.250      97.14   0.4916E+00   0.52E-01
   11.250     102.76   0.3772E+00   0.47E-01
   11.250     113.39   0.1595E+00   0.33E-01
   11.250     123.18   0.1058E+00   0.27E-01
   11.250     132.14   0.4946E+00   0.64E-01
   11.250     147.79   0.8073E+00   0.88E-01
   11.250     161.08   0.2171E+01   0.19E+00
   11.250     170.05   0.2876E+01   0.20E+00
   11.275      25.04   0.1042E+00   0.30E-01
   11.275      32.11   0.1950E+00   0.29E-01
   11.275      46.05   0.9344E+00   0.66E-01
   11.275      59.64   0.9704E+00   0.70E-01
   11.275      72.74   0.2415E+00   0.37E-01
   11.275      79.08   0.1249E+00   0.24E-01
   11.275      91.26   0.4677E+00   0.49E-01
   11.275      97.08   0.5354E+00   0.54E-01
   11.275     102.70   0.3478E+00   0.45E-01
   11.275     113.33   0.1455E+00   0.32E-01
   11.275     123.12   0.1831E+00   0.36E-01
   11.275     132.08   0.5776E+00   0.70E-01
   11.275     147.74   0.4794E+00   0.68E-01
   11.275     161.05   0.1801E+01   0.18E+00
   11.275     170.04   0.2825E+01   0.20E+00
   11.300      25.02   0.2434E+00   0.46E-01
   11.300      32.09   0.2175E+00   0.31E-01
   11.300      46.02   0.7757E+00   0.60E-01
   11.300      59.60   0.8392E+00   0.65E-01
   11.300      72.69   0.9554E-01   0.23E-01
   11.300      79.03   0.1161E+00   0.23E-01
   11.300      91.20   0.3712E+00   0.43E-01
   11.300      97.02   0.5300E+00   0.54E-01
   11.300     102.64   0.3478E+00   0.45E-01
   11.300     113.27   0.1870E+00   0.36E-01
   11.300     123.06   0.1900E+00   0.37E-01
   11.300     132.02   0.4347E+00   0.60E-01
   11.300     147.69   0.4783E+00   0.68E-01
   11.300     161.02   0.1622E+01   0.17E+00
   11.300     170.02   0.3657E+01   0.22E+00
   11.325      25.00   0.4091E+00   0.60E-01
   11.325      32.06   0.7110E+01   0.18E-01
   11.325      45.99   0.8848E+00   0.65E-01
   11.325      59.56   0.8910E+00   0.67E-01
   11.325      72.65   0.1462E+00   0.29E-01
   11.325      79.98   0.1072E+00   0.22E-01
   11.325      91.15   0.3968E+00   0.45E-01
   11.325      96.96   0.4810E+00   0.51E-01
   11.325     102.58   0.3773E+00   0.47E-01
   11.325     113.21   0.2077E+00   0.38E-01
   11.325     123.00   0.2461E+00   0.42E-01
   11.325     131.96   0.3923E+00   0.57E-01
   11.325     147.65   0.4963E+00   0.69E-01
   11.325     160.99   0.1669E+01   0.17E+00
   11.325     170.00   0.3466E+01   0.22E+00
   11.350      24.99   0.2876E+00   0.50E-01
   11.350      32.04   0.6229E-01   0.17E-01
   11.350      45.96   0.8152E+00   0.62E-01
   11.350      59.52   0.8256E+00   0.65E-01
   11.350      72.60   0.1070E+00   0.25E-01
   11.350      78.93   0.1073E+00   0.22E-01
   11.350      91.09   0.5039E+00   0.51E-01
   11.350      96.90   0.4428E+00   0.49E-01
   11.350     102.52   0.2829E+00   0.41E-01
   11.350     113.15   0.1592E+00   0.33E-01
   11.350     122.94   0.2740E+00   0.44E-01
   11.350     131.90   0.4835E+00   0.63E-01
   11.350     147.60   0.5333E+00   0.71E-01
   11.350     160.96   0.1647E+01   0.17E+01
   11.350     169.99   0.2797E+01   0.20E+00
   11.375      24.97   0.4800E+00   0.65E-01
   11.375      32.02   0.1490E+00   0.14E-01
   11.375      45.93   0.6508E+00   0.20E-01
   11.375      59.48   0.5733E+00   0.21E-01
   11.375      72.56   0.8969E-01   0.16E-01
   11.375      78.88   0.1093E+00   0.13E-01
   11.375      91.04   0.4042E+00   0.18E-01
   11.375      96.85   0.4192E+00   0.20E-01
   11.375     102.46   0.2369E+00   0.18E-01
   11.375     113.08   0.2450E+00   0.17E-01
   11.375     122.88   0.5451E+00   0.21E-01
   11.375     131.85   0.5701E+00   0.22E-01
   11.375     147.56   0.4730E+00   0.22E-01
   11.375     160.93   0.1950E+01   0.18E+00
   11.375     169.97   0.2856E+01   0.49E-01
   11.400      32.00   0.1473E+00   0.26E-01
   11.400      45.90   0.2127E+00   0.32E-01
   11.400      59.44   0.5418E+00   0.53E-01
   11.400      72.51   0.2598E+00   0.38E-01
   11.400      78.83   0.1882E+00   0.29E-01
   11.400      90.98   0.2039E+00   0.32E-01
   11.400      96.79   0.1807E+00   0.31E-01
   11.400     102.40   0.2065E+00   0.35E-01
   11.400     113.03   0.1731E+00   0.35E-01
   11.400     122.82   0.6038E+00   0.65E-01
   11.400     131.79   0.5410E+00   0.67E-01
   11.400     147.51   0.6264E+00   0.27E-01
   11.400     169.95   0.3628E+01   0.22E+00
   11.500      45.78   0.5174E+00   0.49E-01
   11.500      59.29   0.1525E+00   0.28E-01
   11.500      72.33   0.8412E-01   0.22E-01
   11.500      78.64   0.5208E+00   0.48E-01
   11.500      90.77   0.1062E+01   0.73E-01
   11.500      96.57   0.7653E+00   0.64E-01
   11.500     102.18   0.6548E+00   0.62E-01
   11.500     112.79   0.2328E+00   0.40E-01
   11.500     122.59   0.8527E+00   0.77E-01
   11.500     131.57   0.1329E+01   0.10E+00
   11.500     147.33   0.1333E+01   0.11E+00
   11.500     169.89   0.2295E+01   0.18E+00
   11.600      31.84   0.5120E+00   0.43E-01
   11.600      45.67   0.3014E+00   0.34E-01
   11.600      59.15   0.2719E+00   0.33E-01
   11.600      72.17   0.2498E+00   0.34E-01
   11.600      78.46   0.6307E+00   0.48E-01
   11.600      90.57   0.1141E+01   0.68E-01
   11.600      96.36   0.8247E+00   0.60E-01
   11.600     101.96   0.4533E+00   0.46E-01
   11.600     112.57   0.1105E+00   0.25E-01
   11.600     122.37   0.1055E+01   0.77E-01
   11.600     131.36   0.1688E+01   0.11E+00
   11.600     147.17   0.1493E+01   0.11E+00
   11.600     169.83   0.2759E+01   0.17E+00
   11.700      31.77   0.5442E+01   0.15E+00
   11.700      45.57   0.1073E+01   0.67E-01
   11.700      59.02   0.1642E+00   0.27E-01
   11.700      72.00   0.6031E-01   0.17E-01
   11.700      78.29   0.2352E+00   0.31E-01
   11.700      90.38   0.2350E+00   0.33E-01
   11.700      96.16   0.1502E+00   0.27E-01
   11.700     101.76   0.2188E+00   0.34E-01
   11.700     112.36   0.8580E+00   0.72E-01
   11.700     122.16   0.2325E+01   0.12E+00
   11.700     131.16   0.2426E+01   0.13E+00
   11.700     147.00   0.1014E+01   0.91E-01
   11.700     169.77   0.4625E+01   0.23E+00
   11.800      24.71   0.4495E+01   0.82E-01
   11.800      31.70   0.2937E+01   0.44E-01
   11.800      38.62   0.1821E+01   0.89E-01
   11.800      45.47   0.1103E+00   0.38E-01
   11.800      52.23   0.7271E+00   0.13E+00
   11.800      58.89   0.6197E+00   0.29E-01
   11.800      65.43   0.7723E+00   0.13E+00
   11.800      71.85   0.1262E+01   0.44E-01
   11.800      78.12   0.1889E+01   0.48E-01
   11.800      84.24   0.2222E+01   0.13E+00
   11.800      90.19   0.2517E+01   0.41E-01
   11.800      95.97   0.2087E+01   0.39E-01
   11.800     101.56   0.1640E+01   0.51E-01
   11.800     106.96   0.1113E+01   0.13E+00
   11.800     112.16   0.1213E+01   0.47E-01
   11.800     117.16   0.1832E+01   0.13E+00
   11.800     121.96   0.3289E+01   0.78E-01
   11.800     126.56   0.5223E+01   0.13E+00
   11.800     130.97   0.6963E+01   0.12E+00
   11.800     135.19   0.6625E+01   0.13E+00
   11.800     146.85   0.9103E+01   0.15E+00
   11.800     150.43   0.6411E+01   0.13E+00
   11.800     160.47   0.6285E+01   0.32E+00
   11.800     163.62   0.6019E+01   0.82E-01
   11.800     166.70   0.4667E+01   0.82E-01
   11.800     169.71   0.4428E+01   0.62E-01
   11.900      24.66   0.7462E+01   0.18E+00
   11.900      31.63   0.6504E+01   0.90E-01
   11.900      38.53   0.4633E+01   0.14E+00
   11.900      45.37   0.3053E+01   0.10E+00
   11.900      52.12   0.1861E+01   0.18E+00
   11.900      58.76   0.1065E+01   0.63E-01
   11.900      65.29   0.7188E+00   0.18E+00
   11.900      71.70   0.7441E+00   0.55E-01
   11.900      77.96   0.8112E+00   0.51E-01
   11.900      84.07   0.8233E+00   0.18E+00
   11.900      90.02   0.1323E+01   0.50E-01
   11.900      95.79   0.1179E+01   0.49E-01
   11.900     101.37   0.9965E+00   0.65E-01
   11.900     106.76   0.7919E+00   0.18E+00
   11.900     112.96   0.1121E+01   0.74E-01
   11.900     116.96   0.2044E+01   0.18E+00
   11.900     121.76   0.3483E+01   0.13E+00
   11.900     126.37   0.5167E+01   0.18E+00
   11.900     130.79   0.7015E+01   0.20E+00
   11.900     135.02   0.8105E+01   0.18E+00
   11.900     146.70   0.1020E+02   0.26E+00
   11.900     150.29   0.1084E+02   0.18E+00
   11.900     163.53   0.5767E+01   0.18E+00
   11.900     166.63   0.5076E+01   0.18E+00
   11.900     169.66   0.4880E+01   0.21E+00
   12.000      24.61   0.1589E+02   0.26E+00
   12.000      31.56   0.1108E+02   0.12E+00
   12.000      38.45   0.6101E+01   0.17E+00
   12.000      45.27   0.2193E+01   0.90E-01
   12.000      52.01   0.8335E+00   0.26E+00
   12.000      58.64   0.3933E+00   0.40E-01
   12.000      65.16   0.1343E+01   0.26E+00
   12.000      71.56   0.2908E+01   0.11E+00
   12.000      77.81   0.4991E+01   0.13E+00
   12.000      83.91   0.6034E+01   0.26E+00
   12.000      89.85   0.6375E+01   0.98E-01
   12.000      95.61   0.4998E+01   0.93E-01
   12.000     101.19   0.2347E+01   0.10E+00
   12.000     106.58   0.9002E+00   0.26E+00
   12.000     111.78   0.4120E+00   0.47E-01
   12.000     116.78   0.1581E+01   0.26E+00
   12.000     121.58   0.4727E+01   0.16E+00
   12.000     126.19   0.7231E+01   0.26E+00
   12.000     130.61   0.9922E+01   0.25E+00
   12.000     134.85   0.1086E+02   0.26E+00
   12.000     146.56   0.1431E+02   0.32E+00
   12.000     150.16   0.1731E+02   0.26E+00
   12.000     163.45   0.3409E+02   0.26E+00
   12.000     166.56   0.3540E+02   0.26E+00
   12.000     169.61   0.4169E+02   0.64E+00
   12.100      24.56   0.1411E+02   0.38E+00
   12.100      31.50   0.7653E+01   0.89E-01
   12.100      38.38   0.4083E+01   0.15E+00
   12.100      45.18   0.1329E+01   0.68E-01
   12.100      51.90   0.4458E+00   0.38E+00
   12.100      58.53   0.6407E+00   0.49E-01
   12.100      65.04   0.2109E+01   0.38E+00
   12.100      71.42   0.3826E+01   0.13E+00
   12.100      77.66   0.6480E+01   0.15E+00
   12.100      83.75   0.8398E+01   0.38E+00
   12.100      89.68   0.8426E+01   0.12E+00
   12.100      95.44   0.6343E+01   0.11E+00
   12.100     101.01   0.2763E+01   0.11E+00
   12.100     106.40   0.9390E+00   0.38E+00
   12.100     111.60   0.1161E+01   0.76E-01
   12.100     116.60   0.3557E+01   0.38E+00
   12.100     121.40   0.7938E+01   0.20E+00
   12.100     126.01   0.1202E+02   0.38E+00
   12.100     130.44   0.1299E+02   0.27E+00
   12.100     134.68   0.1407E+02   0.38E+00
   12.100     146.42   0.9346E+01   0.25E+00
   12.100     150.04   0.9453E+01   0.38E+00
   12.100     163.38   0.1713E+02   0.38E+00
   12.100     166.50   0.1806E+02   0.38E+00
   12.100     169.56   0.2266E+02   0.45E+00
   12.200      24.51   0.1236E+02   0.36E+00
   12.200      31.44   0.6172E+01   0.81E-01
   12.200      38.30   0.2516E+01   0.12E+00
   12.200      45.10   0.1077E+01   0.37E-01
   12.200      51.81   0.8142E+00   0.36E+00
   12.200      58.42   0.1060E+01   0.37E-01
   12.200      64.91   0.1584E+01   0.36E+00
   12.200      71.28   0.2573E+01   0.61E-01
   12.200      77.52   0.3743E+01   0.65E-01
   12.200      83.60   0.5888E+01   0.36E+00
   12.200      89.52   0.5851E+01   0.70E-01
   12.200      95.27   0.4997E+01   0.10E+00
   12.200     100.85   0.2477E+01   0.61E-01
   12.200     106.23   0.7798E+00   0.36E+00
   12.200     111.42   0.7276E+00   0.36E-01
   12.200     116.42   0.2836E+01   0.36E+00
   12.200     121.23   0.6595E+01   0.11E+00
   12.200     125.85   0.9947E+01   0.36E+00
   12.200     130.27   0.1293E+02   0.16E+00
   12.200     134.52   0.1234E+02   0.36E+00
   12.200     146.28   0.6750E+01   0.12E+00
   12.200     149.91   0.3919E+01   0.36E+00
   12.200     163.30   0.4635E+01   0.36E+00
   12.200     166.44   0.6253E+01   0.36E+00
   12.200     169.51   0.9497E+01   0.17E+00
   12.300      24.46   0.1282E+02   0.36E+00
   12.300      31.38   0.6268E+01   0.18E+00
   12.300      38.23   0.2667E+01   0.12E+00
   12.300      45.01   0.1304E+01   0.39E-01
   12.300      51.71   0.1313E+01   0.36E+00
   12.300      58.31   0.1757E+01   0.47E-01
   12.300      64.79   0.2465E+01   0.36E+00
   12.300      71.16   0.2954E+01   0.64E-01
   12.300      77.38   0.4060E+01   0.67E-01
   12.300      83.46   0.5021E+01   0.36E+00
   12.300      89.37   0.5469E+01   0.67E-01
   12.300      95.12   0.4590E+01   0.97E-01
   12.300     100.68   0.2831E+01   0.63E-01
   12.300     106.06   0.1703E+01   0.36E+00
   12.300     111.26   0.1670E+01   0.52E-01
   12.300     116.26   0.3019E+01   0.36E+00
   12.300     121.06   0.5852E+01   0.97E-01
   12.300     125.68   0.8153E+01   0.36E+00
   12.300     130.12   0.9473E+01   0.13E+00
   12.300     134.37   0.1034E+02   0.36E+00
   12.300     146.16   0.5981E+01   0.11E+00
   12.300     149.79   0.4567E+01   0.36E+00
   12.300     163.23   0.2531E+01   0.36E+00
   12.300     166.38   0.3064E+01   0.36E+00
   12.300     169.46   0.4494E+01   0.12E+00
   12.400      24.42   0.8899E+01   0.15E+00
   12.400      31.32   0.3764E+01   0.68E-01
   12.400      38.16   0.1023E+01   0.74E-01
   12.400      44.93   0.4968E+00   0.18E-01
   12.400      51.62   0.1356E+01   0.88E-01
   12.400      58.20   0.1937E+01   0.33E-01
   12.400      64.68   0.2294E+01   0.12E+00
   12.400      71.03   0.2857E+01   0.39E-01
   12.400      77.25   0.3964E+01   0.41E-01
   12.400      83.32   0.5035E+01   0.17E+00
   12.400      89.23   0.6315E+01   0.39E-01
   12.400      94.96   0.6164E+01   0.49E-01
   12.400     100.53   0.5171E+01   0.49E-01
   12.400     105.91   0.3788E+01   0.17E+00
   12.400     111.10   0.2226E+01   0.38E-01
   12.400     116.10   0.1820E+01   0.12E+00
   12.400     120.91   0.1956E+01   0.36E-01
   12.400     125.53   0.3191E+01   0.16E+00
   12.400     129.96   0.3038E+01   0.44E-01
   12.400     134.23   0.3397E+01   0.18E+00
   12.400     146.03   0.1135E+01   0.34E-01
   12.400     149.68   0.1008E+01   0.10E+00
   12.400     159.93   0.2040E+01   0.15E+00
   12.400     163.16   0.3749E+01   0.26E+00
   12.400     166.32   0.5090E+01   0.26E+00
   12.400     169.42   0.7142E+01   0.67E-01
   12.500      24.38   0.5738E+01   0.24E+00
   12.500      31.26   0.1632E+01   0.93E-01
   12.500      38.09   0.1244E+01   0.82E-01
   12.500      44.85   0.3062E+01   0.14E+00
   12.500      51.53   0.3338E+01   0.24E+00
   12.500      58.10   0.3697E+01   0.16E+00
   12.500      64.57   0.2149E+01   0.24E+00
   12.500      70.91   0.1475E+01   0.11E+00
   12.500      77.12   0.1660E+01   0.10E+00
   12.500      83.18   0.3402E+01   0.24E+00
   12.500      89.08   0.4552E+01   0.10E+00
   12.500      94.82   0.6343E+01   0.24E-01
   12.500     100.38   0.5497E+01   0.21E+00
   12.500     105.75   0.4738E+01   0.24E+00
   12.500     110.94   0.3089E+01   0.17E+00
   12.500     115.94   0.1826E+01   0.24E+00
   12.500     120.75   0.9655E+00   0.93E-01
   12.500     125.38   0.1030E+01   0.24E+00
   12.500     129.82   0.9489E+00   0.99E-01
   12.500     134.08   0.1736E+01   0.24E+00
   12.500     145.91   0.3448E+01   0.20E+00
   12.500     149.57   0.5573E+01   0.24E+00
   12.500     163.09   0.1210E+02   0.24E+00
   12.500     166.26   0.1165E+02   0.24E+00
   12.500     169.38   0.1279E+02   0.45E+00
   12.600      24.34   0.1387E+01   0.12E+00
   12.600      31.21   0.1010E+01   0.73E-01
   12.600      38.03   0.1220E+01   0.82E-01
   12.600      44.78   0.1178E+01   0.76E-01
   12.600      51.44   0.1549E+01   0.12E+00
   12.600      58.01   0.1085E+01   0.75E-01
   12.600      64.47   0.1392E+01   0.12E+00
   12.600      70.80   0.1332E+01   0.87E-01
   12.600      77.00   0.1748E+01   0.89E-01
   12.600      83.05   0.2384E+01   0.12E+00
   12.600      88.95   0.3082E+01   0.63E-01
   12.600      94.68   0.3500E+01   0.12E-01
   12.600     100.23   0.3322E+01   0.14E+00
   12.600     105.60   0.2026E+01   0.12E+00
   12.600     110.79   0.8388E+00   0.75E-01
   12.600     115.79   0.3429E+00   0.12E+00
   12.600     120.60   0.4015E+00   0.52E-01
   12.600     125.23   0.1729E+01   0.12E+00
   12.600     129.68   0.3399E+01   0.16E+00
   12.600     133.95   0.5101E+01   0.12E+00
   12.600     145.80   0.8243E+01   0.27E+00
   12.600     149.47   0.7183E+01   0.12E+00
   12.600     163.03   0.3622E+01   0.12E+00
   12.600     166.21   0.2305E+01   0.12E+00
   12.600     169.34   0.1395E+01   0.13E+00
   12.700      24.29   0.1025E+01   0.10E+00
   12.700      31.16   0.5012E+00   0.52E-01
   12.700      37.97   0.4151E+00   0.48E-01
   12.700      44.70   0.7640E+00   0.87E-01
   12.700      51.36   0.1134E+01   0.10E+00
   12.700      57.92   0.1120E+01   0.11E+00
   12.700      64.36   0.7383E+00   0.10E+00
   12.700      70.69   0.5842E+00   0.83E-01
   12.700      76.88   0.2493E+00   0.48E-01
   12.700      82.93   0.9743E+00   0.10E+00
   12.700      88.82   0.1960E+01   0.61E-01
   12.700      94.54   0.3168E+01   0.10E+00
   12.700     100.09   0.2867E+01   0.18E+00
   12.700     105.46   0.2666E+01   0.10E+00
   12.700     110.65   0.1382E+01   0.14E+00
   12.700     115.65   0.6012E+00   0.10E+00
   12.700     120.46   0.2998E+00   0.64E-01
   12.700     125.09   0.9414E+00   0.10E+00
   12.700     129.54   0.1411E+01   0.15E+00
   12.700     133.82   0.3610E+01   0.10E+00
   12.700     145.69   0.5816E+01   0.32E+00
   12.700     149.36   0.6309E+01   0.10E+00
   12.700     162.97   0.4861E+01   0.10E+00
   12.700     166.16   0.4430E+01   0.10E+00
   12.700     169.29   0.3695E+01   0.30E+00
   12.800      44.63   0.2796E+01   0.14E+00
   12.800      57.83   0.2293E+01   0.13E+00
   12.800      70.58   0.1230E+01   0.10E+00
   12.800      76.77   0.8463E+00   0.75E-01
   12.800      88.69   0.4978E+00   0.61E-01
   12.800      99.95   0.7879E+00   0.82E-01
   12.800     110.51   0.8892E+00   0.93E-01
   12.800     120.32   0.6418E+00   0.79E-01
   12.800     129.41   0.1628E+01   0.14E+00
   12.800     145.58   0.6064E+01   0.27E+00
   12.800     169.26   0.7458E+01   0.36E+00
   12.900      44.57   0.1862E+01   0.97E-01
   12.900      57.74   0.8520E+00   0.68E-01
   12.900      70.48   0.8911E+00   0.73E-01
   12.900      76.65   0.8064E+00   0.61E-01
   12.900      88.57   0.5810E+00   0.55E-01
   12.900      99.82   0.5248E+00   0.56E-01
   12.900     110.37   0.2474E+00   0.41E-01
   12.900     120.19   0.3485E+00   0.49E-01
   12.900     129.28   0.7459E+00   0.77E-01
   12.900     145.48   0.2507E+00   0.15E+00
   12.900     169.22   0.4626E+00   0.24E+00
   13.000      44.50   0.5656E+00   0.69E-01
   13.000      57.65   0.1492E+01   0.12E+00
   13.000      70.38   0.1954E+01   0.14E+00
   13.000      76.55   0.1913E+01   0.12E+00
   13.000      88.45   0.2242E+01   0.14E+00
   13.000      99.70   0.3016E+01   0.17E+00
   13.000     110.24   0.2224E+01   0.16E+00
   13.000     120.06   0.9695E+00   0.10E+00
   13.000     129.16   0.1177E+01   0.12E+00
   13.000     145.38   0.4926E+01   0.27E+00
   13.000     169.18   0.1631E+02   0.57E+00
   13.100      44.44   0.8890E+00   0.88E-01
   13.100      57.57   0.1465E+01   0.12E+00
   13.100      70.28   0.2510E+01   0.16E+00
   13.100      76.44   0.2251E+01   0.14E+00
   13.100      88.33   0.2698E+01   0.16E+00
   13.100      99.57   0.3320E+01   0.19E+00
   13.100     110.11   0.2167E+01   0.16E+00
   13.100     119.93   0.1437E+01   0.13E+00
   13.100     129.04   0.2189E+01   0.17E+00
   13.100     145.28   0.3733E+01   0.24E+00
   13.100     169.15   0.8110E+01   0.41E+00
   13.200      24.11   0.9821E+01   0.45E+00
   13.200      30.93   0.7240E+01   0.28E+00
   13.200      44.37   0.1222E+01   0.56E-01
   13.200      57.49   0.2456E+01   0.83E-01
   13.200      70.19   0.6780E+01   0.14E+00
   13.200      76.34   0.5988E+01   0.12E+00
   13.200      88.22   0.3288E+01   0.93E-01
   13.200      93.92   0.4843E+01   0.24E+00
   13.200      99.45   0.3227E+01   0.99E-01
   13.200     109.99   0.3170E+01   0.10E+00
   13.200     119.81   0.2616E+01   0.94E-01
   13.200     128.92   0.2106E+01   0.91E-01
   13.200     145.19   0.2165E+01   0.97E-01
   13.200     159.37   0.1525E+01   0.22E+00
   13.200     169.11   0.1471E+01   0.96E-01
   13.300      24.08   0.4093E+01   0.28E+00
   13.300      30.88   0.7096E+01   0.26E+00
   13.300      44.31   0.1443E+02   0.38E+00
   13.300      57.42   0.4051E+01   0.21E+00
   13.300      70.09   0.8874E+01   0.32E+00
   13.300      76.24   0.1374E+02   0.36E+00
   13.300      88.11   0.1599E+02   0.41E+00
   13.300      93.81   0.1300E+02   0.38E+00
   13.300      99.34   0.3392E+01   0.20E+00
   13.300     109.87   0.1209E+01   0.13E+00
   13.300     119.69   0.6746E+01   0.30E+00
   13.300     128.81   0.6620E+01   0.32E+00
   13.300     145.09   0.1392E+01   0.15E+00
   13.300     159.31   0.2244E+01   0.26E+00
   13.300     169.08   0.5360E+01   0.35E+00
   13.400      24.05   0.5664E+01   0.32E+00
   13.400      30.84   0.7190E+00   0.82E-01
   13.400      44.25   0.9761E+01   0.31E+00
   13.400      57.34   0.1200E+02   0.36E+00
   13.400      70.01   0.1633E+01   0.14E+00
   13.400      76.15   0.6349E+00   0.76E-01
   13.400      88.00   0.5419E+01   0.24E+00
   13.400      93.70   0.8231E+01   0.30E+00
   13.400      99.23   0.6106E+01   0.27E+00
   13.400     109.76   0.1973E+01   0.16E+00
   13.400     119.58   0.3189E+00   0.65E-01
   13.400     128.70   0.3133E+01   0.22E+00
   13.400     145.01   0.5729E+01   0.31E+00
   13.400     159.25   0.4088E+01   0.34E+00
   13.400     169.05   0.4873E+01   0.33E+00
   13.500      24.02   0.3280E+01   0.21E+00
   13.500      30.80   0.3356E+00   0.49E-01
   13.500      44.20   0.4209E+01   0.18E+00
   13.500      57.27   0.6294E+01   0.23E+00
   13.500      69.92   0.2252E+01   0.14E+00
   13.500      76.06   0.4440E+00   0.56E-01
   13.500      87.90   0.9627E+00   0.86E-01
   13.500      93.59   0.2130E+01   0.13E+00
   13.500      99.12   0.2132E+01   0.14E+00
   13.500     109.65   0.1010E+01   0.10E+00
   13.500     119.47   0.3197E+00   0.57E-01
   13.500     128.59   0.8309E+00   0.98E-01
   13.500     144.92   0.3120E+01   0.20E+00
   13.500     159.20   0.7212E+01   0.40E+00
   13.500     169.02   0.1168E+02   0.45E+00
   13.600      23.98   0.1536E+01   0.15E+00
   13.600      30.76   0.5557E+00   0.64E-01
   13.600      44.14   0.6102E+01   0.22E+00
   13.600      57.20   0.8166E+01   0.26E+00
   13.600      69.84   0.3204E+01   0.17E+00
   13.600      75.97   0.4187E+00   0.55E-01
   13.600      87.80   0.6826E+00   0.74E-01
   13.600      93.49   0.1536E+01   0.11E+00
   13.600      99.01   0.1962E+01   0.13E+00
   13.600     109.54   0.1351E+01   0.12E+00
   13.600     119.36   0.7032E+00   0.85E-01
   13.600     128.49   0.5646E+00   0.81E-01
   13.600     144.84   0.3214E+01   0.20E+00
   13.600     159.14   0.9385E+01   0.46E+00
   13.600     168.98   0.1703E+02   0.54E+00
   13.700      23.96   0.2401E+01   0.18E+00
   13.700      30.73   0.1913E+01   0.12E+00
   13.700      44.09   0.5836E+01   0.21E+00
   13.700      57.13   0.6670E+01   0.23E+00
   13.700      69.75   0.3428E+01   0.17E+00
   13.700      75.88   0.1737E+01   0.11E+00
   13.700      87.71   0.1156E+00   0.30E-01
   13.700      93.39   0.4177E+00   0.58E-01
   13.700      98.91   0.7859E+00   0.83E-01
   13.700     109.43   0.1907E+01   0.14E+00
   13.700     119.26   0.2281E+01   0.15E+00
   13.700     128.39   0.1993E+01   0.15E+00
   13.700     144.75   0.2712E+01   0.18E+00
   13.700     159.09   0.1117E+02   0.15E+00
   13.700     168.96   0.2953E+02   0.24E+00
   13.800      23.93   0.4331E+01   0.28E+00
   13.800      30.69   0.3562E+01   0.18E+00
   13.800      44.04   0.1788E+01   0.13E+00
   13.800      57.06   0.2292E+01   0.16E+00
   13.800      69.68   0.3568E+01   0.20E+00
   13.800      75.80   0.2553E+01   0.15E+00
   13.800      87.61   0.1137E+01   0.11E+00
   13.800      93.29   0.1735E+01   0.14E+00
   13.800      98.81   0.2364E+01   0.17E+00
   13.800     109.33   0.2719E+01   0.19E+00
   13.800     119.16   0.3687E+01   0.22E+00
   13.800     128.29   0.6137E+01   0.31E+00
   13.800     144.68   0.5597E+01   0.30E+00
   13.800     159.04   0.7566E+01   0.46E+00
   13.800     168.93   0.3402E+02   0.87E+00
   13.900      23.90   0.6183E+01   0.34E+00
   13.900      30.65   0.3771E+01   0.19E+00
   13.900      43.99   0.6946E+00   0.84E-01
   13.900      57.00   0.3310E+01   0.19E+00
   13.900      69.60   0.5876E+00   0.26E+00
   13.900      75.71   0.3621E+01   0.18E+00
   13.900      87.52   0.1024E+01   0.10E+00
   13.900      93.20   0.1142E+01   0.11E+00
   13.900      98.71   0.2517E+01   0.17E+00
   13.900     109.23   0.3627E+01   0.22E+00
   13.900     119.06   0.3009E+01   0.20E+00
   13.900     128.20   0.2325E+01   0.19E+00
   13.900     144.60   0.3429E+01   0.24E+00
   13.900     158.99   0.6513E+00   0.14E+00
   13.900     168.90   0.2085E+01   0.22E+00
   14.000      23.87   0.8412E+01   0.36E+00
   14.000      30.62   0.4332E+01   0.11E+00
   14.000      43.94   0.7340E+00   0.46E-01
   14.000      56.94   0.4823E+01   0.12E+00
   14.000      69.52   0.5294E+01   0.13E+00
   14.000      75.63   0.3120E+01   0.90E-01
   14.000      87.43   0.1366E+01   0.64E-01
   14.000      93.11   0.9382E+00   0.56E-01
   14.000      98.62   0.1865E+01   0.78E-01
   14.000     109.13   0.2036E+01   0.88E-01
   14.000     118.96   0.2943E+01   0.10E+00
   14.000     128.11   0.2987E+01   0.11E+00
   14.000     144.52   0.2950E+01   0.12E+00
   14.000     158.94   0.3430E+01   0.28E+00
   14.000     168.87   0.5095E+01   0.18E+00
   14.100      23.84   0.8168E+01   0.35E+00
   14.100      30.58   0.3277E+01   0.16E+00
   14.100      43.89   0.1903E+01   0.12E+00
   14.100      56.88   0.6538E+01   0.24E+00
   14.100      69.45   0.4400E+01   0.20E+00
   14.100      75.56   0.1608E+01   0.11E+00
   14.100      87.35   0.8602E+00   0.84E-01
   14.100      93.02   0.1714E+01   0.12E+00
   14.100      98.53   0.2121E+01   0.14E+00
   14.100     109.04   0.1978E+01   0.14E+00
   14.100     118.87   0.2521E+01   0.16E+00
   14.100     128.02   0.2887E+01   0.19E+00
   14.100     144.45   0.3070E+01   0.20E+00
   14.100     158.89   0.3621E+01   0.28E+00
   14.100     168.85   0.1010E+02   0.42E+00
   14.200      23.82   0.6588E+01   0.32E+00
   14.200      30.55   0.2688E+01   0.15E+00
   14.200      43.84   0.2793E+01   0.15E+00
   14.200      56.82   0.5580E+01   0.22E+00
   14.200      69.38   0.2891E+01   0.17E+00
   14.200      75.48   0.7743E+00   0.77E-01
   14.200      87.27   0.5095E+00   0.66E-01
   14.200      92.93   0.7608E+00   0.84E-01
   14.200      98.44   0.7221E+00   0.84E-01
   14.200     108.95   0.1058E+01   0.11E+00
   14.200     118.78   0.2017E+01   0.15E+00
   14.200     127.93   0.2947E+01   0.19E+00
   14.200     144.38   0.2316E+01   0.18E+00
   14.200     158.84   0.6292E+00   0.12E+00
   14.200     168.82   0.4047E+01   0.27E+00
   14.300      23.79   0.6652E+01   0.32E+00
   14.300      30.52   0.3315E+01   0.16E+00
   14.300      43.80   0.2359E+01   0.14E+00
   14.300      56.76   0.2596E+01   0.15E+00
   14.300      69.31   0.1848E+01   0.13E+00
   14.300      75.41   0.1032E+01   0.89E-01
   14.300      87.18   0.2575E+00   0.47E-01
   14.300      92.85   0.4463E+00   0.64E-01
   14.300      98.35   0.1842E+00   0.42E-01
   14.300     108.86   0.6525E+00   0.85E-01
   14.300     118.69   0.1164E+01   0.11E+00
   14.300     127.85   0.1636E+01   0.14E+00
   14.300     144.31   0.3125E+01   0.20E+00
   14.300     158.80   0.3547E+01   0.29E+00
   14.300     168.79   0.2182E+01   0.20E+00
   14.400      23.77   0.8276E+01   0.36E+00
   14.400      30.49   0.4802E+01   0.20E+00
   14.400      43.75   0.1854E+01   0.13E+00
   14.400      56.70   0.3378E+01   0.17E+00
   14.400      69.25   0.4120E+01   0.20E+00
   14.400      75.34   0.2072E+01   0.13E+00
   14.400      87.10   0.5274E+00   0.68E-01
   14.400      92.76   0.3578E+00   0.57E-01
   14.400      98.27   0.6344E+00   0.79E-01
   14.400     108.77   0.1680E+01   0.14E+00
   14.400     118.60   0.1378E+01   0.12E+00
   14.400     127.76   0.2259E+00   0.53E-01
   14.400     144.25   0.3878E+01   0.23E+00
   14.400     158.75   0.9203E+01   0.46E+00
   14.400     168.77   0.1036E+02   0.43E+00
   14.500      23.75   0.1313E+02   0.20E+00
   14.500      30.46   0.6196E+01   0.98E-01
   14.500      37.12   0.1952E+01   0.11E+00
   14.500      43.71   0.1130E+01   0.20E+00
   14.500      50.22   0.2501E+01   0.12E+00
   14.500      56.65   0.5078E+01   0.20E+00
   14.500      62.97   0.5623E+01   0.19E+00
   14.500      69.18   0.5773E+01   0.20E+00
   14.500      75.27   0.2832E+01   0.20E+00
   14.500      81.22   0.1323E+01   0.86E-01
   14.500      87.03   0.3944E+00   0.39E-01
   14.500      92.68   0.4278E+00   0.41E-01
   14.500      98.18   0.8589E+00   0.20E+00
   14.500     103.52   0.1291E+01   0.96E-01
   14.500     108.69   0.1939E+01   0.20E+00
   14.500     113.69   0.1713E+01   0.12E+00
   14.500     118.52   0.1437E+01   0.20E+00
   14.500     123.18   0.1107E+01   0.94E-01
   14.500     127.68   0.5146E+00   0.20E+00
   14.500     132.03   0.5511E+00   0.71E-01
   14.500     144.18   0.2081E+01   0.20E+00
   14.500     147.97   0.3563E+01   0.19E+00
   14.500     158.71   0.9034E+01   0.20E+00
   14.500     162.12   0.9586E+01   0.40E+00
   14.500     165.46   0.1109E+02   0.37E+00
   14.500     168.75   0.1226E+02   0.20E+00
   14.600      23.72   0.1075E+02   0.41E+00
   14.600      30.43   0.5368E+01   0.21E+00
   14.600      43.67   0.5927E+00   0.71E-01
   14.600      56.59   0.3241E+01   0.17E+00
   14.600      69.12   0.3023E+01   0.17E+00
   14.600      75.20   0.1170E+01   0.95E-01
   14.600      86.95   0.3969E+00   0.59E-01
   14.600      92.61   0.4300E+00   0.63E-01
   14.600      98.10   0.2433E+00   0.49E-01
   14.600     108.61   0.9863E+00   0.10E+00
   14.600     118.44   0.1719E+01   0.14E+00
   14.600     127.61   0.1596E+01   0.14E+00
   14.600     144.12   0.1228E+01   0.13E+00
   14.600     158.67   0.1029E+02   0.49E+00
   14.600     168.72   0.2307E+02   0.64E+00
   14.700      23.70   0.7178E+01   0.34E+00
   14.700      30.40   0.2884E+01   0.15E+00
   14.700      43.63   0.8510E+00   0.85E-01
   14.700      56.54   0.2420E+01   0.15E+00
   14.700      69.05   0.1286E+01   0.11E+00
   14.700      75.13   0.1331E+01   0.10E+00
   14.700      86.88   0.7363E+00   0.80E-01
   14.700      92.53   0.4408E+00   0.64E-01
   14.700      98.03   0.7812E+01   0.28E-01
   14.700     108.53   0.1345E+01   0.12E+00
   14.700     118.36   0.2966E+01   0.18E+00
   14.700     127.53   0.2736E+01   0.18E+00
   14.700     144.05   0.2938E+00   0.63E-01
   14.700     158.63   0.1327E+02   0.55E+00
   14.700     168.70   0.3823E+02   0.83E+00
   14.800      23.68   0.7054E+01   0.99E-01
   14.800      30.37   0.2386E+01   0.41E-01
   14.800      37.01   0.5967E+00   0.58E-01
   14.800      43.59   0.2045E+01   0.99E-01
   14.800      50.08   0.3644E+01   0.15E+00
   14.800      56.49   0.3612E+01   0.99E-01
   14.800      62.80   0.1382E+01   0.94E-01
   14.800      68.99   0.7650E+00   0.99E-01
   14.800      75.07   0.1122E+01   0.99E-01
   14.800      81.01   0.1441E+01   0.90E-01
   14.800      86.81   0.1138E+01   0.46E-01
   14.800      92.46   0.5754E+00   0.37E-01
   14.800      97.95   0.4009E+00   0.99E-01
   14.800     103.28   0.9459E+00   0.82E-01
   14.800     108.45   0.1508E+01   0.99E-01
   14.800     113.45   0.2337E+01   0.14E+00
   14.800     118.28   0.2821E+01   0.99E-01
   14.800     122.95   0.2760E+01   0.15E+00
   14.800     127.46   0.2297E+01   0.99E-01
   14.800     131.81   0.3047E+01   0.17E+00
   14.800     143.99   0.1353E+01   0.99E-01
   14.800     147.80   0.1375E+01   0.11E+00
   14.800     158.59   0.1220E+02   0.99E-01
   14.800     162.01   0.2133E+02   0.58E+00
   14.800     165.37   0.2895E+02   0.58E+00
   14.800     168.68   0.3792E+02   0.99E-01
   14.900      23.66   0.2729E+01   0.83E-01
   14.900      30.34   0.1968E+01   0.50E-01
   14.900      36.98   0.1008E+01   0.69E-01
   14.900      43.55   0.9313E+00   0.83E-01
   14.900      50.04   0.9917E+00   0.71E-01
   14.900      56.44   0.4574E+00   0.83E-01
   14.900      62.74   0.2018E+00   0.33E-01
   14.900      68.93   0.1243E+01   0.83E-01
   14.900      75.00   0.2098E+01   0.83E-01
   14.900      80.94   0.2217E+01   0.10E-00
   14.900      86.74   0.1403E+01   0.42E-01
   14.900      92.38   0.5135E+00   0.33E-01
   14.900      97.87   0.2978E+00   0.83E-01
   14.900     103.20   0.6456E+00   0.62E-01
   14.900     108.37   0.1445E+01   0.83E-01
   14.900     113.37   0.1992E+01   0.12E+00
   14.900     118.20   0.2213E+01   0.83E-01
   14.900     122.87   0.2623E+01   0.13E+00
   14.900     127.38   0.2405E+01   0.83E-01
   14.900     131.74   0.2989E+01   0.15E+00
   14.900     143.93   0.1683E+01   0.83E-01
   14.900     147.74   0.1097E+01   0.94E-01
   14.900     158.55   0.1061E+02   0.83E-01
   14.900     161.98   0.2070E+02   0.53E+00
   14.900     165.34   0.3216E+02   0.57E+00
   14.900     168.66   0.4460E+02   0.83E-01
   15.000      23.63   0.1464E+01   0.64E-01
   15.000      30.32   0.2525E+01   0.40E-01
   15.000      36.94   0.4753E+01   0.17E+00
   15.000      43.51   0.5004E+01   0.47E-01
   15.000      49.99   0.3101E+01   0.14E+00
   15.000      56.39   0.1414E+01   0.39E-01
   15.000      62.69   0.1317E+01   0.93E-01
   15.000      68.88   0.2550E+01   0.42E-01
   15.000      74.94   0.3644E+01   0.45E-01
   15.000      80.87   0.4050E+01   0.15E+00
   15.000      86.67   0.3238E+01   0.34E-01
   15.000      92.31   0.2217E+01   0.31E-01
   15.000      97.80   0.1489E+01   0.41E-01
   15.000     103.13   0.1054E+01   0.87E-01
   15.000     108.30   0.1066E+01   0.39E-01
   15.000     113.30   0.1137E+01   0.96E-01
   15.000     118.13   0.1353E+01   0.39E-01
   15.000     122.80   0.1371E+01   0.10E+00
   15.000     127.31   0.1932E+01   0.42E-01
   15.000     131.67   0.1905E+01   0.13E+00
   15.000     143.88   0.2561E+01   0.47E-01
   15.000     147.69   0.2559E+01   0.16E+00
   15.000     158.51   0.2603E+01   0.64E-01
   15.000     161.94   0.3465E+01   0.24E+00
   15.000     165.32   0.4939E+01   0.24E+00
   15.000     168.63   0.6347E+01   0.52E-01
   15.100      23.61   0.1796E+01   0.71E-01
   15.100      30.29   0.3643E+01   0.72E-01
   15.100      36.91   0.6257E+01   0.19E+00
   15.100      43.47   0.5258E+01   0.71E-01
   15.100      49.95   0.2418E+01   0.12E+00
   15.100      56.34   0.2467E+00   0.71E-01
   15.100      62.64   0.6561E+00   0.66E-01
   15.100      68.82   0.3851E+01   0.71E-01
   15.100      74.88   0.5967E+01   0.71E-01
   15.100      80.81   0.6446E+01   0.19E+00
   15.100      86.60   0.5429E+01   0.51E-01
   15.100      92.24   0.3365E+01   0.48E-01
   15.100      97.73   0.1269E+01   0.71E-01
   15.100     103.06   0.6098E+00   0.66E-01
   15.100     108.22   0.7327E+00   0.71E-01
   15.100     113.22   0.1194E+01   0.99E-01
   15.100     118.06   0.2653E+01   0.71E-01
   15.100     122.73   0.3486E+01   0.17E+00
   15.100     127.24   0.5034E+01   0.71E-01
   15.100     131.60   0.5414E+01   0.22E+00
   15.100     143.82   0.6325E+01   0.71E-01
   15.100     147.64   0.3911E+01   0.19E+00
   15.100     158.47   0.1250E+01   0.71E-01
   15.100     161.91   0.2405E+01   0.20E+00
   15.100     165.29   0.4380E+01   0.23E+00
   15.100     168.61   0.7294E+01   0.71E-01
   15.200      23.59   0.2292E+01   0.80E-01
   15.200      30.26   0.3333E+01   0.69E-01
   15.200      36.88   0.4341E+01   0.16E+00
   15.200      43.43   0.2388E+01   0.80E-01
   15.200      49.91   0.6402E+00   0.62E-01
   15.200      56.30   0.4619E+00   0.80E-01
   15.200      62.59   0.1786E+01   0.11E+00
   15.200      68.76   0.3914E+01   0.80E-01
   15.200      74.82   0.4377E+01   0.80E-01
   15.200      80.75   0.4486E+01   0.16E+00
   15.200      86.54   0.3357E+01   0.52E-01
   15.200      92.18   0.1713E+01   0.45E-01
   15.200      97.66   0.6663E+00   0.80E-01
   15.200     103.99   0.4948E+00   0.60E-01
   15.200     108.15   0.6383E+00   0.80E-01
   15.200     113.15   0.1348E+01   0.10E+00
   15.200     117.99   0.1820E+01   0.80E-01
   15.200     122.66   0.2832E+01   0.15E+00
   15.200     127.18   0.3304E+01   0.80E-01
   15.200     131.54   0.4993E+01   0.21E+00
   15.200     143.76   0.5706E+01   0.80E-01
   15.200     147.59   0.4390E+01   0.21E+00
   15.200     158.43   0.6873E+00   0.80E-01
   15.200     161.88   0.1978E+01   0.18E+00
   15.200     165.26   0.3597E+01   0.21E+00
   15.200     168.59   0.7698E+01   0.80E-01
   15.300      23.57   0.3092E+01   0.92E-01
   15.300      30.24   0.2509E+01   0.59E-01
   15.300      36.85   0.2528E+01   0.12E+00
   15.300      43.40   0.7727E+00   0.92E-01
   15.300      49.87   0.3857E+00   0.48E-01
   15.300      56.25   0.5397E+00   0.92E-01
   15.300      62.54   0.1557E+01   0.10E+00
   15.300      68.71   0.2189E+01   0.92E-01
   15.300      74.76   0.1742E+01   0.92E-01
   15.300      80.69   0.1367E+01   0.88E-01
   15.300      86.47   0.9677E+00   0.41E-01
   15.300      92.11   0.5542E+00   0.35E-01
   15.300      97.59   0.6478E+00   0.92E-01
   15.300     103.92   0.9980E+00   0.84E-01
   15.300     108.08   0.1170E+01   0.92E-01
   15.300     113.08   0.7253E+00   0.76E-01
   15.300     117.92   0.4696E+00   0.92E-01
   15.300     122.59   0.1089E+01   0.93E-01
   15.300     127.11   0.2398E+01   0.92E-01
   15.300     131.47   0.5361E+01   0.22E+00
   15.300     143.71   0.9214E+01   0.92E-01
   15.300     147.54   0.7576E+01   0.27E+00
   15.300     158.40   0.8954E+00   0.92E-01
   15.300     161.85   0.3356E+01   0.23E+00
   15.300     165.24   0.8728E+01   0.32E+00
   15.300     168.57   0.1758E+02   0.92E-01
   15.400      23.55   0.1646E+01   0.68E-01
   15.400      30.21   0.1823E+01   0.51E-01
   15.400      36.82   0.2427E+01   0.12E+00
   15.400      43.36   0.2156E+01   0.68E-01
   15.400      49.83   0.1242E+01   0.87E-01
   15.400      56.21   0.5542E+00   0.68E-01
   15.400      62.49   0.1769E+00   0.34E-01
   15.400      68.66   0.4458E+00   0.68E-01
   15.400      74.71   0.8176E+00   0.68E-01
   15.400      80.63   0.1120E+01   0.80E-01
   15.400      86.41   0.1175E+01   0.37E-01
   15.400      92.05   0.1173E+01   0.36E-01
   15.400      97.53   0.1478E+01   0.68E+01
   15.400     102.85   0.1399E+01   0.10E+00
   15.400     108.01   0.1362E+01   0.68E+01
   15.400     113.01   0.6093E+00   0.70E+01
   15.400     117.85   0.3309E+00   0.68E-01
   15.400     122.53   0.1049E+01   0.91E+01
   15.400     127.05   0.3900E+01   0.68E-01
   15.400     131.41   0.8036E+01   0.27E+00
   15.400     143.66   0.1589E+02   0.68E-01
   15.400     147.49   0.1098E+02   0.32E+00
   15.400     158.36   0.6671E+00   0.68E-01
   15.400     161.82   0.3867E+01   0.25E+00
   15.400     165.21   0.9905E+01   0.34E+00
   15.400     168.56   0.2174E+02   0.68E-01
   15.500      23.54   0.1126E+01   0.37E-01
   15.500      30.19   0.9043E+00   0.24E-01
   15.500      36.79   0.5727E+00   0.58E-01
   15.500      43.33   0.5661E+00   0.37E-01
   15.500      49.79   0.4715E+00   0.54E-01
   15.500      56.17   0.5653E+00   0.37E-01
   15.500      62.44   0.5602E+00   0.61E-01
   15.500      68.61   0.3312E+00   0.37E-01
   15.500      74.65   0.3707E+00   0.37E-01
   15.500      80.57   0.4662E+00   0.51E-01
   15.500      86.35   0.7687E+00   0.23E-01
   15.500      91.98   0.5203E+00   0.23E-01
   15.500      97.46   0.6610E+00   0.37E-01
   15.500     102.79   0.5737E+00   0.64E-01
   15.500     107.95   0.7487E+00   0.37E-01
   15.500     112.95   0.5384E+00   0.66E-01
   15.500     117.79   0.6016E+00   0.37E-01
   15.500     122.46   0.1037E+01   0.91E-01
   15.500     126.98   0.2550E+01   0.37E-01
   15.500     131.35   0.6280E+01   0.24E+00
   15.500     143.61   0.1169E+02   0.37E-01
   15.500     147.44   0.9996E+01   0.31E+00
   15.500     158.33   0.9965E+00   0.37E-01
   15.500     161.79   0.1451E+01   0.15E+00
   15.500     165.19   0.4288E+01   0.22E+00
   15.500     168.54   0.1099E+02   0.37E-01
   15.600      23.52   0.2806E+01   0.18E+00
   15.600      30.17   0.1053E+01   0.35E-01
   15.600      36.76   0.1014E+01   0.77E-01
   15.600      43.30   0.1141E+01   0.69E-01
   15.600      49.75   0.3310E+00   0.18E+00
   15.600      56.12   0.2736E+00   0.35E-01
   15.600      62.39   0.9168E+00   0.18E+00
   15.600      68.56   0.1791E+01   0.93E-01
   15.600      74.60   0.1780E+01   0.82E-01
   15.600      80.51   0.1564E+01   0.18E+00
   15.600      86.29   0.9539E+00   0.46E-01
   15.600      91.92   0.4229E+00   0.35E-01
   15.600      97.40   0.2859E+00   0.37E-01
   15.600     102.72   0.6165E+00   0.18E+00
   15.600     107.88   0.5526E+00   0.54E-01
   15.600     112.88   0.3342E+00   0.18E+00
   15.600     117.72   0.1240E+01   0.80E-01
   15.600     122.40   0.3092E+01   0.18E+00
   15.600     126.92   0.1002E+02   0.24E+00
   15.600     131.29   0.1546E+02   0.18E+00
   15.600     143.56   0.2175E+02   0.37E+00
   15.600     147.39   0.1284E+02   0.18E+00
   15.600     161.76   0.1236E+02   0.18E+00
   15.600     165.17   0.2796E+02   0.18E+00
   15.600     168.52   0.5273E+02   0.66E+00
   15.700      23.50   0.2934E+01   0.18E+00
   15.700      30.14   0.2256E+01   0.51E-01
   15.700      36.74   0.3081E+01   0.13E+00
   15.700      43.26   0.2638E+01   0.10E+00
   15.700      49.72   0.1265E+01   0.18E+00
   15.700      56.08   0.5523E+00   0.49E-01
   15.700      62.35   0.5548E+00   0.18E+00
   15.700      68.51   0.7141E+00   0.59E-01
   15.700      74.55   0.7041E+00   0.51E-01
   15.700      80.46   0.4668E+00   0.18E+00
   15.700      86.23   0.3178E+00   0.30E-01
   15.700      91.86   0.4913E+00   0.37E-01
   15.700      97.34   0.4688E+00   0.47E-01
   15.700     102.66   0.3585E+00   0.18E+00
   15.700     107.82   0.5630E+00   0.55E-01
   15.700     112.82   0.9127E+00   0.18E+00
   15.700     117.66   0.2054E+01   0.10E-01
   15.700     122.34   0.4380E+01   0.18E+00
   15.700     126.86   0.8723E+01   0.23E+00
   15.700     131.23   0.1221E+02   0.18E+00
   15.700     143.51   0.1431E+02   0.30E+00
   15.700     147.35   0.8783E+01   0.18E+00
   15.700     161.74   0.1366E+02   0.18E+00
   15.700     165.14   0.2632E+02   0.18E+00
   15.700     168.50   0.4656E+02   0.62E+00
   15.800      30.12   0.7234E+00   0.53E-01
   15.800      43.23   0.4063E+00   0.41E-01
   15.800      56.04   0.3583E+00   0.40E-01
   15.800      68.46   0.1238E+01   0.77E-01
   15.800      74.50   0.1639E+01   0.79E-01
   15.800      86.17   0.1583E+01   0.81E-01
   15.800      91.80   0.1299E+01   0.76E-01
   15.800      97.28   0.5767E+00   0.52E-01
   15.800     107.76   0.4407E+00   0.48E-01
   15.800     117.60   0.7203E+00   0.61E-01
   15.800     126.80   0.4144E+01   0.16E+00
   15.800     143.46   0.1192E+02   0.27E+00
   15.800     168.48   0.1931E+02   0.40E+00
   15.900      30.10   0.6893E+00   0.52E-01
   15.900      43.20   0.1124E+01   0.68E-01
   15.900      56.00   0.6037E+00   0.52E-01
   15.900      68.41   0.9793E+00   0.68E-01
   15.900      74.45   0.1917E+01   0.85E-01
   15.900      86.12   0.1909E+01   0.89E-01
   15.900      91.74   0.1219E+01   0.73E-01
   15.900      97.22   0.8025E+00   0.61E-01
   15.900     107.70   0.4596E+00   0.49E-01
   15.900     117.54   0.7832E+00   0.64E-01
   15.900     126.74   0.3268E+01   0.14E+00
   15.900     143.41   0.8836E+01   0.23E+00
   15.900     168.46   0.1031E+02   0.29E+00
   16.000      30.08   0.5708E+00   0.48E-01
   16.000      43.17   0.1700E+01   0.84E-01
   16.000      55.96   0.7315E+00   0.57E-01
   16.000      68.37   0.6295E+00   0.55E-01
   16.000      74.40   0.1691E+01   0.80E-01
   16.000      86.06   0.3738E+01   0.13E+00
   16.000      91.69   0.3564E+01   0.13E+00
   16.000      97.16   0.3020E+01   0.12E+00
   16.000     107.64   0.1253E+01   0.82E-01
   16.000     117.48   0.1226E+01   0.80E-01
   16.000     126.69   0.1802E+01   0.10E+00
   16.000     143.37   0.6972E+01   0.21E+00
   16.000     168.45   0.9376E+01   0.28E+00
   16.100      30.06   0.2131E+01   0.92E-01
   16.100      43.14   0.1198E+01   0.70E-01
   16.100      55.92   0.2308E+01   0.10E+00
   16.100      68.32   0.8831E+00   0.65E-01
   16.100      74.35   0.4686E+00   0.42E-01
   16.100      86.01   0.3314E+01   0.12E+00
   16.100      91.63   0.4584E+01   0.14E+00
   16.100      97.10   0.5963E+01   0.17E+00
   16.100     107.58   0.4671E+01   0.16E+00
   16.100     117.42   0.2351E+01   0.11E+00
   16.100     126.63   0.2388E+01   0.12E+00
   16.100     143.32   0.5490E+01   0.18E+00
   16.100     168.43   0.4871E+00   0.63E-01
   16.200      30.04   0.4107E+01   0.11E+00
   16.200      43.11   0.2299E+01   0.86E-01
   16.200      55.89   0.2136E+01   0.86E-01
   16.200      68.28   0.3309E+01   0.11E+00
   16.200      74.30   0.1783E+01   0.72E-01
   16.200      85.96   0.7548E+00   0.49E-01
   16.200      91.58   0.1678E+01   0.76E-01
   16.200      97.05   0.4627E+01   0.13E+00
   16.200     107.52   0.6410E+01   0.16E+00
   16.200     117.36   0.3991E+01   0.13E+00
   16.200     128.58   0.4362E+01   0.14E+00
   16.200     143.28   0.1254E+02   0.24E+00
   16.200     168.42   0.3647E+01   0.15E+00
   16.299      30.02   0.6128E+01   0.15E+00
   16.299      43.08   0.6615E+01   0.16E+00
   16.299      55.85   0.6000E+00   0.50E-01
   16.299      68.23   0.5140E+01   0.15E+00
   16.299      74.25   0.4829E+01   0.13E+00
   16.299      85.91   0.8434E+00   0.58E+01
   16.299      91.52   0.2818E+00   0.34E-01
   16.299      96.99   0.1435E+01   0.80E-01
   16.299     107.47   0.4429E+01   0.15E+00
   16.299     117.31   0.4965E+01   0.16E-00
   16.299     126.52   0.6236E+01   0.19E+00
   16.299     143.23   0.1158E+02   0.26E+00
   16.299     168.40   0.7954E+01   0.25E+00
   16.400      30.00   0.6394E+01   0.16E+00
   16.400      43.05   0.5254E+01   0.15E+00
   16.400      55.82   0.4763E+00   0.46E-01
   16.400      68.19   0.5096E+01   0.16E+00
   16.400      74.21   0.4575E+01   0.13E+00
   16.400      85.86   0.8880E+00   0.61E-01
   16.400      91.47   0.3099E+00   0.37E-01
   16.400      96.94   0.6146E+00   0.54E-01
   16.400     107.41   0.1882E+01   0.10E+00
   16.400     117.25   0.5455E+01   0.17E+00
   16.400     126.47   0.1151E+02   0.26E+00
   16.400     143.19   0.8341E+01   0.23E+00
   16.400     168.38   0.2080E+02   0.41E+00
   16.500      29.98   0.4484E+01   0.13E+00
   16.500      43.03   0.4018E+01   0.13E+00
   16.500      55.78   0.1858E+00   0.28E-01
   16.500      68.15   0.1971E+01   0.95E-01
   16.500      74.16   0.2836E+01   0.10E+00
   16.500      85.81   0.2649E+01   0.10E+00
   16.500      91.42   0.2200E+01   0.96E-01
   16.500      96.89   0.1023E+01   0.67E-01
   16.500     107.36   0.1120E+01   0.75E-01
   16.500     117.20   0.6732E+01   0.18E+00
   16.500     126.42   0.1027E+02   0.24E+00
   16.500     143.15   0.1992E+01   0.11E+00
   16.500     168.37   0.2158E+02   0.41E+00
   16.600      29.96   0.3966E+01   0.12E+00
   16.600      43.00   0.3949E+01   0.13E+00
   16.600      55.75   0.1053E+01   0.68E-01
   16.600      68.11   0.1979E+01   0.97E-01
   16.600      74.12   0.3220E+01   0.11E+00
   16.600      85.76   0.3415E+01   0.12E+00
   16.600      96.84   0.1593E+01   0.85E-01
   16.600     107.31   0.2704E+01   0.12E+00
   16.600     117.15   0.5411E+01   0.16E+00
   16.600     126.37   0.4591E+01   0.16E+00
   16.600     143.11   0.6723E+00   0.64E-01
   16.600     168.35   0.7979E+01   0.25E+00
   16.700      29.94   0.3723E+01   0.12E+00
   16.700      42.97   0.4270E+01   0.13E+00
   16.700      55.71   0.2018E+01   0.95E-01
   16.700      68.07   0.1532E+01   0.86E-01
   16.700      74.08   0.2294E+01   0.93E-01
   16.700      85.71   0.2705E+01   0.11E+00
   16.700      91.32   0.2211E+01   0.99E-01
   16.700      96.79   0.2234E+01   0.10E+00
   16.700     107.25   0.2469E+01   0.11E+00
   16.700     117.10   0.3410E+01   0.13E+00
   16.700     126.32   0.3152E+01   0.14E+00
   16.700     143.07   0.4669E+00   0.54E-01
   16.700     168.34   0.1318E+02   0.33E+00
   16.800      29.92   0.3367E+01   0.12E+00
   16.800      42.95   0.4941E+01   0.14E+00
   16.800      55.68   0.3767E+01   0.13E+00
   16.800      68.03   0.3167E+01   0.12E+00
   16.800      74.04   0.2998E+01   0.11E+00
   16.800      85.67   0.1254E+01   0.73E-01
   16.800      91.28   0.6382E+00   0.53E-01
   16.800      96.74   0.6759E+00   0.56E-01
   16.800     107.20   0.2553E+01   0.12E+00
   16.800     117.05   0.5128E+01   0.16E+00
   16.800     126.28   0.3225E+01   0.14E+00
   16.800     143.03   0.1576E+01   0.98E-01
   16.800     168.32   0.1343E+02   0.33E+00
   16.900      29.90   0.3266E+01   0.11E+00
   16.900      42.92   0.5114E+01   0.15E+00
   16.900      55.65   0.1811E+01   0.90E-01
   16.900      67.99   0.2400E+01   0.11E+00
   16.900      74.00   0.2475E+01   0.97E-01
   16.900      85.62   0.1905E+01   0.89E-01
   16.900      91.23   0.1277E+01   0.75E-01
   16.900      96.69   0.4600E+00   0.46E-01
   16.900     107.15   0.3008E+01   0.13E+00
   16.900     117.00   0.9777E+01   0.22E+00
   16.900     126.23   0.6379E+01   0.19E+00
   16.900     142.99   0.1874E+01   0.11E+00
   16.900     168.31   0.1114E+02   0.30E+00
   17.000      29.88   0.1260E+01   0.71E-01
   17.000      42.90   0.2387E+01   0.10E+00
   17.000      55.61   0.3518E+01   0.13E+00
   17.000      67.95   0.1894E+01   0.96E-01
   17.000      73.96   0.3184E+01   0.11E+00
   17.000      85.58   0.4711E+01   0.14E+00
   17.000      91.18   0.3716E+01   0.13E+00
   17.000      96.64   0.1798E+01   0.92E-01
   17.000     107.11   0.9265E+00   0.70E-01
   17.000     116.95   0.5580E+01   0.17E+00
   17.000     126.18   0.6344E+01   0.19E+00
   17.000     142.95   0.6725E+00   0.64E-01
   17.000     168.30   0.1288E+01   0.10E+00
   17.100      29.87   0.5531E+01   0.15E+00
   17.100      42.87   0.1286E+01   0.88E-01
   17.100      55.58   0.5381E+01   0.16E+00
   17.100      67.92   0.3111E+01   0.12E+00
   17.100      73.92   0.3071E+01   0.11E+00
   17.100      85.53   0.2726E+01   0.11E+00
   17.100      91.14   0.2293E+01   0.10E+00
   17.100      96.60   0.1850E+01   0.93E-01
   17.100     107.06   0.3176E+00   0.41E-01
   17.100     116.90   0.1891E+01   0.99E-01
   17.100     126.14   0.5214E+01   0.17E+00
   17.100     142.92   0.1953E+01   0.11E+00
   17.100     168.28   0.2513E+01   0.14E+00
   17.200      23.27   0.1262E+02   0.21E+00
   17.200      29.85   0.1002E+02   0.14E+00
   17.200      42.85   0.1761E+01   0.58E-01
   17.200      55.55   0.4204E+01   0.93E-01
   17.200      67.88   0.4010E+01   0.94E-01
   17.200      73.88   0.2943E+01   0.71E-01
   17.200      85.49   0.2504E+01   0.70E-01
   17.200      91.09   0.2650E+01   0.73E-01
   17.200      96.55   0.2542E+01   0.74E-01
   17.200     107.01   0.2286E+01   0.74E-01
   17.200     116.86   0.3769E+01   0.94E-01
   17.200     126.09   0.5076E+01   0.12E+00
   17.200     142.88   0.3526E+01   0.99E-01
   17.200     157.85   0.2034E+01   0.97E-01
   17.200     168.27   0.4707E+01   0.13E+00
   17.300      23.26   0.9215E+01   0.33E+00
   17.300      29.83   0.6564E+01   0.20E+00
   17.300      42.82   0.2217E+01   0.12E+00
   17.300      55.52   0.2240E+01   0.12E+00
   17.300      67.84   0.2667E+01   0.14E+00
   17.300      73.84   0.2170E+01   0.11E+00
   17.300      85.45   0.1824E+01   0.11E+00
   17.300      91.05   0.1564E+01   0.10E+00
   17.300      96.50   0.2135E+01   0.12E+00
   17.300     106.97   0.1920E+01   0.12E+00
   17.300     116.81   0.4533E+01   0.19E-00
   17.300     126.05   0.5884E+01   0.23E+00
   17.300     142.84   0.2975E+01   0.16E+00
   17.300     157.82   0.5316E+01   0.28E+00
   17.300     168.26   0.1153E+02   0.37E+00
   17.400      23.24   0.3708E+01   0.21E+00
   17.400      29.82   0.4296E+01   0.16E+00
   17.400      42.80   0.2306E+01   0.12E+00
   17.400      55.49   0.7981E+00   0.73E-01
   17.400      67.81   0.1172E+01   0.92E-01
   17.400      73.80   0.1021E+01   0.76E-01
   17.400      85.41   0.1706E+01   0.10E+00
   17.400      96.46   0.3115E+01   0.15E+00
   17.400     106.92   0.2303E+01   0.13E+00
   17.400     116.77   0.4081E+01   0.18E+00
   17.400     126.01   0.7675E+01   0.26E+00
   17.400     142.81   0.4454E+01   0.20E+00
   17.400     157.80   0.8562E+01   0.36E+00
   17.400     168.24   0.2304E+02   0.52E+00
   17.500      23.23   0.1163E+01   0.12E+00
   17.500      29.80   0.2479E+01   0.12E+00
   17.500      42.78   0.2821E+01   0.13E+00
   17.500      55.46   0.1278E+01   0.92E-01
   17.500      67.78   0.5830E+00   0.65E-01
   17.500      73.76   0.6152E+00   0.59E-01
   17.500      85.37   0.9594E+00   0.77E-01
   17.500      96.42   0.2052E+01   0.12E+00
   17.500     106.88   0.1394E+01   0.10E+00
   17.500     116.72   0.1565E+01   0.11E-00
   17.500     125.96   0.4765E+01   0.20E+00
   17.500     142.78   0.1681E+01   0.12E+00
   17.500     157.78   0.7323E+01   0.33E+00
   17.500     168.23   0.1731E+02   0.45E+00
   17.600      23.22   0.2670E+01   0.18E+00
   17.600      29.79   0.1788E+01   0.10E+00
   17.600      42.76   0.2843E+01   0.13E+00
   17.600      55.44   0.1040E+01   0.83E+01
   17.600      67.74   0.3097E+00   0.47E+01
   17.600      73.73   0.1525E+00   0.29E+01
   17.600      85.33   0.6482E+00   0.64E+01
   17.600      96.38   0.2379E+01   0.13E+00
   17.600     106.83   0.2483E+01   0.14E+00
   17.600     116.68   0.1488E+01   0.11E-00
   17.600     125.92   0.2836E+01   0.16E+00
   17.600     142.74   0.3357E+01   0.17E+00
   17.600     157.76   0.5785E+01   0.30E+00
   17.600     168.22   0.2758E+02   0.57E+00
   17.700      23.21   0.1684E+01   0.14E+00
   17.700      29.77   0.9398E+00   0.75E-01
   17.700      42.73   0.1761E+01   0.11E+00
   17.700      55.41   0.2801E+00   0.43E-01
   17.700      67.71   0.1658E+00   0.35E-01
   17.700      73.69   0.1130E+00   0.25E-01
   17.700      85.29   0.1702E+01   0.10E+00
   17.700      96.33   0.3381E+01   0.15E+00
   17.700     106.79   0.2349E+01   0.14E+00
   17.700     116.64   0.2011E+01   0.12E+00
   17.700     125.88   0.2087E+01   0.13E+00
   17.700     142.71   0.3138E+01   0.17E+00
   17.700     157.73   0.3106E+01   0.22E+00
   17.700     168.21   0.2103E+02   0.50E+00
   17.800      23.19   0.1096E+01   0.11E+00
   17.800      29.75   0.9048E+00   0.74E-01
   17.800      42.71   0.1173E+01   0.86E-01
   17.800      55.38   0.1308E+01   0.93E-01
   17.800      67.68   0.7932E+00   0.76E-01
   17.800      73.66   0.4013E+00   0.48E-01
   17.800      85.25   0.2370E+01   0.12E+00
   17.800      90.84   0.3138E+01   0.14E+00
   17.800      96.29   0.3625E+01   0.16E+00
   17.800     106.75   0.2255E+01   0.13E+00
   17.800     116.60   0.1957E+01   0.12E+00
   17.800     125.84   0.1913E+01   0.13E+00
   17.800     142.68   0.2077E+01   0.14E+00
   17.800     157.71   0.1339E+01   0.14E+00
   17.800     168.19   0.1020E+02   0.34E+00
   17.900      23.18   0.1734E+01   0.14E+00
   17.900      29.74   0.3383E+01   0.14E+00
   17.900      42.69   0.6529E+00   0.64E-01
   17.900      55.35   0.1770E+01   0.11E+00
   17.900      67.64   0.1421E+01   0.10E+00
   17.900      73.62   0.1193E+01   0.82E-01
   17.900      85.21   0.3069E+01   0.14E+00
   17.900      90.80   0.3093E+01   0.14E+00
   17.900      96.25   0.2505E+01   0.13E+00
   17.900     106.71   0.8689E+00   0.82E-01
   17.900     116.56   0.1774E+01   0.12E+00
   17.900     125.80   0.1920E+01   0.13E+00
   17.900     142.64   0.1287E+01   0.11E+00
   17.900     157.69   0.1262E+01   0.14E+00
   17.900     168.18   0.5789E+01   0.26E+00
   18.000      23.17   0.3249E+01   0.19E+00
   18.000      29.72   0.6536E+01   0.20E+00
   18.000      42.67   0.1219E+01   0.87E-01
   18.000      55.33   0.2044E+01   0.12E+00
   18.000      67.61   0.8790E+00   0.79E-01
   18.000      73.59   0.2912E+00   0.40E-01
   18.000      85.17   0.1995E+01   0.11E+00
   18.000      90.77   0.2469E+01   0.13E+00
   18.000      96.21   0.2583E+01   0.13E+00
   18.000     106.67   0.9993E+00   0.88E-01
   18.000     116.52   0.3151E+00   0.49E-01
   18.000     125.77   0.1823E+01   0.12E+00
   18.000     142.61   0.2713E+01   0.15E+00
   18.000     157.67   0.2078E+01   0.18E+00
   18.000     168.17   0.1322E+02   0.39E+00
ENDDATA           1720
ENDSUBENT         1732
ENDENTRY             2
