ENTRY            C0519   20171004   20171208   20171206       C168
SUBENT        C0519001   20171004   20171208   20171206       C168
BIB                 10         19
TITLE      11B+alpha reaction rates and primordial nucleosynthesis
AUTHOR     (T.R.Wang,R.B.Vogelaar,R.W.Kavanagh)
INSTITUTE  (1USACAL)
REFERENCE  (J,PR/C,43,883,1991)
           (J,PR/C,44,1226,1991) Errata.
FACILITY   (VDGT,1USACAL) Tandem Van de Graaff and Pelletron
            accelerators.
INC-SPECT  Beam energy determined to better than 0.1% using 90
            degree analyzing magnet.
MONITOR    Beam analyzing magnet calibrated using:
           . known resonances in 14C(p,n)14N,
           . 1530.03-keV resonance in 24Mg(alpha,gamma)28Si,
           . 991.88-keV resonance in 27Al(p,gamma)28Si.
ERR-ANALYS (DATA-ERR) No information on source of uncertainties.
STATUS     (TABLE) Data received from R. Kavanagh, April 28, 1999
           (APRVD) Approved by R. Kavanagh, 1 June 1999.
HISTORY    (19990504C) VM
           (20170921A) TS+On+OS. Major revisions in 005-006.
            See also CP-D/933. Minor revisions in sub.1.
ENDBIB              19
NOCOMMON             0          0
ENDSUBENT           22
SUBENT        C0519002   19990505   19990901   20050926       0000
BIB                  4         12
REACTION   (5-B-11(A,N)7-N-14,,SIG,,SFC)
SAMPLE     Boron enriched to 98.1% 11B vacuum evaporated onto W
            backing.  Above alpha energy 600 keV, target with
            thickness 3.4+-0.2 microg/cm2 used, elsewhere, target
            thickness is 37+-4 microg/cm2.
DETECTOR   4 pi moderated neutron detectors.
MONITOR    (5-B-11(A,EL)5-B-11,,DA) Yields measured relative to
            alpha scattering on 11B target of thickness
            4.26+-0.25 microg/cm2.
           Neutron detector efficiency measured relative to
            calibrated 252Cf source, and the neutron yield from
            the 7Li(p,n)7Be reaction.
ENDBIB              12
COMMON               2          3
EN-NRM     ANG-NRM
MEV        ADEG
2.         170.
ENDCOMMON            3
DATA                 3        358
EN-CM      DATA-CM    DATA-ERR
KEV        B*KEV      B*KEV
    1759.7  0.1297E+08 0.6744E+05
    1686.4  0.1479E+08 0.8088E+05
    1613.3  0.2107E+08 0.1093E+06
    1598.5  0.2438E+08 0.1207E+06
    1583.9  0.2848E+08 0.1339E+06
    1579.0  0.3188E+08 0.1167E+06
    1569.2  0.3640E+08 0.1555E+06
    1563.9  0.4203E+08 0.1378E+06
    1554.5  0.4857E+08 0.1845E+06
    1547.3  0.6349E+08 0.1746E+06
    1542.8  0.7396E+08 0.1901E+06
    1540.0  0.7789E+08 0.2402E+06
    1538.3  0.8712E+08 0.2081E+06
    1533.8  0.1032E+09 0.2284E+06
    1529.4  0.1249E+09 0.2535E+06
    1525.3  0.1382E+09 0.3289E+06
    1524.9  0.1481E+09 0.2783E+06
    1520.4  0.1707E+09 0.3014E+06
    1515.9  0.1837E+09 0.3154E+06
    1511.5  0.1806E+09 0.3154E+06
    1510.6  0.1874E+09 0.3942E+06
    1507.0  0.1639E+09 0.3031E+06
    1502.6  0.1397E+09 0.2823E+06
    1498.1  0.1133E+09 0.2565E+06
    1495.9  0.1141E+09 0.3166E+06
    1493.7  0.9180E+08 0.2329E+06
    1489.3  0.7504E+08 0.2124E+06
    1484.8  0.6149E+08 0.1940E+06
    1481.3  0.5680E+08 0.1878E+06
    1480.4  0.5214E+08 0.1803E+06
    1476.0  0.4447E+08 0.1680E+06
    1471.6  0.3903E+08 0.1588E+06
    1467.2  0.3467E+08 0.1510E+06
    1466.6  0.3615E+08 0.1544E+06
    1462.8  0.3134E+08 0.1449E+06
    1458.5  0.2873E+08 0.1400E+06
    1454.1  0.2687E+08 0.1366E+06
    1449.7  0.2510E+08 0.1333E+06
    1445.4  0.2399E+08 0.1315E+06
    1441.1  0.2306E+08 0.1301E+06
    1436.7  0.2240E+08 0.1294E+06
    1432.3  0.2163E+08 0.1283E+06
    1428.0  0.2121E+08 0.1283E+06
    1423.7  0.2100E+08 0.1288E+06
    1419.3  0.2002E+08 0.1270E+06
    1415.0  0.2017E+08 0.1286E+06
    1410.8  0.2035E+08 0.1304E+06
    1406.4  0.1999E+08 0.1305E+06
    1402.1  0.2010E+08 0.1321E+06
    1397.9  0.2048E+08 0.1346E+06
    1393.6  0.2043E+08 0.1357E+06
    1389.3  0.2045E+08 0.1371E+06
    1385.0  0.2056E+08 0.1388E+06
    1380.8  0.2090E+08 0.1412E+06
    1376.5  0.2109E+08 0.1433E+06
    1372.3  0.2123E+08 0.1451E+06
    1368.0  0.2114E+08 0.1463E+06
    1363.8  0.2121E+08 0.1479E+06
    1359.6  0.2191E+08 0.1518E+06
    1355.3  0.2208E+08 0.1539E+06
    1351.1  0.2235E+08 0.1563E+06
    1346.9  0.2326E+08 0.1611E+06
    1342.7  0.2372E+08 0.1642E+06
    1338.5  0.2418E+08 0.1675E+06
    1334.3  0.2436E+08 0.1698E+06
    1330.2  0.2406E+08 0.1705E+06
    1326.0  0.2421E+08 0.1727E+06
    1321.8  0.2419E+08 0.1743E+06
    1317.6  0.2491E+08 0.1787E+06
    1313.4  0.2520E+08 0.1816E+06
    1309.3  0.2572E+08 0.1853E+06
    1305.2  0.2576E+08 0.1874E+06
    1301.0  0.2674E+08 0.1928E+06
    1296.9  0.2681E+08 0.1951E+06
    1292.8  0.2743E+08 0.1994E+06
    1288.7  0.2838E+08 0.2049E+06
    1284.5  0.2913E+08 0.2098E+06
    1280.4  0.2975E+08 0.2142E+06
    1276.3  0.3043E+08 0.2189E+06
    1272.3  0.3115E+08 0.2238E+06
    1268.2  0.3127E+08 0.2266E+06
    1264.1  0.3328E+08 0.2362E+06
    1260.1  0.3370E+08 0.2402E+06
    1255.9  0.3466E+08 0.2462E+06
    1251.9  0.3543E+08 0.2516E+06
    1247.9  0.3634E+08 0.2575E+06
    1243.8  0.3747E+08 0.2643E+06
    1239.8  0.3892E+08 0.2722E+06
    1235.8  0.4067E+08 0.2813E+06
    1231.7  0.4206E+08 0.2892E+06
    1227.7  0.4406E+08 0.2992E+06
    1223.7  0.4660E+08 0.3111E+06
    1219.7  0.4903E+08 0.3226E+06
    1215.7  0.5150E+08 0.3342E+06
    1211.7  0.5487E+08 0.3488E+06
    1207.7  0.5743E+08 0.3608E+06
    1203.7  0.6178E+08 0.3783E+06
    1199.8  0.6629E+08 0.3963E+06
    1195.8  0.7268E+08 0.4196E+06
    1191.8  0.7855E+08 0.4411E+06
    1187.9  0.8714E+08 0.4698E+06
    1183.9  0.9692E+08 0.5011E+06
    1180.0  0.1091E+09 0.5376E+06
    1176.1  0.1214E+09 0.5735E+06
    1172.1  0.1344E+09 0.6104E+06
    1168.2  0.1491E+09 0.6502E+06
    1164.3  0.1614E+09 0.6845E+06
    1160.4  0.1669E+09 0.7041E+06
    1156.5  0.1685E+09 0.7156E+06
    1152.6  0.1640E+09 0.7143E+06
    1148.7  0.1561E+09 0.7050E+06
    1144.8  0.1476E+09 0.6936E+06
    1140.9  0.1397E+09 0.6829E+06
    1137.1  0.1346E+09 0.6784E+06
    1133.2  0.1313E+09 0.6780E+06
    1129.4  0.1336E+09 0.6919E+06
    1125.5  0.1414E+09 0.7204E+06
    1121.7  0.1634E+09 0.7838E+06
    1117.8  0.2002E+09 0.8778E+06
    1114.0  0.2586E+09 0.1010E+07
    1110.2  0.3259E+09 0.1147E+07
    1106.4  0.3473E+09 0.1199E+07
    1102.6  0.3007E+09 0.1129E+07
    1098.8  0.2205E+09 0.9789E+06
    1095.0  0.1612E+09 0.8477E+06
    1091.2  0.1269E+09 0.7615E+06
    1087.4  0.1056E+09 0.7035E+06
    1083.6  0.9230E+08 0.6662E+06
    1079.9  0.8161E+08 0.6344E+06
    1076.1  0.7490E+08 0.6155E+06
    1072.3  0.6983E+08 0.6020E+06
    1068.6  0.6702E+08 0.5974E+06
    1064.8  0.6397E+08 0.5911E+06
    1061.1  0.6129E+08 0.5861E+06
    1057.3  0.6029E+08 0.5888E+06
    1053.7  0.5915E+08 0.5907E+06
    1049.9  0.5755E+08 0.5904E+06
    1046.2  0.5675E+08 0.5939E+06
    1042.5  0.5694E+08 0.6026E+06
    1038.8  0.5513E+08 0.6009E+06
    1035.1  0.5532E+08 0.6099E+06
    1031.5  0.5351E+08 0.6077E+06
    1027.8  0.5408E+08 0.6191E+06
    1026.9  0.5270E+08 0.4350E+06
    1024.1  0.5386E+08 0.4396E+06
    1020.5  0.5315E+08 0.4462E+06
    1016.8  0.5233E+08 0.6340E+06
    1013.1  0.5247E+08 0.6435E+06
    1009.4  0.5277E+08 0.6539E+06
    1005.9  0.5270E+08 0.6623E+06
    1002.2  0.5285E+08 0.6725E+06
     998.6  0.5343E+08 0.6855E+06
     994.9  0.5583E+08 0.7103E+06
     991.3  0.5937E+08 0.7421E+06
     987.7  0.6747E+08 0.8018E+06
     985.3  0.7267E+08 0.8397E+06
     981.7  0.9381E+08 0.9665E+06
     978.1  0.1200E+09 0.1108E+07
     974.6  0.1370E+09 0.1199E+07
     971.0  0.1186E+09 0.1132E+07
     967.4  0.8577E+08 0.9778E+06
     963.9  0.6661E+08 0.8751E+06
     960.3  0.5700E+08 0.8220E+06
     959.1  0.5416E+08 0.8043E+06
     958.0  0.5694E+08 0.8283E+06
     956.8  0.5858E+08 0.8443E+06
     955.6  0.6315E+08 0.8802E+06
     954.4  0.6990E+08 0.9301E+06
     953.2  0.7918E+08 0.9945E+06
     952.0  0.8117E+08 0.1012E+07
     950.9  0.8045E+08 0.1012E+07
     949.7  0.7770E+08 0.7072E+06
     948.5  0.6202E+08 0.8981E+06
     947.3  0.4775E+08 0.7932E+06
     946.2  0.4539E+08 0.5561E+06
     945.0  0.4128E+08 0.7456E+06
     942.6  0.4300E+08 0.7691E+06
     939.1  0.4204E+08 0.7711E+06
     935.6  0.4123E+08 0.7754E+06
     932.1  0.4162E+08 0.7909E+06
     928.6  0.4200E+08 0.8069E+06
     925.1  0.4156E+08 0.8157E+06
     921.7  0.4422E+08 0.8541E+06
     918.1  0.4546E+08 0.8798E+06
     914.7  0.4796E+08 0.9174E+06
     911.2  0.5408E+08 0.9885E+06
     907.8  0.6549E+08 0.1101E+07
     904.4  0.7857E+08 0.1224E+07
     900.9  0.1053E+09 0.1436E+07
     897.5  0.1496E+09 0.1733E+07
     894.0  0.2056E+09 0.2059E+07
     890.6  0.2492E+09 0.2301E+07
     888.9  0.2533E+09 0.2337E+07
     887.2  0.2433E+09 0.2309E+07
     885.5  0.2187E+09 0.2207E+07
     883.7  0.1921E+09 0.2087E+07
     881.5  0.1506E+09 0.1870E+07
     880.4  0.1168E+09 0.1660E+07
     875.8  0.8461E+08 0.1444E+07
     872.5  0.6466E+08 0.1283E+07
     869.1  0.4901E+08 0.1137E+07
     865.7  0.4240E+08 0.1078E+07
     862.3  0.3444E+08 0.9917E+06
     859.0  0.2998E+08 0.9449E+06
     855.6  0.2537E+08 0.8891E+06
     852.3  0.2404E+08 0.8804E+06
     848.9  0.2103E+08 0.8410E+06
     845.6  0.1897E+08 0.8151E+06
     842.2  0.1709E+08 0.7918E+06
     838.9  0.1495E+08 0.7599E+06
     835.6  0.1338E+08 0.7348E+06
     832.3  0.1335E+08 0.7522E+06
     829.0  0.1077E+08 0.6995E+06
     825.7  0.1210E+08 0.7485E+06
     822.4  0.1064E+08 0.7216E+06
     819.1  0.9200E+07 0.6916E+06
     815.8  0.9423E+07 0.7114E+06
     812.6  0.9838E+07 0.7396E+06
     809.3  0.1082E+08 0.7832E+06
     806.1  0.1274E+08 0.8567E+06
     802.8  0.1492E+08 0.9340E+06
     799.6  0.2118E+08 0.3279E+06
     796.3  0.2619E+08 0.3635E+06
     793.1  0.3437E+08 0.4229E+06
     789.9  0.4479E+08 0.3554E+06
     786.6  0.5630E+08 0.5623E+06
     783.4  0.6786E+08 0.6231E+06
     780.3  0.7860E+08 0.4943E+06
     777.0  0.8591E+08 0.7250E+06
     773.8  0.8983E+08 0.7548E+06
     770.7  0.8647E+08 0.2027E+06
     767.5  0.8405E+08 0.7478E+06
     764.3  0.8039E+08 0.7451E+06
     761.1  0.7195E+08 0.5236E+06
     758.0  0.6829E+08 0.7126E+06
     754.8  0.6353E+08 0.7001E+06
     751.7  0.5720E+08 0.4935E+06
     748.6  0.5350E+08 0.6674E+06
     745.4  0.4934E+08 0.6536E+06
     742.3  0.4531E+08 0.4665E+06
     739.2  0.4254E+08 0.6303E+06
     736.0  0.4094E+08 0.6307E+06
     733.0  0.3704E+08 0.4467E+06
     729.9  0.3444E+08 0.6017E+06
     726.7  0.3294E+08 0.6009E+06
     723.6  0.3212E+08 0.4409E+06
     720.6  0.3006E+08 0.5971E+06
     717.5  0.2945E+08 0.6038E+06
     714.5  0.2703E+08 0.4299E+06
     711.4  0.2603E+08 0.5922E+06
     708.3  0.2537E+08 0.5962E+06
     705.3  0.2385E+08 0.4302E+06
     702.2  0.2356E+08 0.2296E+07
     700.2  0.2226E+08 0.6104E+06
     695.2  0.2092E+08 0.6129E+06
     690.1  0.2070E+08 0.6304E+06
     685.1  0.1767E+08 0.6042E+06
     680.2  0.1677E+08 0.6092E+06
     675.2  0.1694E+08 0.6338E+06
     670.3  0.1539E+08 0.3764E+06
     665.3  0.1622E+08 0.3997E+06
     660.4  0.1459E+08 0.3951E+06
     655.4  0.1453E+08 0.4085E+06
     650.6  0.1270E+08 0.3969E+06
     645.7  0.1244E+08 0.4087E+06
     640.8  0.1206E+08 0.4183E+06
     636.1  0.1199E+08 0.3055E+06
     631.2  0.1154E+08 0.3093E+06
     626.5  0.1126E+08 0.3179E+06
     621.7  0.1012E+08 0.3150E+06
     616.9  0.1060E+08 0.3351E+06
     612.2  0.9600E+07 0.3338E+06
     607.5  0.9274E+07 0.3418E+06
     602.8  0.9525E+07 0.3610E+06
     598.1  0.9082E+07 0.3680E+06
     593.4  0.9100E+07 0.2732E+06
     588.8  0.8720E+07 0.2823E+06
     584.2  0.8862E+07 0.3039E+06
     579.5  0.9004E+07 0.3263E+06
     575.0  0.9138E+07 0.3523E+06
     570.4  0.9945E+07 0.3905E+06
     565.8  0.1012E+08 0.4239E+06
     561.3  0.1087E+08 0.4734E+06
     556.8  0.1001E+08 0.4970E+06
     552.2  0.1084E+08 0.5184E+06
     547.8  0.1136E+08 0.3911E+06
     543.3  0.1130E+08 0.4130E+06
     538.9  0.1190E+08 0.4447E+06
     534.5  0.1421E+08 0.5063E+06
     530.0  0.1511E+08 0.5480E+06
     525.7  0.1605E+08 0.5914E+06
     521.3  0.1868E+08 0.6750E+06
     517.0  0.2052E+08 0.2421E+07
     512.6  0.2280E+08 0.2676E+07
     508.3  0.2513E+08 0.2944E+07
     504.0  0.2789E+08 0.3252E+07
     499.7  0.3102E+08 0.3613E+07
     495.5  0.3456E+08 0.4006E+07
     491.2  0.3866E+08 0.4474E+07
     487.0  0.4424E+08 0.5089E+07
     482.8  0.5051E+08 0.5798E+07
     478.6  0.5646E+08 0.6571E+07
     474.4  0.6309E+08 0.7333E+07
     470.3  0.7187E+08 0.8321E+07
     466.1  0.8234E+08 0.9510E+07
     462.0  0.9692E+08 0.1113E+08
     459.5  0.8609E+08 0.9219E+07
     457.9  0.1902E+09 0.1264E+08
     456.3  0.4169E+09 0.1809E+08
     455.4  0.6418E+09 0.2229E+08
     454.6  0.9816E+09 0.2751E+08
     453.8  0.1448E+10 0.3349E+08
     453.0  0.1900E+10 0.3858E+08
     452.2  0.2336E+10 0.4310E+08
     451.4  0.2523E+10 0.3916E+08
     450.6  0.2654E+10 0.4682E+08
     449.8  0.2746E+10 0.6532E+08
     449.0  0.2893E+10 0.4986E+08
     448.5  0.3017E+10 0.5116E+08
     448.3  0.2999E+10 0.5113E+08
     448.2  0.2909E+10 0.5046E+08
     448.0  0.2880E+10 0.5029E+08
     447.8  0.3006E+10 0.5148E+08
     447.7  0.3003E+10 0.5153E+08
     447.5  0.2960E+10 0.5123E+08
     447.4  0.2888E+10 0.1198E+09
     447.2  0.2863E+10 0.5056E+08
     447.0  0.2949E+10 0.5141E+08
     446.9  0.2845E+10 0.5058E+08
     446.7  0.2786E+10 0.5014E+08
     446.6  0.2720E+10 0.4962E+08
     446.4  0.2724E+10 0.4973E+08
     446.2  0.2652E+10 0.4920E+08
     446.1  0.2588E+10 0.3403E+08
     445.9  0.2542E+10 0.3416E+08
     445.8  0.2480E+10 0.7660E+08
     445.6  0.2447E+10 0.4752E+08
     445.4  0.2453E+10 0.4769E+08
     445.2  0.2336E+10 0.4663E+08
     445.1  0.2254E+10 0.4590E+08
     445.0  0.1927E+10 0.9341E+08
     444.8  0.1540E+10 0.3828E+08
     444.6  0.1076E+10 0.3234E+08
     444.4  0.5790E+09 0.2431E+08
     444.3  0.2683E+09 0.1750E+08
     444.1  0.1315E+09 0.1816E+08
     443.7  0.1232E+09 0.1325E+08
     443.3  0.1365E+09 0.9748E+07
     441.7  0.1381E+09 0.5056E+07
     433.7  0.1092E+09 0.5271E+07
     425.8  0.8339E+08 0.5425E+07
     418.0  0.5773E+08 0.5532E+07
     410.2  0.3841E+08 0.6106E+07
     402.5  0.4063E+08 0.7320E+07
     394.9  0.4437E+07 0.7888E+07
     307.0  0.0000E+00 0.2404E+09
     300.3  0.0000E+00 0.3542E+09
     293.7  0.9699E+08 0.1332E+10
ENDDATA            360
ENDSUBENT          381
SUBENT        C0519003   19990505   19990901   20050926       0000
BIB                  4          9
REACTION   (5-B-11(A,N)7-N-14,,SIG,,SFC)
SAMPLE     Moderately thick target.
DETECTOR   4 pi moderated neutron detectors.
MONITOR    (5-B-11(A,EL)5-B-11,,DA) Yields measured relative to
            alpha scattering on 11B target of thickness
            4.26+-0.25 microg/cm2.
           Neutron detector efficiency measured relative to
            calibrated 252Cf source, and the neutron yield from
            the 7Li(p,n)7Be reaction.
ENDBIB               9
COMMON               2          3
EN-NRM     ANG-NRM
MEV        ADEG
2.         170.
ENDCOMMON            3
DATA                 3         65
EN-CM      DATA-CM    DATA-ERR
KEV        B*KEV      B*KEV
     525.7  0.1605E+08 0.5914E+06
     521.3  0.1868E+08 0.6750E+06
     517.0  0.2052E+08 0.2421E+07
     512.6  0.2280E+08 0.2676E+07
     508.3  0.2513E+08 0.2944E+07
     504.0  0.2789E+08 0.3252E+07
     499.7  0.3102E+08 0.3613E+07
     495.5  0.3456E+08 0.4006E+07
     491.2  0.3866E+08 0.4474E+07
     487.0  0.4424E+08 0.5089E+07
     482.8  0.5051E+08 0.5798E+07
     478.6  0.5646E+08 0.6571E+07
     474.4  0.6309E+08 0.7333E+07
     470.3  0.7187E+08 0.8321E+07
     466.1  0.8234E+08 0.9510E+07
     462.0  0.9692E+08 0.1113E+08
     459.5  0.8609E+08 0.9219E+07
     457.9  0.1902E+09 0.1264E+08
     456.3  0.4169E+09 0.1809E+08
     455.4  0.6418E+09 0.2229E+08
     454.6  0.9816E+09 0.2751E+08
     453.8  0.1448E+10 0.3349E+08
     453.0  0.1900E+10 0.3858E+08
     452.2  0.2336E+10 0.4310E+08
     451.4  0.2523E+10 0.3916E+08
     450.6  0.2654E+10 0.4682E+08
     449.8  0.2746E+10 0.6532E+08
     449.0  0.2893E+10 0.4986E+08
     448.5  0.3017E+10 0.5116E+08
     448.3  0.2999E+10 0.5113E+08
     448.2  0.2909E+10 0.5046E+08
     448.0  0.2880E+10 0.5029E+08
     447.8  0.3006E+10 0.5148E+08
     447.7  0.3003E+10 0.5153E+08
     447.5  0.2960E+10 0.5123E+08
     447.4  0.2888E+10 0.1198E+09
     447.2  0.2863E+10 0.5056E+08
     447.0  0.2949E+10 0.5141E+08
     446.9  0.2845E+10 0.5058E+08
     446.7  0.2786E+10 0.5014E+08
     446.6  0.2720E+10 0.4962E+08
     446.4  0.2724E+10 0.4973E+08
     446.2  0.2652E+10 0.4920E+08
     446.1  0.2588E+10 0.3403E+08
     445.9  0.2542E+10 0.3416E+08
     445.8  0.2480E+10 0.7660E+08
     445.6  0.2447E+10 0.4752E+08
     445.4  0.2453E+10 0.4769E+08
     445.2  0.2336E+10 0.4663E+08
     445.1  0.2254E+10 0.4590E+08
     445.0  0.1927E+10 0.9341E+08
     444.8  0.1540E+10 0.3828E+08
     444.6  0.1076E+10 0.3234E+08
     444.4  0.5790E+09 0.2431E+08
     444.3  0.2683E+09 0.1750E+08
     444.1  0.1315E+09 0.1816E+08
     443.7  0.1232E+09 0.1325E+08
     443.3  0.1365E+09 0.9748E+07
     441.7  0.1381E+09 0.5056E+07
     433.7  0.1092E+09 0.5271E+07
     425.8  0.8339E+08 0.5425E+07
     418.0  0.5773E+08 0.5532E+07
     410.2  0.3841E+08 0.6106E+07
     402.5  0.4063E+08 0.7320E+07
     394.9  0.4437E+07 0.7888E+07
ENDDATA             67
ENDSUBENT           85
SUBENT        C0519004   19990505   19990901   20050926       0000
BIB                  4          9
REACTION   (5-B-11(A,N)7-N-14,,SIG,,SFC)
SAMPLE     Thin target
DETECTOR   4 pi moderated neutron detectors.
MONITOR    (5-B-11(A,EL)5-B-11,,DA) Yields measured relative to
            alpha scattering on 11B target of thickness
            4.26+-0.25 microg/cm2.
           Neutron detector efficiency measured relative to
            calibrated 252Cf source, and the neutron yield from
            the 7Li(p,n)7Be reaction.
ENDBIB               9
COMMON               2          3
EN-NRM     ANG-NRM
MEV        ADEG
2.         170.
ENDCOMMON            3
DATA                 3         22
EN-CM      DATA-CM    DATA-ERR
KEV        B*KEV      B*KEV
     453.0  0.2883E+08 0.1249E+09
     451.4  0.1960E+09 0.1330E+09
     449.8  0.5995E+08 0.1311E+09
     448.2  0.2381E+09 0.1451E+09
     446.9  0.6727E+09 0.1640E+09
     446.4  0.1978E+10 0.2064E+09
     446.1  0.2895E+10 0.2334E+09
     445.9  0.4577E+10 0.2734E+09
     445.8  0.6525E+10 0.3134E+09
     445.6  0.9606E+10 0.3682E+09
     445.4  0.1319E+11 0.4235E+09
     445.2  0.1792E+11 0.4869E+09
     445.1  0.1937E+11 0.3604E+09
     445.0  0.2071E+11 0.3718E+09
     444.8  0.2121E+11 0.3774E+09
     444.7  0.1922E+11 0.5186E+09
     444.6  0.1697E+11 0.3423E+09
     444.4  0.1035E+11 0.3834E+09
     444.3  0.5042E+10 0.2886E+09
     444.1  0.1246E+10 0.1893E+09
     443.7  0.1595E+08 0.1429E+09
     443.3  0.1094E+09 0.1471E+09
ENDDATA             24
ENDSUBENT           42
SUBENT        C0519005   20171004   20171208   20171206       C168
BIB                  5          8
REACTION   (5-B-11(A,N)7-N-14,,MLT,,TT/REL)
            Data given as counts/microCoulomb
SAMPLE     85-keV thick target
DETECTOR   4 pi moderated neutron detectors.
MONITOR    Neutron detector efficiency measured relative to
            calibrated 252Cf source, and the neutron yield from
            the 7Li(p,n)7Be reaction.
HISTORY    (20170921A) TS+On. REACTION(SF6,SF8) revised.
ENDBIB               8
NOCOMMON             0          0
DATA                 3         53
EN         DATA       DATA-ERR
KEV        ARB-UNITS  ARB-UNITS
   724.00    4.533589    0.034793
   718.00    4.796439    0.043844
   703.50    8.878177    0.108757
   689.00   19.257755    0.131567
   675.25   28.700808    0.206079
   660.50   30.487194    0.218951
   646.50   31.045237    0.221831
   635.50   31.843039    0.229163
   632.75   31.7018      0.1600
   630.00   31.380713    0.226692
   624.50   31.716568    0.252144
   619.00   32.520634    0.201773
   616.25   32.147766    0.250340
   613.50   31.968479    0.176430
   610.75   32.299286    0.214984
   609.50   32.154869    0.279668
   608.25   31.505783    0.118786
   607.50   31.184326    0.155818
   606.75   28.02010     0.70745
   606.25   25.842270    0.153069
   606.00   23.587017    0.145824
   605.75   20.948425    0.135742
   605.50   17.531286    0.120824
   605.25   15.172369    0.105787
   605.00   13.823629    0.109017
   604.75   10.930600    0.101000
   604.50    4.790107    0.056562
   604.00    3.9124      0.060000
   603.75    3.7540      0.11730
   602.75    3.7314      0.0610
   592.25    2.4728      0.0379
   579.00    1.3277      0.0233
   565.75    0.5905      0.0147
   553.00    0.3084      0.0089
   540.25    0.1600      0.0051
   527.50    0.0983      0.0037
   520.00    0.0753      0.0083
   510.00    0.0419      0.0026
   499.50    0.0296      0.0034
   489.50    0.02305     0.00233
   479.75    0.01768     0.00182
   469.75    0.01063     0.00149
   459.50    0.00990     0.00101
   449.50    0.00719     0.00136
   439.50    0.00541     0.00079
   429.50    0.00490     0.00024
   420.50    0.00506     0.00082
   411.50    0.00255     0.00067
   402.75    0.00126     0.00064
   394.00    0.1000E-5   0.00062
   389.75    0.00037     0.00017
   381.25    0.1000E-5   0.00063
   346.75    0.1000E-5   0.00017
ENDDATA             55
ENDSUBENT           68
SUBENT        C0519006   20171004   20171208   20171206       C168
BIB                  5          8
REACTION   (5-B-11(A,N)7-N-14,,MLT,,TT/REL)
            Data given as counts/microCoulomb
SAMPLE     85-keV thick target
DETECTOR   4 pi moderated neutron detectors.
MONITOR    Neutron detector efficiency measured relative to
            calibrated 252Cf source, and the neutron yield from
            the 7Li(p,n)7Be reaction.
HISTORY    (20170921A) TS+On. REACTION(SF6,SF8) revised.
ENDBIB               8
NOCOMMON             0          0
DATA                 3         16
EN         DATA       DATA-ERR
KEV        ARB-UNITS  ARB-UNITS
    346.75 -2.4759E-05 1.7000E-04
    381.25 -1.4563E-04 6.3000E-04
    389.75  1.5051E-04 1.7000E-04
    394.00 -2.6857E-04 6.2000E-04
    402.75  8.5570E-04 6.4000E-04
    411.50  1.9462E-03 6.7000E-04
    420.50  4.1547E-03 8.2000E-04
    429.50  3.5517E-03 2.4000E-04
    439.50  3.3250E-03 7.9000E-04
    449.50  3.9849E-03 1.3600E-03
    459.50  4.9954E-03 1.0100E-03
    469.75  3.0695E-03 1.4900E-03
    479.75  6.1671E-03 1.8200E-03
    489.50  5.7018E-03 2.3300E-03
    499.50  3.1331E-03 3.4000E-03
    510.00  4.7580E-04 2.6000E-03
ENDDATA             18
ENDSUBENT           31
SUBENT        C0519007   19990505   19990901   20050926       0000
BIB                  4         10
REACTION   (5-B-11(A,P)6-C-14,,SIG)
SAMPLE     49-microg/cm2 11B target evaporated onto a Nb foil.
DETECTOR   (SOLST)  Eight 100-micron-thick surface-barrier
            detectors at 0 - 160 degrees with respect to alpha
            beam and an additional detector at 90 degrees on the
            opposite side to check left-right asymmetry.
CORRECTION Corrected for:
           . center-of-mass motion,
           . angular attenuation,
           . 10B contaminant peaks in the spectrum.
ENDBIB              10
NOCOMMON             0          0
DATA                 3         57
EN         DATA       DATA-ERR
KEV        MICRO-B    MICRO-B
    1819.0    916.0052   104.8710
    1772.5   1239.1595   141.8802
    1727.0   2004.3491    85.1552
    1704.3   2509.0884   106.5990
    1681.8   3410.2529   144.8850
    1659.5   4212.4277   178.9660
    1637.3   5497.1973   233.5662
    1615.3   5655.3164   180.6525
    1604.3   5448.5571   223.5850
    1593.3   5166.1948   259.0518
    1571.5   3329.6003   143.4342
    1550.0   1978.0865    61.6774
    1528.5   1315.3833    41.0141
    1507.3    827.0388    16.0062
    1498.5    556.1766    12.1989
    1486.0    339.2382     5.9052
    1465.0    184.3044     7.6923
    1444.3    129.9144     8.0031
    1423.5     84.6930     5.2836
    1402.8     78.7878     5.1282
    1382.5     61.8492     5.8275
    1362.3     46.8453     1.7405
    1342.3     48.2284     2.4087
    1322.3     28.7257     1.3364
    1302.3     14.2036     0.7304
    1282.8     10.9013     0.8392
    1263.3     11.0800     1.1344
    1243.8      8.4538     1.6472
    1234.3      8.8345     1.7249
    1224.8      7.1251     0.8081
    1205.5      4.7708     0.6993
    1186.8      2.2688     0.6605
    1168.0      2.7350     0.8003
    1149.5      2.6185     0.3030
    1130.8      2.6030     0.3186
    1112.5      3.0614     0.2098
    1094.5      3.5120     0.2642
    1076.5      3.1080     0.5284
    1040.8      1.7172     0.1942
    1005.8      0.6371     0.3963
     937.8      0.2409     0.1010
     808.5      0.1476     0.0777
     724.0      0.2176     0.0699
     712.3      0.3574     0.0932
     700.6      0.4973     0.1165
     689.1      0.7148     0.1321
     677.7      0.5051     0.1088
     666.3      0.6449     0.1243
     655.1      0.9013     0.1321
     643.9      0.7226     0.1399
     632.9      0.8003     0.1554
     621.9      0.5905     0.1165
     611.1      0.8003     0.1399
     608.4      0.6838     0.1554
     605.7      0.2486     0.0932
     603.0      0.1632     0.1165
     597.6      0.1787     0.0932
ENDDATA             59
ENDSUBENT           74
SUBENT        C0519008   19990505   19990901   20050926       0000
BIB                  4          8
REACTION   (5-B-11(A,P)6-C-14,,DA,,REL)
SAMPLE     Various 11B targets.
DETECTOR   (SOLST) 100-micron-thick surface-barrier detector at
            0 - 160 degrees with respect to alpha beam.
CORRECTION Corrected for:
           . center-of-mass motion,
           . angular attenuation,
           . 10B contaminant peaks in the spectrum.
ENDBIB               8
COMMON               1          3
EN
KEV
606.
ENDCOMMON            3
DATA                 3         17
ANG-CM     DATA-CM    DATA-ERR
ADEG       ARB-UNITS  ARB-UNITS
     0.00   2.1858     0.1405
     5.49   2.4354     0.3756
    10.97   1.8665     0.2731
    21.91   2.2639     0.1405
    32.79   1.2064     0.2845
    43.59   1.2803     0.1249
    64.84   0.7170     0.1138
    75.25   0.5726     0.0607
    85.50   0.5235     0.0683
    95.59   0.7133     0.0514
   105.50   0.7056     0.0569
   115.25   0.6146     0.0683
   124.84   0.7916     0.0579
   134.28   1.0926     0.0683
   143.59   1.4199     0.0693
   152.79   1.9006     0.0910
   161.91   2.2050     0.0804
ENDDATA             19
ENDSUBENT           36
SUBENT        C0519009   19990505   19990901   20050926       0000
BIB                  5         13
REACTION   (5-B-11(A,G)7-N-15,PAR,DA,,REL)
SAMPLE     Thick target of 11B powder pressed into a recess in a
            Cu disk.
DETECTOR   (GE-IN) High-purity germanium detector.
MONITOR    Detector calibrated using NBS standard source, 56Co
            and 27Al(p,gamma).
           Angular dependence of detector efficiency determined
            using 340-keV resonance in 19F(p,alpha-gamma)16O.
CORRECTION Corrected for:
           . variation of detection efficiency (up to 11%)
           . Cascade-summing (up to 13%),
           . center-of-mass motion,
           . angular attenuation.
ENDBIB              13
COMMON               1          3
EN
KEV
606.
ENDCOMMON            3
DATA                 4         10
E          ANG-CM     DATA-CM    DATA-ERR
MEV        ADEG       ARB-UNITS  ARB-UNITS
 5.27          0.00    0.8687     0.0256
 5.27         20.10    0.9574     0.0267
 5.27         40.18    1.1032     0.0291
 5.27         60.25    1.3610     0.0337
 5.27         90.28    1.3614     0.0350
 6.32          0.00    1.1822     0.0640
 6.32         20.10    1.1765     0.0640
 6.32         40.18    1.0951     0.0657
 6.32         60.25    0.8151     0.0691
 6.32         90.28    0.6544     0.0614
ENDDATA             12
ENDSUBENT           34
SUBENT        C0519010   19990505   19990901   20050926       0000
BIB                  4         10
REACTION   (6-C-14(P,N)7-N-14,,SIG)
SAMPLE     Target enriched to >95% 14C on a Pt backing.  Target
            thickness 20.8+-1.3 microg/cm2.
DETECTOR   4pi-moderated polyethylene cube neutron detectors.
MONITOR    (5-B-11(A,N)7-N-14,,SIG)
           Neutron detector efficiency measured relative to
            calibrated 252Cf source, and the neutron yield from
            the 7Li(p,n)7Be reaction.
           Target thickness measured using elastic scattering of
            alphas at 1.0 and 1.5 MeV.
ENDBIB              10
NOCOMMON             0          0
DATA                 3         78
EN         DATA       DATA-ERR
KEV        MICRO-B    MICRO-B
   1459.25   16935.619    119.549
   1426.31   23987.840    169.463
   1409.94   28895.580    203.208
   1393.69   35243.340    202.903
   1377.13   46265.602    206.438
   1369.13   53985.863    240.337
   1360.63   63111.645    280.877
   1352.56   75208.648    335.769
   1344.56   95161.906    300.563
   1336.56  122088.148    385.378
   1332.56  141746.578    447.817
   1328.56  164425.906    519.312
   1324.63  192899.219    609.021
   1320.69  224459.969    708.442
   1319.06  239652.328    756.306
   1318.25  246228.625    766.208
   1317.50  252209.297    750.218
   1316.69  257744.203    813.579
   1315.88  264634.781    761.752
   1315.13  269583.281    695.320
   1314.31  274477.313    863.914
   1313.50  279050.313    878.495
   1312.75  282269.125    885.169
   1311.94  287673.969    812.104
   1311.13  289041.031    849.602
   1310.38  291354.531    908.251
   1309.56  294670.406    708.140
   1308.75  293518.281    926.802
   1308.00  290975.969    842.287
   1307.19  289264.719    903.295
   1306.44  286932.375    760.746
   1305.63  280149.219    724.772
   1304.81  275644.875    767.471
   1304.06  271932.031    859.383
   1303.25  262961.094    828.851
   1302.50  255300.141    809.254
   1301.69  248173.266    702.823
   1300.94  240564.500    734.142
   1297.06  195712.078    588.037
   1293.13  150455.359    433.436
   1289.19  112401.648    495.971
   1281.44   65282.734    335.716
   1273.75   34921.949    218.819
   1265.75   23462.789    163.255
   1250.31    9947.803     92.631
   1235.06    5189.994     51.525
   1219.63    3897.116     12.213
   1212.31    3913.522     11.539
   1204.69    4468.406     11.751
   1197.19    5748.081     16.861
   1189.56    8944.446     28.193
   1182.13   16608.367     51.907
   1174.63   43705.715    138.151
   1170.69  106493.711    343.642
   1166.88  263337.688    848.616
   1165.00  352322.563   1109.795
   1163.31  341963.781   1077.256
   1159.56  135869.281    428.759
   1152.25   28279.336    199.106
   1144.88   11085.639     73.176
   1137.25    6186.008     19.025
   1129.94    3944.977      8.522
   1122.63    2869.515      7.152
   1118.94    2509.701      5.808
   1114.69    2256.850      5.869
   1111.75    2067.489      6.177
   1108.06    1924.481      6.047
   1104.50    1771.043      5.581
   1101.06    1654.986      4.708
   1097.31    1563.212      4.934
   1093.56    1481.518      4.660
   1089.94    1422.425      3.743
   1086.38    1367.338      4.313
   1082.75    1321.068      3.267
   1079.31    1276.276      2.549
   1072.13    1229.935      3.005
   1064.88    1175.645      3.614
   1057.81    1133.788      2.542
ENDDATA             80
ENDSUBENT           95
SUBENT        C0519011   19990505   19990901   20050926       0000
BIB                  2          5
REACTION  1(5-B-11(A,0),,EN)
          2(5-B-11(A,N),,WID)
ANALYSIS   From Breit-Wigner analysis of 11B(alpha,n).
           Resonance energies given (except 606 keV) are observed
            peak energies less half target thickness.
ENDBIB               5
NOCOMMON             0          0
DATA                 5          4
DATA      1DATA-ERR  1DATA      2DATA-ERR  2DATA-MAX  2
KEV        KEV        KEV        KEV        KEV
 336.7        1.4
 411.0        2.0                            10.
 604.7        1.0       38.2        4.0
 606.0        0.5        2.15E-03   0.38E-03
ENDDATA              6
ENDSUBENT           16
SUBENT        C0519012   19990505   19990901   20050926       0000
BIB                  2          5
REACTION  1(5-B-11(A,0),,J)
          2(5-B-11(A,0),,PTY)
ANALYSIS   From Breit-Wigner analysis of 11B(alpha,p) angular
            distribution.
           Resonance energy taken from fit to 11B(alpha,n).
ENDBIB               5
NOCOMMON             0          0
DATA                 4          1
EN-RES     EN-RES-ERR DATA      1DATA      2
KEV        KEV        NO-DIM     NO-DIM
 606.0        0.5       3.5       -1.0
ENDDATA              3
ENDSUBENT           13
SUBENT        C0519013   19990505   19990901   20050926       0000
BIB                  2          5
REACTION  1(6-C-14(P,0),,EN)
          2(6-C-14(P,N),,WID)
ANALYSIS   From Breit-Wigner analysis of 11B(alpha,n).
           Resonance energies given are observed peak energies
            less half target thickness.
ENDBIB               5
NOCOMMON             0          0
DATA                 5          3
DATA      1DATA-ERR  1DATA      2DATA-ERR  2DATA-MAX  2
KEV        KEV        KEV        KEV        KEV
1105.3        1.0       2.4        0.5
1162.0        1.0       5.8        0.3
1318.1        1.0                             0.4
ENDDATA              5
ENDSUBENT           15
ENDENTRY            13
