ENTRY            10789   20100715   20100917   20100916       1366
SUBENT        10789001   20100715   20100917   20100916       1366
BIB                 13         38
INSTITUTE  (1USAORL)
REFERENCE  (J,NSE,70,163,197905)
AUTHOR     (G.L.Morgan)
TITLE      Cross Sections for the 14N(n,p), 14N(n,alpha-0) and
            14N(n,alpha-1) Reactions from 0.5 to 15 MeV
FACILITY   (LINAC,1USAORL) Oak Ridge Electron Linear Accelerator
INC-SOURCE (EVAP) Electrons on tantalum
DETECTOR   (SCIN) Gaseous scintillator, stainless steel cylinder
            5.1-cm diameter by 7.6-cm long with 0.25-cm thick
            walls. Quartz window at each end, 1.27-cm thick.
            Inside wall covered with Al, MgO, and diphenylstibene.
            Windows covered with diphenylstibene and attached to
            photomultipliers. Filled with nitrogen-xenon mixture.
           (FISCH) Fission chamber for neutron intensity
           (SCIN) Plastic scintillator, 0.64 by 0.64-cm for
            neutron intensity.
METHOD     (TOF) Time of flight with 29-m path length. Beam
            filtered with depleted uranium to reduce gamma flashes
            and 10B to block low energy neutrons. Beam collimated
            to minimize interactions with scintillator wall.
           Four runs made for each measurement- sample, back-
            ground, helium monitor, and helium background.
MONITOR    (2-HE-4(N,EL)2-HE-4,,SIG)  Flux monitored using
            fission chamber or small plastic scintillator.
CORRECTION Corrected for background and wall losses.
ERR-ANALYS (ERR-T) Total uncertainties given include:
            .neutron interaction with xenon (<2 mb),
            .statistical errors, and
           (ERR-1) normalization uncertainty (7%),
           (ERR-2,,3.) uncertainty in wall loss correction (0-3%).
STATUS     (TABLE) Data received on magnetic tape, G. Morgan,
                   1978/10/13.
           (APRVD) Approved by G.L. Morgan, 1979/2/21.
HISTORY    (19790103C)
           (19790618A) Reference update
           (19860120A) BIB update.
           (20100715A) VM:Updated to new date formats,lower case.
                       BIB updates.
ENDBIB              38
COMMON               1          3
ERR-1
PER-CENT
  7.
ENDCOMMON            3
ENDSUBENT           45
SUBENT        10789002   20100715   20100917   20100916       1366
BIB                  3          3
REACTION   (7-N-14(N,P)6-C-14,,SIG)
COMMENT    Scintillator using 10-atm N2 and 48-atm Xe
HISTORY    (19860120A) Q-value deleted.
ENDBIB               3
NOCOMMON             0          0
DATA                 4        432
EN         EN-RSL     DATA       ERR-T
MEV        MEV        MB         MB
 0.464      0.002        2.912     1.568
 0.469      0.003        6.017     1.615
 0.471      0.002        8.032     1.847
 0.473      0.003       12.120     1.904
 0.476      0.003       19.620     2.505
 0.479      0.003       25.280     2.841
 0.481      0.003       32.970     3.501
 0.484      0.003       58.420     5.389
 0.486      0.003      122.600     9.979
 0.489      0.003      230.200    17.728
 0.492      0.003      273.900    20.903
 0.494      0.003      192.900    15.022
 0.497      0.003      103.600     8.497
 0.500      0.003       56.470     5.128
 0.502      0.003       39.270     3.849
 0.505      0.003       30.320     3.178
 0.508      0.003       16.690     2.156
 0.511      0.003       13.850     1.849
 0.514      0.003       11.150     1.749
 0.516      0.003       13.690     1.898
 0.519      0.003        8.729     1.438
 0.522      0.003        8.005     1.409
 0.525      0.003        9.099     1.556
 0.528      0.003        6.039     1.330
 0.531      0.003        4.697     1.076
 0.534      0.003        6.068     1.192
 0.537      0.003        7.164     1.244
 0.540      0.003        4.011     1.021
 0.543      0.003        6.304     1.200
 0.546      0.003        4.105     1.204
 0.549      0.003        5.686     1.093
 0.553      0.003        5.172     1.060
 0.556      0.003        5.253     1.000
 0.559      0.003        3.680     0.988
 0.562      0.003        4.208     1.055
 0.565      0.003        5.022     1.052
 0.569      0.003        3.662     0.933
 0.572      0.003        5.839     1.073
 0.575      0.003        6.875     1.323
 0.579      0.003        8.506     1.342
 0.582      0.003        7.206     1.295
 0.586      0.003       12.540     1.594
 0.589      0.003       15.760     1.791
 0.593      0.003       21.090     2.122
 0.596      0.003       27.830     2.619
 0.600      0.004       31.300     2.889
 0.603      0.004       42.350     3.634
 0.607      0.004       47.830     3.974
 0.611      0.004       68.640     5.432
 0.614      0.004       84.850     6.665
 0.618      0.004      108.900     8.443
 0.622      0.004      133.800    10.207
 0.626      0.004      172.700    12.922
 0.629      0.004      212.400    15.674
 0.633      0.004      234.800    17.232
 0.637      0.004      234.700    17.186
 0.641      0.004      218.000    15.988
 0.645      0.004      191.800    14.121
 0.649      0.004      172.300    12.742
 0.653      0.004      141.700    10.566
 0.657      0.004      125.400     9.431
 0.661      0.004      111.600     8.445
 0.665      0.004       93.380     7.140
 0.670      0.004       85.470     6.580
 0.674      0.004       78.250     6.039
 0.678      0.004       64.210     5.064
 0.682      0.004       59.680     4.736
 0.687      0.004       55.110     4.381
 0.691      0.004       48.120     3.847
 0.696      0.004       44.020     3.543
 0.700      0.005       40.060     3.248
 0.705      0.004       30.150     2.574
 0.709      0.005       36.350     2.994
 0.714      0.005       33.480     2.840
 0.719      0.005       27.490     2.429
 0.723      0.005       27.400     2.406
 0.728      0.005       25.970     2.307
 0.733      0.005       24.660     2.161
 0.738      0.005       21.310     1.939
 0.743      0.005       22.010     1.992
 0.758      0.005       21.090     1.900
 0.763      0.005       15.730     1.537
 0.768      0.005       16.220     1.577
 0.773      0.005       12.730     1.293
 0.778      0.005       12.530     1.296
 0.784      0.005       14.430     1.432
 0.789      0.005       11.200     1.220
 0.795      0.005       13.910     1.408
 0.800      0.006       12.400     1.275
 0.806      0.006       12.800     1.299
 0.811      0.006       10.610     1.149
 0.817      0.006        8.832     1.004
 0.823      0.006        8.803     0.990
 0.828      0.006        9.026     0.992
 0.834      0.006       10.070     1.053
 0.840      0.006        8.851     0.983
 0.846      0.006        7.735     0.922
 0.852      0.006        8.177     0.927
 0.858      0.006        7.464     0.868
 0.864      0.006        7.139     0.846
 0.871      0.006        6.515     0.780
 0.877      0.006        6.273     0.788
 0.883      0.006        6.864     0.808
 0.890      0.006        6.008     0.741
 0.896      0.007        6.373     0.749
 0.903      0.007        6.207     0.774
 0.910      0.007        6.574     0.767
 0.916      0.007        7.614     0.852
 0.923      0.007        7.355     0.813
 0.930      0.007        6.412     0.758
 0.937      0.007        7.521     0.808
 0.944      0.007        8.700     0.907
 0.951      0.007       11.010     1.061
 0.958      0.007       11.710     1.106
 0.965      0.007       13.030     1.231
 0.973      0.007       16.280     1.447
 0.980      0.008       19.960     1.711
 0.988      0.008       22.220     1.874
 0.995      0.008       25.140     2.076
 1.003      0.008       23.590     1.969
 1.011      0.008       18.020     1.554
 1.019      0.008       10.420     1.030
 1.027      0.008        7.072     0.795
 1.035      0.008        4.526     0.592
 1.043      0.008        3.221     0.562
 1.051      0.008        2.714     0.476
 1.059      0.009        1.704     0.425
 1.066      0.004        2.085     0.601
 1.070      0.004        2.060     0.613
 1.074      0.005        2.136     0.603
 1.079      0.004        1.939     0.506
 1.083      0.004        2.900     0.649
 1.088      0.005        1.288     0.537
 1.092      0.004        3.135     0.685
 1.096      0.004        3.673     0.663
 1.101      0.005        5.012     0.847
 1.105      0.004        6.133     0.887
 1.110      0.005        9.226     1.104
 1.114      0.004        6.598     0.930
 1.118      0.005       12.030     1.275
 1.123      0.004       11.690     1.267
 1.127      0.005        9.639     1.119
 1.132      0.005        7.361     0.922
 1.137      0.004        6.820     0.892
 1.141      0.005        5.054     0.751
 1.147      0.005        5.383     0.746
 1.152      0.005        8.040     0.938
 1.156      0.004        6.197     0.806
 1.161      0.005        6.934     0.898
 1.166      0.005        6.862     0.881
 1.170      0.005        7.854     0.978
 1.176      0.005        8.828     1.034
 1.181      0.005        9.245     1.048
 1.185      0.005        8.837     1.028
 1.191      0.005       12.420     1.290
 1.196      0.005       14.410     1.414
 1.200      0.005       17.730     1.666
 1.206      0.005       22.820     2.036
 1.211      0.005       23.650     2.107
 1.215      0.005       20.070     1.839
 1.221      0.006       19.940     1.820
 1.227      0.005       14.900     1.461
 1.232      0.005       13.850     1.382
 1.236      0.005       10.810     1.165
 1.242      0.006       12.240     1.263
 1.248      0.005       15.560     1.494
 1.252      0.005       14.160     1.436
 1.258      0.006       14.860     1.455
 1.264      0.005       16.900     1.614
 1.269      0.006       15.380     1.486
 1.274      0.005       17.760     1.651
 1.280      0.006       16.050     1.562
 1.286      0.006       18.080     1.692
 1.292      0.005       20.000     1.838
 1.297      0.006       21.180     1.957
 1.303      0.006       22.820     2.043
 1.309      0.006       29.140     2.485
 1.315      0.005       34.310     2.880
 1.320      0.006       39.180     3.211
 1.326      0.006       47.560     3.800
 1.332      0.006       62.950     4.877
 1.338      0.006       85.570     6.468
 1.344      0.006      118.300     8.760
 1.350      0.006      134.300     9.895
 1.356      0.006      141.700    10.406
 1.362      0.006      137.900    10.122
 1.368      0.006      136.300    10.015
 1.375      0.007      142.100    10.416
 1.381      0.006      155.400    11.368
 1.387      0.006      180.500    13.141
 1.394      0.007      217.800    15.760
 1.400      0.006      246.700    17.785
 1.406      0.006      259.800    18.701
 1.412      0.007      253.600    18.268
 1.419      0.006      226.100    16.331
 1.426      0.007      198.900    14.429
 1.432      0.006      159.200    11.646
 1.439      0.007      127.700     9.434
 1.446      0.007       99.000     7.405
 1.453      0.007       77.900     5.925
 1.459      0.006       70.670     5.412
 1.465      0.007       59.360     4.602
 1.472      0.007       50.510     3.988
 1.479      0.007       38.530     3.134
 1.486      0.007       40.410     3.249
 1.493      0.007       32.130     2.670
 1.500      0.007       30.780     2.561
 1.507      0.007       27.550     2.354
 1.515      0.008       25.950     2.229
 1.522      0.007       23.560     2.080
 1.529      0.007       20.220     1.861
 1.537      0.007       19.620     1.811
 1.544      0.008       20.970     1.904
 1.551      0.007       17.050     1.648
 1.559      0.008       17.250     1.651
 1.566      0.007       14.780     1.483
 1.574      0.008       17.980     1.685
 1.582      0.008       17.970     1.670
 1.589      0.007       23.490     2.094
 1.597      0.008       24.450     2.150
 1.605      0.008       21.480     1.974
 1.613      0.008       20.260     1.881
 1.621      0.008       17.930     1.706
 1.629      0.008       13.560     1.380
 1.637      0.008       12.500     1.309
 1.645      0.008       12.590     1.319
 1.653      0.008       11.750     1.265
 1.662      0.009        9.644     1.126
 1.670      0.008       13.560     1.374
 1.678      0.008       11.650     1.221
 1.686      0.009        9.644     1.118
 1.695      0.008       11.860     1.239
 1.704      0.009       12.430     1.311
 1.712      0.008       11.640     1.270
 1.721      0.009       11.000     1.192
 1.729      0.009       10.830     1.231
 1.738      0.009       12.380     1.329
 1.748      0.009       11.720     1.306
 1.757      0.009       13.320     1.418
 1.765      0.009       13.390     1.425
 1.774      0.009       14.680     1.505
 1.784      0.009       14.060     1.474
 1.793      0.009       16.600     1.633
 1.802      0.010       12.240     1.323
 1.811      0.009       12.090     1.370
 1.821      0.009        9.896     1.177
 1.830      0.010       11.080     1.235
 1.840      0.010        8.772     1.080
 1.850      0.009       10.470     1.193
 1.859      0.010       10.120     1.164
 1.869      0.010        8.928     1.089
 1.879      0.010        9.469     1.114
 1.889      0.010       10.610     1.172
 1.899      0.010        9.776     1.166
 1.909      0.010        9.152     1.089
 1.919      0.010       11.070     1.268
 1.929      0.011        7.607     1.026
 1.940      0.010        8.336     1.069
 1.950      0.011       11.170     1.273
 1.961      0.010        7.438     0.975
 1.971      0.011       10.200     1.195
 1.983      0.011        9.913     1.173
 1.993      0.011        8.690     1.058
 2.004      0.010        8.784     1.159
 2.015      0.012        9.785     1.190
 2.026      0.011       10.530     1.221
 2.037      0.011       10.220     1.242
 2.049      0.011        8.522     1.139
 2.060      0.012       12.520     1.397
 2.072      0.011        8.519     1.143
 2.083      0.012        8.249     1.156
 2.095      0.011        8.457     1.177
 2.106      0.012       11.310     1.363
 2.118      0.012       10.250     1.345
 2.130      0.012       13.570     1.534
 2.142      0.012       15.610     1.691
 2.154      0.012       16.980     1.797
 2.167      0.013       20.870     2.098
 2.179      0.012       25.800     2.485
 2.192      0.013       35.360     3.149
 2.204      0.012       41.400     3.564
 2.217      0.013       54.850     4.554
 2.229      0.013       48.020     4.123
 2.243      0.013       48.250     4.120
 2.255      0.013       38.020     3.375
 2.269      0.013       31.340     2.869
 2.282      0.013       26.240     2.543
 2.295      0.014       18.980     2.040
 2.308      0.013       17.070     1.873
 2.322      0.014       11.240     1.504
 2.336      0.014       15.090     1.698
 2.350      0.014       16.850     1.809
 2.364      0.014       12.790     1.583
 2.378      0.014       14.440     1.677
 2.392      0.014       14.170     1.658
 2.406      0.014       14.330     1.697
 2.421      0.015       15.010     1.773
 2.435      0.015       11.370     1.503
 2.450      0.014       14.110     1.638
 2.465      0.015       14.810     1.729
 2.479      0.015       17.470     1.929
 2.495      0.016       17.280     1.986
 2.511      0.015       17.320     1.950
 2.525      0.015       17.930     2.070
 2.541      0.016       12.690     1.784
 2.557      0.016       20.980     2.261
 2.573      0.016       21.160     2.279
 2.589      0.016       20.200     2.286
 2.605      0.016       26.290     2.703
 2.621      0.017       27.430     2.777
 2.638      0.016       32.390     3.211
 2.655      0.017       38.610     3.674
 2.671      0.017       52.610     4.710
 2.688      0.017       67.590     5.839
 2.706      0.017       83.900     7.109
 2.722      0.017      107.700     8.810
 2.740      0.018      126.300    10.163
 2.757      0.017      118.300     9.604
 2.775      0.018       90.280     7.597
 2.793      0.018       69.060     6.092
 2.811      0.018       44.830     4.278
 2.829      0.019       39.630     3.882
 2.848      0.018       31.650     3.267
 2.866      0.019       28.920     3.134
 2.886      0.019       26.620     2.920
 2.905      0.019       28.630     3.076
 2.924      0.019       27.310     2.964
 2.943      0.020       35.820     3.639
 2.963      0.020       33.590     3.463
 2.982      0.019       34.350     3.514
 3.002      0.021       32.600     3.402
 3.023      0.020       27.580     3.023
 3.043      0.020       31.280     3.315
 3.063      0.021       35.140     3.652
 3.085      0.021       29.480     3.168
 3.106      0.021       30.550     3.278
 3.127      0.021       32.920     3.486
 3.148      0.022       30.240     3.286
 3.170      0.022       39.310     4.038
 3.192      0.022       32.670     3.497
 3.214      0.022       36.330     3.800
 3.236      0.023       34.910     3.686
 3.259      0.022       43.970     4.396
 3.282      0.023       36.220     3.855
 3.305      0.023       40.190     4.192
 3.328      0.024       40.970     4.201
 3.352      0.024       43.040     4.421
 3.376      0.024       44.650     4.586
 3.400      0.024       53.760     5.218
 3.424      0.024       50.020     4.983
 3.449      0.025       57.410     5.536
 3.474      0.025       69.110     6.414
 3.498      0.025       76.280     7.082
 3.524      0.026       83.070     7.536
 3.550      0.026       80.930     7.501
 3.576      0.026       78.180     7.240
 3.602      0.026       81.390     7.439
 3.629      0.027       77.340     7.254
 3.655      0.027       71.990     6.966
 3.683      0.027       61.730     6.058
 3.710      0.028       75.870     7.035
 3.738      0.028       80.510     7.459
 3.766      0.028       79.080     7.302
 3.794      0.028       93.080     8.494
 3.822      0.029       90.720     8.320
 3.852      0.029      103.300     9.295
 3.881      0.030      108.300     9.576
 3.911      0.030      109.400     9.639
 3.941      0.030      131.800    11.407
 3.972      0.031      101.300     9.135
 4.002      0.031      124.100    10.862
 4.034      0.031      106.500     9.699
 4.065      0.032       97.120     8.851
 4.097      0.032      115.900    10.379
 4.129      0.032      113.900    10.095
 4.161      0.033       96.220     8.771
 4.195      0.033      102.900     9.426
 4.228      0.034       99.920     9.106
 4.262      0.034       99.320     9.147
 4.296      0.034       97.700     9.103
 4.331      0.035       90.980     8.581
 4.365      0.035       87.480     8.210
 4.401      0.036       72.150     7.146
 4.437      0.036       75.060     7.340
 4.474      0.037       57.510     6.068
 4.511      0.037       57.860     6.071
 4.548      0.037       62.120     6.496
 4.585      0.038       58.350     6.049
 4.623      0.038       51.870     5.614
 4.661      0.039       44.240     4.864
 4.701      0.040       34.510     4.268
 4.741      0.040       46.390     4.934
 4.781      0.040       34.130     4.121
 4.822      0.041       31.460     3.803
 4.863      0.042       25.400     3.500
 4.905      0.042       33.490     3.915
 4.947      0.042       26.200     3.284
 4.989      0.043       31.820     3.666
 5.033      0.044       27.360     3.339
 5.077      0.044       31.450     3.686
 5.122      0.045       27.580     3.404
 5.166      0.045       29.850     3.527
 5.212      0.046       22.960     2.994
 5.258      0.047       23.740     2.946
 5.305      0.047       20.580     2.719
 5.353      0.048       22.150     2.804
 5.401      0.049       16.790     2.316
 5.451      0.049       20.130     2.575
 5.500      0.050       14.910     2.226
 5.550      0.050       17.340     2.408
 5.601      0.052       16.610     2.285
 5.653      0.052       17.020     2.344
 5.705      0.052       18.390     2.462
 5.758      0.054       18.750     2.503
 5.812      0.054       19.580     2.537
 5.867      0.055       19.920     2.609
 5.922      0.056       16.930     2.255
 5.978      0.056       16.740     2.231
 6.035      0.058       13.710     2.042
 6.093      0.058       12.160     1.845
 6.151      0.059       20.060     2.542
 6.211      0.060       17.520     2.358
 6.271      0.061       19.610     2.490
 6.333      0.062       15.440     2.220
 6.395      0.062       23.340     2.829
 6.458      0.064       17.370     2.344
 6.522      0.064       13.570     2.128
 6.587      0.066       20.980     2.531
 6.653      0.066       14.880     2.091
 6.720      0.067       13.010     1.937
 6.788      0.069       16.600     2.295
 6.857      0.070       16.520     2.220
ENDDATA            434
ENDSUBENT          442
SUBENT        10789003   20100715   20100917   20100916       1366
BIB                  3          4
REACTION   (7-N-14(N,A)5-B-11,,SIG)
FLAG       (1.) Scintillator using 2-atm N2 and 11-atm Xe.
           (2.) Scintillator using 10-atm N2 and 48-atm Xe.
HISTORY    (19860120A) Q-value deleted, split into 2 subentries.
ENDBIB               4
NOCOMMON             0          0
DATA                 5        239
EN         EN-RSL     DATA       ERR-T      FLAG
MEV        MEV        MB         MB         NO-DIM
  1.320     0.006       1.331     0.959      2.
  1.326     0.006       2.907     1.183      2.
  1.332     0.006       7.917     1.395      2.
  1.338     0.006       8.024     1.542      2.
  1.344     0.006      23.100     2.394      2.
  1.350     0.006      26.270     2.596      2.
  1.356     0.006      27.440     2.648      2.
  1.362     0.006      21.350     2.228      2.
  1.368     0.006      22.050     2.204      2.
  1.375     0.007      16.460     1.905      2.
  1.381     0.006       9.290     1.535      2.
  1.387     0.006      16.820     1.902      2.
  1.394     0.007      19.240     2.070      2.
  1.400     0.006      23.920     2.321      2.
  1.406     0.006      27.060     2.553      2.
  1.412     0.007      25.440     2.418      2.
  1.419     0.006      22.100     2.213      2.
  1.426     0.007      20.940     2.165      2.
  1.432     0.006      18.440     1.990      2.
  1.439     0.007      18.250     1.906      2.
  1.446     0.007      11.360     1.555      2.
  1.453     0.007      12.250     1.525      2.
  1.459     0.006      10.080     1.452      2.
  1.465     0.007       6.264     1.404      2.
  1.472     0.007       9.722     1.412      2.
  1.479     0.007       3.335     1.238      2.
  1.486     0.007       3.177     1.121      2.
  1.493     0.007       0.428     0.944      2.
  1.500     0.007       3.050     1.127      2.
  1.507     0.007      13.540     1.602      2.
  1.515     0.008       8.615     1.281      2.
  1.522     0.007       3.733     1.155      2.
  1.529     0.007      10.160     1.338      2.
  1.537     0.007       7.913     1.286      2.
  1.544     0.008       6.244     1.109      2.
  1.551     0.007       8.696     1.313      2.
  1.559     0.008       8.328     1.303      2.
  1.566     0.007       6.320     1.196      2.
  1.574     0.008       7.751     1.250      2.
  1.582     0.008       2.414     1.210      2.
  1.589     0.007       9.640     1.335      2.
  1.597     0.008      10.090     1.441      2.
  1.605     0.008       8.284     1.325      2.
  1.613     0.008       6.052     1.255      2.
  1.621     0.008      11.660     1.517      2.
  1.629     0.008      11.810     1.444      2.
  1.637     0.008       8.980     1.358      2.
  1.645     0.008       8.375     1.296      2.
  1.653     0.008      15.920     1.778      2.
  1.662     0.009      14.140     1.568      2.
  1.670     0.008      14.930     1.624      2.
  1.678     0.008      12.820     1.529      2.
  1.686     0.009      13.450     1.528      2.
  1.695     0.008      13.400     1.685      2.
  1.704     0.009      16.150     1.784      2.
  1.712     0.008      21.980     2.129      2.
  1.721     0.009      23.770     2.290      2.
  1.729     0.009      29.450     2.639      2.
  1.738     0.009      38.420     3.269      2.
  1.748     0.009      51.800     4.193      2.
  1.757     0.009      69.980     5.492      2.
  1.765     0.009     107.300     8.120      2.
  1.774     0.009     154.500    11.428      2.
  1.784     0.009     193.000    14.138      2.
  1.793     0.009     194.400    14.235      2.
  1.802     0.010     178.100    13.071      2.
  1.811     0.009     147.600    10.933      2.
  1.821     0.009     114.500     8.603      2.
  1.830     0.010      92.860     7.077      2.
  1.840     0.010      70.990     5.574      2.
  1.850     0.009      59.740     4.785      2.
  1.859     0.010      56.960     4.576      2.
  1.869     0.010      47.850     3.955      2.
  1.879     0.010      44.340     3.696      2.
  1.889     0.010      44.340     3.705      2.
  1.899     0.010      45.230     3.783      2.
  1.909     0.010      38.790     3.326      2.
  1.919     0.010      39.270     3.415      2.
  1.929     0.011      35.950     3.187      2.
  1.940     0.010      36.420     3.198      2.
  1.950     0.011      37.540     3.260      2.
  1.961     0.010      34.790     3.058      2.
  1.971     0.011      34.100     2.994      2.
  1.983     0.011      34.460     3.047      2.
  1.993     0.011      33.300     3.038      2.
  2.004     0.010      27.060     2.665      2.
  2.015     0.012      21.280     2.333      2.
  2.026     0.011      30.510     2.853      2.
  2.037     0.011      34.570     3.102      2.
  2.049     0.011      35.810     3.187      2.
  2.060     0.012      40.380     3.510      2.
  2.072     0.011      39.420     3.448      2.
  2.083     0.012      34.950     3.203      2.
  2.095     0.011      41.800     3.654      2.
  2.106     0.012      42.220     3.703      2.
  2.118     0.012      43.300     3.792      2.
  2.130     0.012      48.170     4.148      2.
  2.142     0.012      52.930     4.466      2.
  2.154     0.012      61.560     5.045      2.
  2.167     0.013      65.110     5.369      2.
  2.179     0.012      86.780     6.884      2.
  2.192     0.013     105.800     8.200      2.
  2.204     0.012     133.700    10.158      2.
  2.217     0.013     153.700    11.569      2.
  2.229     0.013     162.900    12.262      2.
  2.243     0.013     145.700    11.049      2.
  2.255     0.013     122.500     9.387      2.
  2.269     0.013     100.900     7.880      2.
  2.282     0.013      84.510     6.748      2.
  2.295     0.014      67.160     5.522      2.
  2.308     0.013      64.930     5.383      2.
  2.322     0.014      56.690     4.760      2.
  2.336     0.014      56.390     4.777      2.
  2.350     0.014      59.970     4.992      2.
  2.364     0.014      57.100     4.829      2.
  2.378     0.014      62.640     5.204      2.
  2.392     0.014      60.360     5.060      2.
  2.406     0.014      61.300     5.155      2.
  2.421     0.015      55.300     4.741      2.
  2.435     0.015      60.470     5.147      2.
  2.450     0.014      67.750     5.649      2.
  2.465     0.015      74.190     6.154      2.
  2.479     0.015      81.070     6.615      2.
  2.495     0.016      96.530     7.764      2.
  2.511     0.015      97.970     7.876      2.
  2.525     0.015      96.210     7.852      2.
  2.541     0.016      84.900     7.022      2.
  2.557     0.016      84.740     6.966      2.
  2.573     0.016      76.040     6.339      2.
  2.589     0.016      75.790     6.372      2.
  2.605     0.016      80.460     6.701      2.
  2.621     0.017      89.240     7.335      2.
  2.638     0.016      93.760     7.667      2.
  2.655     0.017      97.380     7.918      2.
  2.671     0.017     109.700     8.843      2.
  2.688     0.017     130.700    10.381      2.
  2.706     0.017     125.600    10.088      2.
  2.722     0.017     125.300    10.074      2.
  2.740     0.018     117.100     9.485      2.
  2.757     0.017     108.300     8.887      2.
  2.775     0.018     103.300     8.512      2.
  2.793     0.018     118.900     9.722      2.
  2.811     0.018     140.400    11.229      2.
  2.829     0.019     147.600    11.747      2.
  2.848     0.018     147.400    11.704      2.
  2.866     0.019     164.900    12.996      2.
  2.886     0.019     165.100    13.085      2.
  2.905     0.019     166.700    13.153      2.
  2.924     0.019     173.300    13.663      2.
  2.943     0.020     197.600    15.388      2.
  2.963     0.020     217.000    16.792      2.
  2.982     0.019     221.100    17.079      2.
  3.002     0.021     214.900    16.638      2.
  3.009     0.020     243.300    22.761      1.
  3.023     0.020     201.500    15.766      2.
  3.029     0.020     232.500    21.540      1.
  3.043     0.020     228.000    17.642      2.
  3.049     0.021     268.200    24.994      1.
  3.063     0.021     243.100    18.778      2.
  3.070     0.021     278.500    25.347      1.
  3.085     0.021     256.100    19.647      2.
  3.092     0.021     299.500    27.914      1.
  3.106     0.021     246.900    19.043      2.
  3.113     0.021     250.200    23.046      1.
  3.127     0.021     244.500    18.920      2.
  3.134     0.021     254.200    23.357      1.
  3.148     0.022     217.400    16.983      2.
  3.155     0.022     263.800    25.120      1.
  3.170     0.022     235.700    18.371      2.
  3.177     0.022     252.200    23.719      1.
  3.192     0.022     239.500    18.621      2.
  3.199     0.022     286.300    26.911      1.
  3.214     0.022     263.200    20.356      2.
  3.221     0.022     287.000    26.350      1.
  3.236     0.023     290.600    22.321      2.
  3.243     0.023     317.700    28.922      1.
  3.259     0.022     314.000    24.037      2.
  3.266     0.023     320.500    29.187      1.
  3.282     0.023     326.300    25.060      2.
  3.289     0.023     332.400    30.879      1.
  3.305     0.023     319.500    24.556      2.
  3.313     0.023     287.500    26.222      1.
  3.328     0.024     292.400    22.562      2.
  3.336     0.024     366.100    35.454      1.
  3.352     0.024     305.600    23.586      2.
  3.359     0.023     287.800    27.009      1.
  3.376     0.024     289.800    22.439      2.
  3.383     0.024     314.200    29.222      1.
  3.400     0.024     304.300    23.446      2.
  3.407     0.025     322.900    30.155      1.
  3.424     0.024     304.300    23.583      2.
  3.432     0.024     315.800    29.013      1.
  3.449     0.025     304.600    23.593      2.
  3.456     0.025     332.000    31.464      1.
  3.474     0.025     332.200    25.585      2.
  3.482     0.025     363.600    33.505      1.
  3.498     0.025     322.900    25.103      2.
  3.507     0.025     481.500    45.604      1.
  3.524     0.026     333.600    25.830      2.
  3.532     0.026     378.500    35.105      1.
  3.550     0.026     342.700    26.573      2.
  3.558     0.026     389.000    36.290      1.
  3.576     0.026     315.200    24.583      2.
  3.584     0.026     411.900    39.983      1.
  3.602     0.026     300.500    23.448      2.
  3.611     0.027     324.900    30.545      1.
  3.629     0.027     280.900    22.133      2.
  3.637     0.027     288.600    27.760      1.
  3.655     0.027     275.400    21.871      2.
  3.664     0.027     296.100    28.699      1.
  3.683     0.027     263.800    20.849      2.
  3.692     0.027     310.800    30.030      1.
  3.710     0.028     243.700    19.399      2.
  3.719     0.028     301.000    29.023      1.
  3.738     0.028     265.800    21.051      2.
  3.747     0.028     321.200    31.837      1.
  3.766     0.028     264.700    20.893      2.
  3.775     0.028     249.300    24.863      1.
  3.794     0.028     302.200    23.848      2.
  3.803     0.029     286.400    28.086      1.
  3.822     0.029     292.000    23.039      2.
  3.833     0.029     321.000    31.912      1.
  3.852     0.029     293.800    23.248      2.
  3.861     0.029     316.000    30.687      1.
  3.881     0.030     305.300    23.873      2.
  3.891     0.030     326.000    32.542      1.
  3.911     0.030     283.000    22.241      2.
  3.921     0.030     350.100    34.866      1.
  3.941     0.030     320.900    25.222      2.
  3.951     0.030     360.900    36.066      1.
  3.972     0.031     331.100    25.918      2.
  3.981     0.031     366.100    35.634      1.
  4.002     0.031     364.600    28.476      2.
  4.012     0.031     320.600    31.079      1.
  4.034     0.031     396.700    30.846      2.
  4.044     0.031     406.300    38.989      1.
  4.065     0.032     378.600    29.379      2.
  4.075     0.032     398.200    37.853      1.
  4.097     0.032     399.100    31.093      2.
ENDDATA            241
ENDSUBENT          250
SUBENT        10789004   20100715   20100917   20100916       1366
BIB                  3          3
REACTION   (7-N-14(N,A)5-B-11,PAR,SIG)
COMMENT    Scintillator using 2-atm N2 and 11-atm Xe.
HISTORY    (19860120A) Reaction, data heading corrected.
ENDBIB               3
COMMON               1          3
Q-VAL
MEV
 -2.278
ENDCOMMON            3
DATA                 4         94
EN         EN-RSL     DATA       ERR-T
MEV        MEV        MB         MB
  4.107     0.032       2.244     4.122
  4.140     0.033       7.422     4.039
  4.173     0.033       7.501     4.014
  4.206     0.033      12.130     4.615
  4.239     0.034      24.000     4.863
  4.273     0.034      22.200     5.074
  4.307     0.034      28.100     5.804
  4.341     0.035      29.330     5.830
  4.377     0.036      31.760     6.432
  4.413     0.036      23.640     4.914
  4.449     0.036      36.110     6.296
  4.485     0.037      36.120     6.127
  4.522     0.037      34.630     5.908
  4.559     0.037      42.710     6.860
  4.597     0.038      38.070     6.195
  4.636     0.039      46.170     7.144
  4.674     0.039      48.670     7.191
  4.714     0.040      57.560     8.435
  4.754     0.040      41.900     6.665
  4.794     0.040      36.160     5.962
  4.835     0.041      47.560     7.112
  4.876     0.042      49.420     6.932
  4.918     0.042      57.880     7.839
  4.961     0.043      50.340     7.345
  5.003     0.043      56.460     8.249
  5.047     0.044      64.300     8.321
  5.091     0.045      48.350     6.738
  5.137     0.045      49.020     7.110
  5.182     0.045      57.540     8.164
  5.227     0.046      50.490     6.776
  5.274     0.047      62.960     8.275
  5.321     0.048      67.230     8.691
  5.369     0.048      59.420     7.628
  5.418     0.049      57.690     7.646
  5.466     0.049      54.040     7.483
  5.516     0.050      61.090     7.761
  5.567     0.051      55.910     7.390
  5.618     0.052      53.080     6.841
  5.670     0.052      56.630     7.277
  5.723     0.053      48.420     6.822
  5.775     0.053      45.910     6.433
  5.830     0.055      48.580     6.535
  5.885     0.055      50.590     6.687
  5.940     0.056      76.090     9.165
  5.997     0.057      56.990     7.196
  6.054     0.058      54.530     6.929
  6.112     0.058      81.130     9.165
  6.170     0.059      93.100    10.232
  6.230     0.061     101.900    10.916
  6.291     0.061      94.720    10.513
  6.353     0.062      60.810     7.789
  6.415     0.063      38.350     5.012
  6.479     0.064      36.480     4.797
  6.543     0.064      38.100     5.091
  6.608     0.066      40.490     5.125
  6.674     0.067      38.150     5.208
  6.742     0.068      38.540     5.125
  6.810     0.068      36.960     5.110
  6.879     0.070      34.890     4.794
  6.950     0.071      34.410     4.863
  7.021     0.072      48.090     6.144
  7.094     0.074      50.360     6.026
  7.168     0.074      68.170     7.677
  7.243     0.075      57.980     6.569
  7.318     0.077      57.920     6.705
  7.396     0.078      60.150     6.692
  7.475     0.079      70.060     8.046
  7.554     0.081      51.160     6.048
  7.636     0.081      57.500     7.030
  7.718     0.084      48.520     6.104
  7.802     0.084      58.440     6.889
  7.887     0.086      75.310     8.447
  7.974     0.087      62.420     7.630
  8.061     0.089      32.500     4.441
  8.151     0.090      27.890     3.924
  8.242     0.092      39.160     5.050
  8.248     0.459      39.520     3.075
  8.334     0.093      27.000     4.040
  8.429     0.095      28.130     4.370
  8.524     0.096      29.910     4.613
  8.622     0.099      25.320     3.685
  8.721     0.100      30.020     4.164
  8.728     0.500      33.570     2.649
  8.821     0.101      24.740     3.944
  8.924     0.104      29.580     4.364
  9.251     0.546      31.510     2.549
  9.760     0.473      35.720     2.952
 10.253     0.513      33.010     2.799
 10.785     0.550      24.230     2.206
 11.280     0.440      18.850     1.950
 11.735     0.470      10.160     1.342
 12.480     1.020       6.862     0.866
 13.475     0.970       5.109     0.909
 14.495     1.070       4.084     1.155
ENDDATA             96
ENDSUBENT          108
SUBENT        10789005   20100715   20100917   20100916       1366
BIB                  3          4
REACTION   (7-N-14(N,A)5-B-11,PAR,SIG)
FLAG       (1.) Scintillator using 2-atm N2 and 11-atm Xe.
           (2.) Scintillator using 10-atm N2 and 48-atm Xe.
HISTORY    (19860120A) Split from 10789003, reaction corrected.
ENDBIB               4
COMMON               1          3
E-LVL
MEV
 0.
ENDCOMMON            3
DATA                 5        153
EN         EN-RSL     DATA       ERR-T      FLAG
MEV        MEV        MB         MB         NO-DIM
  4.107     0.032     356.300    35.321      1.
  4.129     0.032     359.900    28.018      2.
  4.140     0.033     352.100    34.388      1.
  4.161     0.033     346.500    27.021      2.
  4.173     0.033     326.900    32.793      1.
  4.195     0.033     343.600    26.987      2.
  4.206     0.033     404.500    39.569      1.
  4.228     0.034     312.200    24.616      2.
  4.239     0.034     335.300    32.995      1.
  4.262     0.034     335.200    26.409      2.
  4.273     0.034     323.300    31.326      1.
  4.296     0.034     305.100    24.328      2.
  4.307     0.034     301.300    30.491      1.
  4.331     0.035     308.800    24.471      2.
  4.341     0.035     334.300    34.463      1.
  4.365     0.035     275.600    22.036      2.
  4.377     0.036     281.000    28.715      1.
  4.401     0.036     294.000    23.402      2.
  4.413     0.036     259.800    26.294      1.
  4.437     0.036     280.200    22.449      2.
  4.449     0.036     234.400    23.909      1.
  4.474     0.037     265.100    21.137      2.
  4.485     0.037     278.300    28.085      1.
  4.511     0.037     289.300    22.941      2.
  4.522     0.037     312.500    31.395      1.
  4.548     0.037     313.300    24.810      2.
  4.559     0.037     326.200    33.258      1.
  4.585     0.038     329.500    25.991      2.
  4.597     0.038     351.600    34.439      1.
  4.623     0.038     303.400    24.062      2.
  4.636     0.039     333.100    34.798      1.
  4.661     0.039     253.800    20.339      2.
  4.674     0.039     199.100    21.264      1.
  4.701     0.040     224.400    18.160      2.
  4.714     0.040     235.800    25.747      1.
  4.741     0.040     203.900    16.638      2.
  4.754     0.040     182.600    19.639      1.
  4.781     0.040     174.900    14.425      2.
  4.794     0.040     155.200    16.306      1.
  4.822     0.041     170.200    14.129      2.
  4.835     0.041     166.100    18.060      1.
  4.863     0.042     171.100    14.405      2.
  4.876     0.042     153.800    16.467      1.
  4.905     0.042     196.000    15.998      2.
  4.918     0.042     172.400    18.400      1.
  4.947     0.042     198.300    16.092      2.
  4.961     0.043     207.600    22.025      1.
  4.989     0.043     207.700    16.635      2.
  5.003     0.043     210.300    22.390      1.
  5.033     0.044     211.400    16.977      2.
  5.047     0.044     241.600    24.845      1.
  5.077     0.044     213.200    17.115      2.
  5.091     0.045     187.400    19.442      1.
  5.122     0.045     186.800    15.203      2.
  5.137     0.045     166.300    17.963      1.
  5.166     0.045     155.800    12.835      2.
  5.182     0.045     148.400    16.923      1.
  5.212     0.046     107.600     9.312      2.
  5.227     0.046      80.760     9.478      1.
  5.258     0.047      83.960     7.472      2.
  5.274     0.047      61.380     7.976      1.
  5.305     0.047      67.990     6.282      2.
  5.321     0.048      55.870     7.663      1.
  5.353     0.048      68.980     6.300      2.
  5.369     0.048      43.480     6.165      1.
  5.401     0.049      62.550     5.841      2.
  5.418     0.049      56.680     7.304      1.
  5.451     0.049      72.900     6.507      2.
  5.466     0.049      65.950     8.126      1.
  5.500     0.050      93.380     8.088      2.
  5.516     0.050     105.400    11.659      1.
  5.550     0.050     105.800     8.966      2.
  5.567     0.051     108.900    12.166      1.
  5.601     0.052      96.120     8.217      2.
  5.618     0.052      96.650    10.662      1.
  5.653     0.052      95.470     8.168      2.
  5.670     0.052      78.240     9.486      1.
  5.705     0.052      78.820     6.954      2.
  5.723     0.053      84.290     9.910      1.
  5.758     0.054      89.580     7.719      2.
  5.775     0.053      90.390    10.342      1.
  5.812     0.054     100.800     8.522      2.
  5.830     0.055     107.300    11.991      1.
  5.867     0.055     115.400     9.674      2.
  5.885     0.055      96.350    10.790      1.
  5.922     0.056     109.100     9.091      2.
  5.940     0.056     102.100    11.536      1.
  5.978     0.056     106.200     8.871      2.
  5.997     0.057      88.230    10.049      1.
  6.035     0.058     112.100     9.287      2.
  6.054     0.058      92.970    10.362      1.
  6.093     0.058     110.800     9.111      2.
  6.112     0.058     106.400    11.380      1.
  6.151     0.059     115.200     9.469      2.
  6.170     0.059     110.000    11.760      1.
  6.211     0.060     124.800    10.170      2.
  6.230     0.061     127.200    13.039      1.
  6.271     0.061     112.700     9.239      2.
  6.291     0.061     118.300    12.643      1.
  6.333     0.062      97.630     8.133      2.
  6.353     0.062      78.970     9.234      1.
  6.395     0.062      89.940     7.517      2.
  6.415     0.063      64.900     7.236      1.
  6.458     0.064      78.210     6.705      2.
  6.479     0.064      77.370     8.237      1.
  6.522     0.064      87.140     7.322      2.
  6.543     0.064      80.590     8.776      1.
  6.587     0.066      77.690     6.679      2.
  6.608     0.066      75.350     8.081      1.
  6.653     0.066      66.820     5.893      2.
  6.674     0.067      79.170     8.804      1.
  6.720     0.067      58.840     5.218      2.
  6.742     0.068      66.200     7.658      1.
  6.788     0.069      66.750     5.802      2.
  6.810     0.068      62.900     7.362      1.
  6.857     0.070      54.850     4.988      2.
  6.879     0.070      56.720     6.786      1.
  6.927     0.070      57.460     5.103      2.
  6.950     0.071      64.020     7.648      1.
  7.021     0.072      66.740     7.797      1.
  7.094     0.074      62.130     7.040      1.
  7.168     0.074      75.880     8.326      1.
  7.243     0.075      55.120     6.275      1.
  7.318     0.077      59.890     6.904      1.
  7.396     0.078      59.210     6.644      1.
  7.475     0.079      63.360     7.359      1.
  7.554     0.081      46.720     5.790      1.
  7.636     0.081      41.990     5.449      1.
  7.718     0.084      35.450     4.829      1.
  7.802     0.084      34.600     4.764      1.
  7.887     0.086      48.860     5.985      1.
  7.974     0.087      65.670     7.977      1.
  8.061     0.089      54.500     6.480      1.
  8.151     0.090      45.270     5.482      1.
  8.242     0.092      38.010     4.963      1.
  8.248     0.459      49.800     3.829      1.
  8.334     0.093      30.200     4.388      1.
  8.429     0.095      28.450     4.319      1.
  8.524     0.096      32.340     4.725      1.
  8.622     0.099      28.260     3.973      1.
  8.721     0.100      27.940     4.057      1.
  8.728     0.500      32.910     2.615      1.
  8.821     0.101      32.510     4.717      1.
  8.924     0.104      34.370     4.843      1.
  9.251     0.546      37.380     2.987      1.
  9.760     0.473      41.640     3.414      1.
 10.253     0.513      45.940     3.802      1.
 10.785     0.550      42.780     3.667      1.
 11.280     0.440      31.200     3.044      1.
 11.735     0.470      31.300     3.068      1.
 12.480     1.020      18.000     1.847      1.
 13.475     0.970      17.020     2.032      1.
 14.495     1.070      13.570     1.806      1.
ENDDATA            155
ENDSUBENT          168
ENDENTRY             5
