ENTRY            C2104   20140416   20140711   20140709       C142
SUBENT        C2104001   20140416   20140711   20140709       C142
BIB                  6          8
TITLE      Properties of levels excited in (p,alpha) reactions
           on O18, P31, Cl35, Cl37, K39 and K41
AUTHOR     (R.L.Clarke, E.Almqvist, E.B.Paul)
REFERENCE  (J,NP,14,(3),472,1960)
           #doi:10.1016/0029-5582(60)90466-1
INSTITUTE  (1CANCRC)
FACILITY   (VDG,1CANCRC)
HISTORY    (20140416C) BP
ENDBIB               8
COMMON               1          3
EN-RSL
KEV
3.0
ENDCOMMON            3
ENDSUBENT           15
SUBENT        C2104002   20140416   20140711   20140709       C142
BIB                  4          6
REACTION   (8-O-18(P,0),,EN)
REL-REF    (O,O0453001,H.A.Hill+,J,PR,104,198,1956)
FLAG       (1.) Energy scale normalized to Hill and Blair value
           at these points.
STATUS     (TABLE) Table I, page 479.
           (DEP,C2104003)
ENDBIB               6
NOCOMMON             0          0
DATA                 2         25
DATA       FLAG
KEV        NO-DIM
      838.0         1.
      991.0
     1182.0
     1308.0
     1390.0
     1639.0
     1676.0
     1740.0
     1760.0
     1870.0
     1941.0
     2006.0
     2037.0
     2299.0
     2369.0
     2389.0
     2450.0         1.
     2631.0
     2707.0
     2737.0
     2771.0
     2803.0
     2922.0
     3045.0
     3075.0
ENDDATA             27
ENDSUBENT           38
SUBENT        C2104003   20140416   20140711   20140709       C142
BIB                  6         18
REACTION   (8-O-18(P,A)7-N-15,PAR,DA,,REL)
SAMPLE     The 180 is target was prepared by bombardment of a
           tantalum sheet with mass 18 oxygen ions in the
           magnetic separator at A.E.R.E., Harwell. The exact
           thickness of the target is not known, but it appeared
           from the resolution obtained in the excitation
           measurements to be less than 20 keV. The oxygen in
           the targets was estimated to contain 25 percent 180.
PART-DET   (A)
DETECTOR   (SCIN,CSICR) Particles emerging from the magnet were
           counted in a scintillation counter using an RCA 5819
           photomultiplier and a thallium activated KI crystal,
           and later a CsI crystal.
METHOD     The alpha particles emitted from the target at an
           angle of 90 degrees to the incident beam were
           analysed in a magnetic spectrometer and counted with
           a scintillation detector.
STATUS     (CURVE) Fig. 2, page 480.
ENDBIB              18
COMMON               2          3
ANG        E-LVL
ADEG       MEV
90.0        0.
ENDCOMMON            3
DATA                 2        350
EN         DATA
MEV        ARB-UNITS
      0.808    229.126
      0.811    284.466
      0.817    302.913
      0.817    314.563
      0.823    413.592
      0.834    499.029
      0.849    519.417
      0.857    464.078
      0.859    407.767
      0.868    309.709
      0.870    251.456
      0.874    184.466
      0.878    138.835
      0.881     73.786
      0.885     55.340
      0.891     42.718
      0.897     33.010
      0.906     37.864
      0.914     30.097
      0.914     21.359
      0.923     23.301
      0.931     16.505
      0.940     13.592
      0.953      9.709
      0.965     12.621
      0.972     18.447
      0.982     14.563
      0.985     25.243
      0.991     44.660
      0.997     33.981
      1.003     23.301
      1.008     20.388
      1.016     13.592
      1.023     14.563
      1.033     16.505
      1.042     10.680
      1.054     11.650
      1.063     10.680
      1.074     11.650
      1.076     20.388
      1.088     19.417
      1.099     17.476
      1.112     18.447
      1.120     28.155
      1.131     28.155
      1.137     31.068
      1.146     26.214
      1.156     24.272
      1.165     24.272
      1.173     28.155
      1.177     37.864
      1.184     52.427
      1.188     38.835
      1.192     31.068
      1.199     34.951
      1.207     26.214
      1.209     33.981
      1.216     29.126
      1.222     23.301
      1.230     27.184
      1.235     22.330
      1.237     34.951
      1.245     24.272
      1.250     20.388
      1.254     31.068
      1.264     18.447
      1.275     16.505
      1.281     13.592
      1.286     19.417
      1.298     20.388
      1.305     23.301
      1.315     26.214
      1.321     21.359
      1.324     16.505
      1.332     17.476
      1.345     14.563
      1.349     20.388
      1.358     18.447
      1.370     17.476
      1.373     22.330
      1.381     32.039
      1.385     36.893
      1.389     47.573
      1.394     52.427
      1.396     46.602
      1.400     65.049
      1.404     17.476
      1.409     13.592
      1.417     16.505
      1.426     12.621
      1.428     18.447
      1.432     11.650
      1.440     14.563
      1.444      9.709
      1.451      6.796
      1.459     10.680
      1.468      6.796
      1.474      9.709
      1.479      5.825
      1.491      2.913
      1.498      4.854
      1.504     19.417
      1.512      4.854
      1.517      2.913
      1.523      5.825
      1.531      7.767
      1.540      3.883
      1.546      2.913
      1.550      8.738
      1.559      8.738
      1.563      4.854
      1.568      5.825
      1.582      5.825
      1.589      9.709
      1.601      9.709
      1.612      9.709
      1.620      5.825
      1.625     11.650
      1.633     29.126
      1.635     21.359
      1.646     19.417
      1.648     28.155
      1.652      3.883
      1.659      7.767
      1.669      8.738
      1.671     18.447
      1.682     12.621
      1.690      6.796
      1.699      5.825
      1.705      3.883
      1.712      4.854
      1.720      7.767
      1.726     26.214
      1.731     32.039
      1.737     56.311
      1.746     27.184
      1.746     58.252
      1.754     69.903
      1.762     75.728
      1.765     33.010
      1.769     17.476
      1.775      7.767
      1.780     13.592
      1.790      9.709
      1.799      9.709
      1.813     10.680
      1.822     12.621
      1.832     15.534
      1.837     17.476
      1.849     18.447
      1.856     22.330
      1.866     24.272
      1.871     27.184
      1.879     35.922
      1.885     27.184
      1.892     22.330
      1.900     24.272
      1.907     22.330
      1.917     22.330
      1.921     11.650
      1.932     11.650
      1.938     37.864
      1.941     28.155
      1.949     15.534
      1.955     20.388
      1.962     17.476
      1.966     36.893
      1.972     15.534
      1.973     39.806
      1.975     51.456
      1.979     30.097
      1.981     74.757
      1.983     41.748
      1.985     89.320
      1.994     78.641
      1.996    157.282
      2.002    234.951
      2.008    196.117
      2.011    181.553
      2.019    187.379
      2.026    171.845
      2.030    136.893
      2.038    145.631
      2.042    128.155
      2.044    108.738
      2.053     98.058
      2.057     71.845
      2.070     64.078
      2.087     66.019
      2.095     57.282
      2.102     55.340
      2.115     49.515
      2.127     54.369
      2.134     44.660
      2.138     53.398
      2.146     58.252
      2.153     75.728
      2.159     54.369
      2.167     63.107
      2.172     67.961
      2.174     74.757
      2.189     79.612
      2.195     64.078
      2.201     79.612
      2.204     66.019
      2.210     72.816
      2.216     78.641
      2.225     70.874
      2.237     66.990
      2.238     76.699
      2.242     83.495
      2.248     69.903
      2.256     76.699
      2.261     84.466
      2.265     69.903
      2.274     59.223
      2.278     66.019
      2.282     77.670
      2.286     87.379
      2.295     87.379
      2.295     45.631
      2.303     43.689
      2.307     39.806
      2.312     56.311
      2.329     66.019
      2.337     68.932
      2.348     70.874
      2.352     77.670
      2.356    115.534
      2.363    351.456
      2.367    130.097
      2.373    108.738
      2.379    172.816
      2.384    200.971
      2.390    133.010
      2.392     74.757
      2.397     87.379
      2.397     56.311
      2.407     63.107
      2.411     49.515
      2.416     45.631
      2.418     31.068
      2.424     34.951
      2.432     51.456
      2.433     76.699
      2.441    107.767
      2.450     77.670
      2.452     46.602
      2.456     37.864
      2.460     29.126
      2.471     37.864
      2.479     27.184
      2.486     31.068
      2.498     33.981
      2.507     32.039
      2.515     33.981
      2.520     39.806
      2.528     33.981
      2.532     40.777
      2.538     35.922
      2.547     33.981
      2.553     34.951
      2.555     30.097
      2.566     32.039
      2.575     38.835
      2.581     19.417
      2.589     21.359
      2.592     32.039
      2.596     35.922
      2.602     42.718
      2.602     56.311
      2.609     66.019
      2.619    100.971
      2.625    109.709
      2.634     66.019
      2.642     73.786
      2.645     33.010
      2.649     26.214
      2.659     19.417
      2.666     24.272
      2.681     22.330
      2.681     30.097
      2.689     33.010
      2.697     71.845
      2.700     33.010
      2.706     41.748
      2.710     19.417
      2.714     29.126
      2.717     74.757
      2.725     79.612
      2.738     80.583
      2.744     71.845
      2.750    100.971
      2.753    147.573
      2.763    150.485
      2.767     55.340
      2.772     43.689
      2.776     72.816
      2.782     48.544
      2.787     61.165
      2.797     76.699
      2.801     52.427
      2.804     46.602
      2.816     31.068
      2.825     20.388
      2.840     10.680
      2.854      9.709
      2.861     10.680
      2.871     13.592
      2.882     13.592
      2.886     24.272
      2.893     17.476
      2.901     24.272
      2.905     30.097
      2.910     79.612
      2.914     90.291
      2.920     31.068
      2.926     20.388
      2.935     18.447
      2.944     17.476
      2.948     27.184
      2.958     27.184
      2.967     30.097
      2.975     34.951
      2.980     39.806
      2.980     50.485
      2.990     48.544
      2.997     39.806
      2.999     51.456
      3.005     57.282
      3.011     64.078
      3.015     54.369
      3.018     61.165
      3.022    125.243
      3.028    144.660
      3.037    129.126
      3.039    107.767
      3.052    103.883
      3.056    109.709
      3.062    120.388
      3.066    100.971
      3.073     70.874
      3.075     89.320
      3.083     93.204
      3.085     61.165
      3.088     42.718
      3.092     38.835
      3.098     60.194
      3.103     49.515
      3.113     42.718
ENDDATA            352
ENDSUBENT          379
SUBENT        C2104004   20140416   20140711   20140709       C142
BIB                  3         15
REACTION  1(15-P-31(P,0),,EN)
          2(15-P-31(P,A)14-SI-28,PAR,DA,,RES)
          3(15-P-31(P,TOT),,WID)
          4(15-P-31(P,TOT),,WID,,S0)
          5(15-P-31(P,TOT),,WID/STR)
          6(15-P-31(P,A),PAR,WID)
          7(15-P-31(P,A),PAR,WID/RED,,RMT)
          8(15-P-31(P,EL),,WID/RED,,RMT)
ERR-ANALYS1(DATA-ERR) Resonant energies are accurate to 10 keV;
           small differences may be  good to 2 or 3 keV.
          2(DATA-ERR) Absolute cross section errors are estimated
           to be 25 percent.
          3(DATA-ERR) Width error of 2 keV is applicable.
STATUS     (TABLE) Table 3, page 485.
           (DEP,C2104005)
ENDBIB              15
COMMON               7          6
ANG       2DATA-ERR  1DATA-ERR  2DATA-ERR  3E-LVL     2E-LVL     6
E-LVL     7
ADEG       KEV        PER-CENT   KEV        MEV        MEV
MEV
90.0       10.0       25.0       2.0         0.         0.
 0.
ENDCOMMON            6
DATA                14         24
DATA      1DATA      2DATA-MIN  2DATA-APRX 2DATA      3DATA-MAX  3
DATA-APRX 3DATA      4DATA      5DATA      6DATA      7DATA      8
DATA-MAX  8DATA-APRX 8
KEV        MB/SR      MB/SR      MB/SR      KEV        KEV
KEV        B*EV       EV         EV         KEV        KEV
KEV        KEV
     1024.0                   1.8                              3.0
                  70.0        26.       35.0       11.2
     3100.0
     1161.0                             0.29
        4.0       15.0        6.1        3.1        1.4
                1800.0
     1404.0                             0.87
        6.0       65.0       33.0       44.0        3.3
                 930.0
     1474.0                  0.53                              2.4
                  16.0        8.5       11.3        0.7
      288.0
     1514.0       16.1                              7.0
                1410.0      770.0     1030.0       56.6      483.0

     1640.0                              1.9
        4.2       98.0       58.0       77.0        2.9
                 252.0
     1710.0                  0.21                              5.5
                  15.0        9.0       12.0       0.37
      258.0
     1811.0                             0.68
        4.7       40.0       26.0       35.0       0.84
                 164.0
     1892.0        3.2                             27.0
                1070.0      730.0      970.0       19.4      741.0

     1976.0                  0.68                              2.8
                  24.0       17.0       23.0       0.37
       60.0
     1990.0                  0.94                              3.6
                  43.0       30.0       40.0       0.64
       75.0
     2018.0                  0.85                              3.0
                  32.0       23.0       31.0       0.47
       60.0
     2029.0       2.74                             18.0
                 620.0      450.0      600.0        8.6      350.0

     2031.0                              2.2
        6.0      160.0      120.0      160.0        2.3
                 114.0
     2041.0                             0.36
        6.0       27.0       20.0       27.0       0.39
                 115.0
     2109.0                  0.07                              4.0
                   2.0        1.3        1.7       0.02
       76.0
     2434.0        2.5                             17.0
                 540.0      407.0      540.0        3.5      149.0

     2644.0                             0.39
        5.0       25.0       23.0       31.0       0.14
                  29.0
     2779.0        1.2                              8.0
                 120.0      120.0      160.0       0.58       38.0

     2805.0       0.63                             17.0
                 130.0      136.0      180.0       0.63       78.0

     2874.0                             0.34
        5.0       21.0       22.0       29.0       0.09
                  20.0
     2922.0        2.1                             10.0
                 260.0      273.0      360.0       1.04       38.0

     3008.0        1.3                             75.0
                1250.0     1370.0     1830.0       4.75      255.0

     3119.0       0.55                             20.0
                 140.0      156.0      208.0       0.47       58.0

ENDDATA             78
ENDSUBENT          105
SUBENT        C2104005   20140416   20140711   20140709       C142
BIB                  6         16
REACTION   (15-P-31(P,A)14-SI-28,PAR,DA,,REL)
SAMPLE     The other targets were prepared by the evaporation of
           Zn3P2, the evaporation being carried
           out simultaneously on backings of tantalum and
           polished graphite. The measured thickness of the
           target was 0.6 keV.
PART-DET   (A)
DETECTOR   (SCIN,CSICR) Particles emerging from the magnet were
           counted in a scintillation counter using an RCA 5819
           photomultiplier and a thallium activated KI crystal,
           and later a CsI crystal.
METHOD     The alpha particles emitted from the target at an
           angle of 90 degrees to the incident beam were
           analysed in a magnetic spectrometer and counted with
           a scintillation detector.
STATUS     (CURVE) Fig. 5, page 484.
ENDBIB              16
COMMON               2          3
ANG        E-LVL
ADEG       MEV
90.0        0.
ENDCOMMON            3
DATA                 2        313
EN         DATA
MEV        ARB-UNITS
      1.016      7.388
      1.020     12.929
      1.023     20.317
      1.027    323.219
      1.032    426.649
      1.036     40.633
      1.038    288.126
      1.041     11.082
      1.047     16.623
      1.050     11.082
      1.058      9.235
      1.065      5.541
      1.068     14.776
      1.077      9.235
      1.108      7.388
      1.128      9.235
      1.137      7.388
      1.146      9.235
      1.155     24.011
      1.155     38.786
      1.157     64.644
      1.164     22.164
      1.166     68.338
      1.167     12.929
      1.175      9.235
      1.185      5.541
      1.211     11.082
      1.225      7.388
      1.241     12.929
      1.252      7.388
      1.259     11.082
      1.275     12.929
      1.284      7.388
      1.297      7.388
      1.310      5.541
      1.320      7.388
      1.335      5.541
      1.346      9.235
      1.353     14.776
      1.362      7.388
      1.373      7.388
      1.382      9.235
      1.389      5.541
      1.392     16.623
      1.394     27.704
      1.394     53.562
      1.396    151.451
      1.401    221.636
      1.409     96.042
      1.410     66.491
      1.421     24.011
      1.427     16.623
      1.439     16.623
      1.450     20.317
      1.461     20.317
      1.466     72.032
      1.473    142.216
      1.477     33.245
      1.482     62.797
      1.490    105.277
      1.506    391.556
      1.511    929.023
      1.517   1488.653
      1.522   1015.830
      1.522    755.408
      1.524    358.311
      1.529    232.717
      1.535    118.206
      1.538     92.348
      1.545     64.644
      1.551     51.715
      1.560     44.327
      1.565     35.092
      1.573     33.245
      1.576     18.470
      1.585     18.470
      1.596     18.470
      1.607     16.623
      1.610     24.011
      1.618     16.623
      1.623     51.715
      1.628    118.206
      1.634    299.208
      1.634    371.240
      1.637    450.659
      1.643    328.760
      1.643    138.522
      1.648     73.879
      1.652     49.868
      1.655     24.011
      1.661     16.623
      1.668      9.235
      1.677      7.388
      1.684      9.235
      1.693      9.235
      1.699     24.011
      1.700     36.939
      1.706     68.338
      1.706     57.256
      1.709     44.327
      1.709     31.398
      1.713     22.164
      1.717     12.929
      1.724      9.235
      1.731      9.235
      1.742     12.929
      1.751     11.082
      1.760     12.929
      1.771     11.082
      1.781     11.082
      1.790     14.776
      1.798     22.164
      1.799     33.245
      1.803    123.747
      1.805     35.092
      1.808    182.849
      1.812    120.053
      1.812     46.174
      1.819     12.929
      1.828     20.317
      1.835     35.092
      1.844     51.715
      1.848     75.726
      1.854     69.082
      1.858     87.468
      1.860    105.880
      1.863    133.523
      1.865    147.336
      1.868    202.662
      1.870    239.552
      1.872    267.195
      1.875    382.529
      1.877    405.565
      1.879    488.609
      1.882    507.020
      1.885    599.278
      1.887    659.228
      1.890    719.187
      1.892    737.599
      1.895    719.096
      1.897    612.892
      1.900    506.681
      1.902    460.494
      1.908    321.933
      1.912    252.619
      1.918    178.666
      1.923    155.498
      1.927    100.039
      1.932     90.708
      1.938     95.216
      1.941     85.927
      1.947     90.443
      1.952     58.036
      1.956     67.184
      1.961     62.477
      1.965     57.796
      1.968     66.969
      1.970     71.542
      1.971     85.372
      1.973     99.185
      1.973    205.330
      1.976    177.597
      1.978     76.017
      1.980     52.907
      1.983     66.695
      1.985     85.115
      1.987     85.082
      1.988    140.442
      1.989    195.818
      1.989    283.502
      1.991    200.392
      1.994    131.112
      1.995    121.848
      1.999    135.636
      2.001    154.056
      2.004    158.621
      2.007    227.794
      2.008    264.684
      2.011    292.335
      2.013    476.900
      2.017    481.458
      2.019    698.339
      2.022    822.904
      2.024    836.709
      2.026    998.206
      2.029   1427.378
      2.032   1145.798
      2.035    688.818
      2.036    531.862
      2.039    421.052
      2.041    430.233
      2.044    356.337
      2.046    259.381
      2.048    157.793
      2.051    130.051
      2.054    134.617
      2.056    102.267
      2.059     74.525
      2.061     88.322
      2.063     79.058
      2.066     42.085
      2.069     32.805
      2.071     23.533
      2.075     32.689
      2.080     18.752
      2.083     18.685
      2.092     13.912
      2.104     13.680
      2.108     18.238
      2.109     41.298
      2.111     22.787
      2.113     12.929
      2.122      9.235
      2.136      9.235
      2.201      5.541
      2.239      5.541
      2.341     11.082
      2.350      5.541
      2.361     12.929
      2.370      9.235
      2.374     18.470
      2.377     24.011
      2.386     27.704
      2.393     35.092
      2.401     48.021
      2.402     79.419
      2.410     96.042
      2.413    160.686
      2.420    336.147
      2.429    526.385
      2.433    356.464
      2.435    214.248
      2.438     77.572
      2.444     27.704
      2.451      7.388
      2.464     11.082
      2.496      7.388
      2.525      5.541
      2.539      5.541
      2.564      5.541
      2.584     12.929
      2.609      5.541
      2.620     11.082
      2.629     14.776
      2.635     31.398
      2.642     77.572
      2.647     22.164
      2.653      9.235
      2.665      5.541
      2.682      7.388
      2.701     12.929
      2.727      7.388
      2.737     12.929
      2.748      9.235
      2.757     14.776
      2.763     24.011
      2.768     59.103
      2.777    238.258
      2.784    181.002
      2.784     38.786
      2.791     18.470
      2.799    131.134
      2.808    131.134
      2.811     97.889
      2.815     62.797
      2.831     31.398
      2.842     31.398
      2.849     14.776
      2.858     31.398
      2.872     86.807
      2.876     64.644
      2.883     22.164
      2.894     20.317
      2.898     31.398
      2.907     72.032
      2.914    454.353
      2.923    485.752
      2.928    210.554
      2.930    134.828
      2.935    166.227
      2.943    123.747
      2.944    144.063
      2.952    147.757
      2.959    132.981
      2.964    144.063
      2.970    171.768
      2.977    158.839
      2.979    192.084
      2.991    234.564
      2.993    193.931
      2.995    256.728
      3.002    286.279
      3.004    232.717
      3.011    284.432
      3.016    258.575
      3.018    271.504
      3.029    241.952
      3.031    177.309
      3.042    177.309
      3.047    116.359
      3.049     81.266
      3.056     46.174
      3.061     53.562
      3.072     57.256
      3.078     35.092
      3.085     20.317
      3.096     22.164
      3.101     33.245
      3.105     79.419
      3.112     46.174
      3.117    134.828
      3.124    112.665
      3.128     77.572
ENDDATA            315
ENDSUBENT          340
SUBENT        C2104006   20140416   20140711   20140709       C142
BIB                  6         16
REACTION   (17-CL-35(P,A)16-S-32,PAR,DA,,REL)
SAMPLE     The other targets were prepared by the evaporation of
           KCl and SnCl2, the evaporation being carried
           out simultaneously on backings of tantalum and
           polished graphite. The measured thickness of the
           target was 10.0 keV for 2 MeV protons.
PART-DET   (A)
DETECTOR   (SCIN,CSICR) Particles emerging from the magnet were
           counted in a scintillation counter using an RCA 5819
           photomultiplier and a thallium activated KI crystal,
           and later a CsI crystal.
METHOD     The alpha particles emitted from the target at an
           angle of 90 degrees to the incident beam were
           analysed in a magnetic spectrometer and counted with
           a scintillation detector.
STATUS     (CURVE) Fig. 6, page 489.
ENDBIB              16
COMMON               2          3
ANG        E-LVL
ADEG       MEV
90.0        0.
ENDCOMMON            3
DATA                 2        280
EN         DATA
MEV        ARB-UNITS
      1.266      0.113
      1.293      0.112
      1.315      0.111
      1.342      0.110
      1.370      0.108
      1.393      0.108
      1.412      0.068
      1.419      0.183
      1.429      0.375
      1.438      0.221
      1.448      0.144
      1.461      0.105
      1.472      0.143
      1.482      0.258
      1.493      0.065
      1.503      0.142
      1.506      1.064
      1.510      1.564
      1.518      1.487
      1.520      0.679
      1.523      0.487
      1.527      1.679
      1.533      0.410
      1.538      0.140
      1.546      0.140
      1.555      0.178
      1.565      0.101
      1.574      0.139
      1.576      0.716
      1.580      0.908
      1.586      2.984
      1.591      1.138
      1.597      0.407
      1.605      0.214
      1.612      0.176
      1.627      0.175
      1.631      1.059
      1.639      2.021
      1.641      0.636
      1.646      0.328
      1.652      0.289
      1.656      0.135
      1.665      0.212
      1.675      0.327
      1.684      0.250
      1.697      0.288
      1.703      0.710
      1.711      3.556
      1.714      1.402
      1.716      0.710
      1.728      0.363
      1.731      1.594
      1.739      2.132
      1.743      0.786
      1.746      0.286
      1.756      0.208
      1.762      0.362
      1.769      0.285
      1.782      0.246
      1.794      0.245
      1.807      0.591
      1.816      0.206
      1.820      0.398
      1.830      0.244
      1.839      0.436
      1.852      0.281
      1.862      3.319
      1.866      2.242
      1.871      0.588
      1.881      0.396
      1.896      0.433
      1.903      0.395
      1.915      0.394
      1.924      0.663
      1.934      0.470
      1.939      0.278
      1.947      0.585
      1.956      0.469
      1.960      1.008
      1.970      1.084
      1.975      1.353
      1.979      1.045
      1.982      9.314
      1.989      9.237
      1.995      5.199
      2.006      1.775
      2.011      0.583
      2.021      0.774
      2.036      0.466
      2.041      1.120
      2.047      2.043
      2.053      1.889
      2.057      0.850
      2.064      0.657
      2.074      0.734
      2.081      0.772
      2.083      0.387
      2.089      0.733
      2.096      0.579
      2.096      1.079
      2.104      0.617
      2.104      0.925
      2.106      1.656
      2.113      2.501
      2.117      0.771
      2.125      0.463
      2.126      0.232
      2.134      0.385
      2.138      0.616
      2.142      1.462
      2.147      2.269
      2.153      1.269
      2.157      0.269
      2.160      0.576
      2.174      0.614
      2.177      0.345
      2.187      0.575
      2.194     13.844
      2.196      1.344
      2.200     15.421
      2.208      7.613
      2.212      2.997
      2.217      1.305
      2.225      1.189
      2.227      0.458
      2.236      0.458
      2.246      0.458
      2.246      1.227
      2.254      5.496
      2.257      2.496
      2.263      1.265
      2.268      0.649
      2.278      0.264
      2.287      0.610
      2.293      0.456
      2.297      0.763
      2.300      0.994
      2.304      1.801
      2.312      2.532
      2.316      0.801
      2.317      1.032
      2.325      1.262
      2.334      1.223
      2.342      0.954
      2.344      0.684
      2.350      0.492
      2.359      0.761
      2.365      0.491
      2.368      0.760
      2.378      0.683
      2.384      0.837
      2.384      1.144
      2.389      0.606
      2.395      1.144
      2.399      3.067
      2.403      3.259
      2.408      2.105
      2.410      1.028
      2.418      0.874
      2.423      0.604
      2.429      1.258
      2.437      1.027
      2.437      1.565
      2.448      1.565
      2.450      6.834
      2.453     13.680
      2.458     10.064
      2.463      1.103
      2.467      1.641
      2.474      1.487
      2.482      1.294
      2.493      1.486
      2.499      1.294
      2.505      1.563
      2.511      6.524
      2.514      3.947
      2.518      2.639
      2.522      2.408
      2.531      1.331
      2.539      1.446
      2.543      2.138
      2.546      2.407
      2.552      2.214
      2.556      1.330
      2.563      1.214
      2.569      1.368
      2.576      1.560
      2.579      8.098
      2.584      2.521
      2.588      2.905
      2.595      2.482
      2.596      2.905
      2.604     11.558
      2.611      7.327
      2.613      4.943
      2.618      3.404
      2.622      1.442
      2.631      1.288
      2.641      1.634
      2.648      1.441
      2.658      1.364
      2.660      1.941
      2.671      1.825
      2.673      4.671
      2.679      5.632
      2.685      5.940
      2.690      6.401
      2.694      4.401
      2.698      2.401
      2.703      1.747
      2.709      1.708
      2.709      4.362
      2.712     11.862
      2.718      2.438
      2.724      3.592
      2.730      2.169
      2.732      1.861
      2.741      1.707
      2.747      1.976
      2.754      2.206
      2.758      2.552
      2.764      8.321
      2.768      4.013
      2.772      8.552
      2.776     11.167
      2.783      6.436
      2.790     19.935
      2.796     20.935
      2.800     10.781
      2.806      8.012
      2.813      6.011
      2.815      4.550
      2.824      3.896
      2.830      4.434
      2.830      6.280
      2.838      3.164
      2.843      2.664
      2.851      2.779
      2.856      2.894
      2.864      2.663
      2.870      3.778
      2.873      3.471
      2.881      3.316
      2.889      5.085
      2.906      5.200
      2.910      6.085
      2.912      7.931
      2.917      8.046
      2.925      5.545
      2.926      3.853
      2.930      3.468
      2.936      3.391
      2.938      4.199
      2.942      4.045
      2.945      4.545
      2.953      5.121
      2.957      5.929
      2.962     15.851
      2.966     20.851
      2.973     20.005
      2.976     28.774
      2.981     23.504
      2.990     15.389
      2.992     14.389
      2.999      6.081
      3.004      4.427
      3.010      3.734
      3.019      4.080
      3.025      4.503
      3.027      4.811
      3.029      5.387
      3.036      5.926
      3.048      4.810
      3.049      5.502
      3.053      6.925
      3.060     19.194
      3.062     15.270
      3.070     23.039
      3.072     26.270
      3.080     29.731
ENDDATA            282
ENDSUBENT          307
SUBENT        C2104007   20140416   20140711   20140709       C142
BIB                  6         16
REACTION   (17-CL-37(P,A)16-S-34,PAR,DA,,REL)
SAMPLE     The other targets were prepared by the evaporation of
           KCl and SnCl2, the evaporation being carried
           out simultaneously on backings of tantalum and
           polished graphite. The measured thickness of the
           target was 10.0 keV for 2 MeV protons.
PART-DET   (A)
DETECTOR   (SCIN,CSICR) Particles emerging from the magnet were
           counted in a scintillation counter using an RCA 5819
           photomultiplier and a thallium activated KI crystal,
           and later a CsI crystal.
METHOD     The alpha particles emitted from the target at an
           angle of 90 degrees to the incident beam were
           analysed in a magnetic spectrometer and counted with
           a scintillation detector.
STATUS     (CURVE) Fig. 7, page 489.
ENDBIB              16
COMMON               2          3
ANG        E-LVL
ADEG       MEV
90.0        0.
ENDCOMMON            3
DATA                 2        371
EN         DATA
MEV        ARB-UNITS
      0.981      0.099
      1.003      0.099
      1.013      0.296
      1.021      0.329
      1.027      0.198
      1.037      0.165
      1.075      0.132
      1.101      0.132
      1.104      0.428
      1.113      0.329
      1.120      0.165
      1.145      0.165
      1.152      0.494
      1.160      1.086
      1.163      0.658
      1.166      0.461
      1.171      0.329
      1.176      0.230
      1.182      0.329
      1.185      0.494
      1.190      0.395
      1.195      0.230
      1.203      0.165
      1.214      0.099
      1.233      0.132
      1.268      0.132
      1.278      0.198
      1.284      0.296
      1.290      0.198
      1.297      0.296
      1.305      0.428
      1.311      0.461
      1.321      0.560
      1.329      0.560
      1.335      1.086
      1.343      1.152
      1.348      1.778
      1.349      2.864
      1.357      2.337
      1.362      2.140
      1.365      2.370
      1.365      1.086
      1.367      1.877
      1.367      1.712
      1.372      0.955
      1.378      0.494
      1.380      0.230
      1.389      0.198
      1.410      0.132
      1.418      0.527
      1.421      1.613
      1.429      2.008
      1.434      1.416
      1.440      0.132
      1.447      0.263
      1.456      0.362
      1.466      0.461
      1.476      0.527
      1.484      0.560
      1.490      0.626
      1.491      0.329
      1.498      0.263
      1.507      0.198
      1.519      0.132
      1.530      0.165
      1.538      0.329
      1.544      0.856
      1.549      1.679
      1.552      2.305
      1.555      2.897
      1.562      2.403
      1.566      3.424
      1.570      1.086
      1.576      0.823
      1.582      0.922
      1.586      0.527
      1.590      0.165
      1.602      0.296
      1.606      0.329
      1.613      0.132
      1.618      0.988
      1.619      1.383
      1.624      1.844
      1.632      1.844
      1.635      1.021
      1.640      0.428
      1.645      2.667
      1.651      1.646
      1.654      4.576
      1.659      3.786
      1.659      2.173
      1.662      2.667
      1.664      1.284
      1.665      1.053
      1.665      0.724
      1.670      0.198
      1.677      0.790
      1.683      0.658
      1.691      0.593
      1.696      0.757
      1.705      8.329
      1.712     11.490
      1.718     11.358
      1.720      8.099
      1.728      3.556
      1.732      2.206
      1.734      1.811
      1.739      1.646
      1.745      0.724
      1.750      1.053
      1.750      1.317
      1.761      1.745
      1.766      1.251
      1.768      0.658
      1.779      0.757
      1.785      1.284
      1.788      0.691
      1.793      0.724
      1.795      0.263
      1.801      0.724
      1.812      0.955
      1.822      0.889
      1.822      1.514
      1.828      2.272
      1.836      1.712
      1.844      1.909
      1.849      3.951
      1.852      2.765
      1.854      2.107
      1.855      1.580
      1.859      0.658
      1.866      0.560
      1.868      1.449
      1.876      1.086
      1.879      1.745
      1.886      1.580
      1.895      1.909
      1.903      1.383
      1.906      0.955
      1.910      1.811
      1.922      1.317
      1.926      1.712
      1.932      1.416
      1.937      2.733
      1.943      2.107
      1.945      3.687
      1.949      3.226
      1.954      4.049
      1.959      2.634
      1.965      1.877
      1.973      2.239
      1.977      4.576
      1.977      5.893
      1.978      6.716
      1.989      6.749
      1.991      3.424
      1.994      3.029
      2.002      3.523
      2.005      5.333
      2.010      5.630
      2.016      5.004
      2.021      3.358
      2.021      1.679
      2.026      1.185
      2.031      1.086
      2.037      1.580
      2.042      3.852
      2.048      2.733
      2.048      1.679
      2.056      1.021
      2.060      1.449
      2.068      2.008
      2.069      1.086
      2.071      1.481
      2.072      4.477
      2.077      3.621
      2.077      4.148
      2.080      1.547
      2.087      3.556
      2.087      4.774
      2.088      6.321
      2.090      7.770
      2.098      6.946
      2.101      2.074
      2.106      2.667
      2.112      2.008
      2.117      2.239
      2.122      1.350
      2.127      2.469
      2.128      1.317
      2.136      1.844
      2.141      2.403
      2.154      1.877
      2.154      7.704
      2.160      7.506
      2.165     10.107
      2.171      1.514
      2.176      2.008
      2.186      3.160
      2.190      2.864
      2.195      1.646
      2.203      2.074
      2.211      1.449
      2.214      1.712
      2.226      1.547
      2.230      1.909
      2.238      2.930
      2.243      1.877
      2.246      1.481
      2.256      1.251
      2.262      1.547
      2.265      2.798
      2.269      1.053
      2.275      0.757
      2.281      3.095
      2.286      3.588
      2.293      2.107
      2.302      3.951
      2.312      4.379
      2.320      3.358
      2.326      3.029
      2.329      1.844
      2.339      2.008
      2.340      2.502
      2.344      2.733
      2.350      3.160
      2.361      6.288
      2.366      6.551
      2.374      6.354
      2.379      3.490
      2.387      3.128
      2.391      3.621
      2.393      4.115
      2.403      4.971
      2.415      3.062
      2.425      7.704
      2.433      6.914
      2.443      2.700
      2.446      5.070
      2.451      7.572
      2.457      3.687
      2.457      3.457
      2.462      2.370
      2.468      3.259
      2.471      4.148
      2.476      3.885
      2.478      2.930
      2.479      3.259
      2.487      3.687
      2.489      3.556
      2.498      3.226
      2.498      4.477
      2.503      3.556
      2.510      4.214
      2.514      3.160
      2.519      3.457
      2.524      7.144
      2.529      3.951
      2.535      3.786
      2.541      3.588
      2.545      4.082
      2.549      2.930
      2.553      4.444
      2.554      7.407
      2.559      3.984
      2.559      4.971
      2.564      2.700
      2.567      4.247
      2.570      3.325
      2.570      5.235
      2.577      4.971
      2.577      5.959
      2.580      5.432
      2.580      6.650
      2.586      4.576
      2.591      3.160
      2.597      3.588
      2.602      5.169
      2.607      4.379
      2.610      6.189
      2.621      6.156
      2.626      5.004
      2.632      4.675
      2.637      5.728
      2.640      6.420
      2.644      7.967
      2.652     14.156
      2.658     14.091
      2.658      7.374
      2.660      6.189
      2.669      6.025
      2.677      8.527
      2.684      5.103
      2.685      8.165
      2.695      5.037
      2.701      4.774
      2.703     10.436
      2.712      6.486
      2.714      8.296
      2.720     12.774
      2.727      7.210
      2.730      8.691
      2.738      5.432
      2.746      6.584
      2.747      8.658
      2.755      7.605
      2.762      7.704
      2.765     18.634
      2.771     17.811
      2.774     11.819
      2.781     11.128
      2.784     11.753
      2.794     10.963
      2.797     21.300
      2.802     17.877
      2.803      9.580
      2.808      9.218
      2.813      8.230
      2.821      9.416
      2.826      9.942
      2.832      7.737
      2.837      9.086
      2.841      9.284
      2.846     13.300
      2.849     12.774
      2.853     11.951
      2.861      9.778
      2.865     11.029
      2.873     13.827
      2.877     13.267
      2.880     11.951
      2.885      9.481
      2.891      8.955
      2.901      9.778
      2.905     13.136
      2.909     20.379
      2.916     19.193
      2.918     14.749
      2.924      9.317
      2.928      9.745
      2.936      9.679
      2.940     10.568
      2.947     10.700
      2.952     11.292
      2.956     11.457
      2.964     12.905
      2.974     11.160
      2.974      9.481
      2.980      9.218
      2.988      9.218
      2.990      9.514
      2.993      9.778
      3.001      9.942
      3.006     10.765
      3.011     13.070
      3.015     14.716
      3.020     11.819
      3.025     11.292
      3.031     20.214
      3.033     21.136
      3.041     25.416
      3.047     20.379
      3.052     14.716
      3.059     21.267
      3.065     18.568
      3.066     14.551
      3.073     12.741
      3.078     16.823
      3.084     11.029
      3.092     12.543
      3.098     14.058
ENDDATA            373
ENDSUBENT          398
SUBENT        C2104008   20140416   20140711   20140709       C142
BIB                  6         16
REACTION   (19-K-39(P,A)18-AR-36,PAR,DA,,REL)
SAMPLE     The other targets were prepared by the evaporation of
           KCl, the evaporation being carried
           out simultaneously on backings of tantalum and
           polished graphite. The measured thickness of the
           target was 10.0 keV for 2 MeV protons.
PART-DET   (A)
DETECTOR   (SCIN,CSICR) Particles emerging from the magnet were
           counted in a scintillation counter using an RCA 5819
           photomultiplier and a thallium activated KI crystal,
           and later a CsI crystal.
METHOD     The alpha particles emitted from the target at an
           angle of 90 degrees to the incident beam were
           analysed in a magnetic spectrometer and counted with
           a scintillation detector.
STATUS     (CURVE) Fig. 8, page 490.
ENDBIB              16
COMMON               2          3
ANG        E-LVL
ADEG       MEV
90.0        0.
ENDCOMMON            3
DATA                 2        189
EN         DATA
MEV        ARB-UNITS
      2.206     11.989
      2.211      7.999
      2.215     47.946
      2.221     67.924
      2.226     22.993
      2.229     13.011
      2.237     10.023
      2.244     11.028
      2.249     35.998
      2.255     21.025
      2.260     14.040
      2.266     11.050
      2.272     21.042
      2.275     11.059
      2.281     11.065
      2.285     11.070
      2.290     18.065
      2.297     17.073
      2.298     12.081
      2.306     25.070
      2.311     41.052
      2.315     12.098
      2.320      7.110
      2.325     15.103
      2.331     22.099
      2.337     11.121
      2.340     13.122
      2.343      8.132
      2.351      8.140
      2.354     18.128
      2.361      3.157
      2.370      9.157
      2.376     20.147
      2.381    132.991
      2.384    249.828
      2.390     62.101
      2.395     13.177
      2.400      7.190
      2.405     10.191
      2.410      6.201
      2.415     10.201
      2.420      9.207
      2.425      6.216
      2.430     12.212
      2.435     11.219
      2.440      7.229
      2.446      7.235
      2.449     31.205
      2.455     18.229
      2.461     17.237
      2.464     10.250
      2.470     13.251
      2.475      4.269
      2.480     19.252
      2.484     30.241
      2.489     29.247
      2.494     14.273
      2.505     21.275
      2.509     96.172
      2.515     31.271
      2.519     20.290
      2.524      9.311
      2.531     17.306
      2.536      8.324
      2.540     19.312
      2.547     17.322
      2.551     12.333
      2.555      9.341
      2.560     18.333
      2.563     18.337
      2.571     34.322
      2.576     33.329
      2.580     26.343
      2.586     21.356
      2.596     28.355
      2.601     16.377
      2.605     19.377
      2.610     30.366
      2.614     45.350
      2.619     58.336
      2.624     89.297
      2.629     50.357
      2.635     32.389
      2.639     20.410
      2.644     38.389
      2.650     46.384
      2.654     74.348
      2.660     57.378
      2.664     36.412
      2.671     22.438
      2.675     15.453
      2.680     19.453
      2.682     13.463
      2.693      6.484
      2.704     17.479
      2.707     29.465
      2.713     22.481
      2.719     33.471
      2.724     21.493
      2.728     71.426
      2.734    123.358
      2.737     63.447
      2.743     44.480
      2.747     32.501
      2.753     16.529
      2.758     19.530
      2.763     13.544
      2.774     20.544
      2.779     19.551
      2.783     24.548
      2.787     37.534
      2.793     37.540
      2.798     29.556
      2.804     25.568
      2.809     30.565
      2.814     25.577
      2.820     12.602
      2.825     15.602
      2.829     37.575
      2.835     34.585
      2.843     42.583
      2.848     31.603
      2.854     35.603
      2.860     29.618
      2.864     27.625
      2.870     32.623
      2.874     18.647
      2.879     34.629
      2.885     32.638
      2.888     22.655
      2.894     20.665
      2.899     23.666
      2.904     27.665
      2.909     29.667
      2.914     18.687
      2.917     21.686
      2.924     23.690
      2.929     41.669
      2.939     37.685
      2.944     21.713
      2.948     34.699
      2.953     40.695
      2.957    106.605
      2.964     72.660
      2.969     69.670
      2.973     95.636
      2.977    104.627
      2.980    101.635
      2.984     66.689
      2.988     51.714
      2.994     56.713
      3.000     45.734
      3.004     50.732
      3.009     50.737
      3.015     41.756
      3.019     35.768
      3.024     60.737
      3.029     86.705
      3.036    343.345
      3.040    205.546
      3.044    110.686
      3.047     70.746
      3.054     56.773
      3.059     49.788
      3.065     51.791
      3.068     58.784
      3.074    190.602
      3.079    277.483
      3.084    259.513
      3.089    144.682
      3.097    346.402
      3.100    185.635
      3.105    120.732
      3.110     86.786
      3.113     68.815
      3.124     75.816
      3.128     88.801
      3.134     92.802
      3.139     78.826
      3.143     94.808
      3.148     97.808
      3.154    179.697
      3.159    471.286
      3.166    648.041
      3.170    508.244
      3.176    512.244
      3.181    710.965
      3.190    204.698
      3.195    144.788
ENDDATA            191
ENDSUBENT          216
ENDENTRY             8
