ENTRY            F0063   20110808   20111215   20111123       F042
SUBENT        F0063001   20110808   20111215   20111123       F042
BIB                 11         35
TITLE      Elastic scattering of polarized protons by Li-6.
            (1)optical-model analysis
            (2)phase-shift analysis
AUTHOR     (M.Haller,M.Betz,W.Kretschmer,A.Rauscher,R.Schmitt,
           W.Schuster)
INSTITUTE  (2GERUEN)
REFERENCE  (J,NP/A,496,(2),189,198905) (1)optical-model analysis
           (J,NP/A,496,(2),205,198905) (2)phase-shift analysis
SAMPLE     LiF on a backing of Ni was used, which caused problems
           because of interfering lines from inelastic scattering
           at F and Ni. These lines could be removed by using a
           sandwich target Al-6Li-C, and, with further improvement
           C-6Li-C (50 mu-g/cm2 Li-6).
FACILITY   (VDGT,2GERUEN)
MONITOR    (3-LI-6(P,EL)3-LI-6,,SIG)
           As the exact determination of the target thicknesses of
           the 6Li targets was not practicable, the overall
           normalization of the absolute cross section was gotten
           by adjusting our data between 1.8 and 2.8 MeV to
           corresponding data
MONIT-REF  (,J.A.McCray,J,PR,130,2034,1963)
DETECTOR   (SIBAR) 16 surface-barrier detectors were mounted in
           steps of 10 degr on two rotatable rings, which were
           turned by 5 degr. between two runs.
ERR-ANALYS (DATA-ERR1) Overall normalization error, including
              5% on overall normalization error from MONIT-REF
           (ERR-DIG) Digitizing error
HISTORY    (19900214C)
           (19990409A) CNPD: corrected 4-dig. year
           (20060116A) Data for the energy range of 7.5-10.0 MeV
                       were added. Low case in "AUTHOR" text.
           (20110808A) SD: ref. on p.205 added.
           Titles of digitizing errors changed according to Dict.
           BIB updated in Subents 001-004.
           SF6=SIG in REACTION code changed in Subent 003.
ENDBIB              35
COMMON               3          3
EN-NRM-MIN EN-NRM-MAX DATA-ERR1
MEV        MEV        PER-CENT
 1.8         2.8       7.0
ENDCOMMON            3
ENDSUBENT           42
SUBENT        F0063002   20110808   20111215   20111123       F042
BIB                  3          4
REACTION   (3-LI-6(P,EL)3-LI-6,,DA)
ERR-ANALYS (EN-ERR-DIG) Digitizing error
           (DATA-ERR2) Error from graphic bars.
STATUS     (CURVE) fig.3 from NP/A,496,(2),189,1989
ENDBIB               4
COMMON               2          3
EN-ERR-DIG ERR-DIG
MEV        PER-CENT
 0.03       0.6
ENDCOMMON            3
DATA                 4        921
ANG        EN-CM      DATA-CM    DATA-ERR2
ADEG       MEV        MB/SR      MB/SR
       34.8       2.13      1416.
       34.8      2.349      1186.
       34.8      2.536      909.6
       34.8      2.722      682.1
       34.8      2.909      558.9
       34.8      3.097      489.3
       34.8      3.221      400.9
       34.8      3.317       419.
       34.8       3.41      375.1
       34.8      3.505      358.8
       34.8      3.692      287.5
       34.8      3.817       269.
       34.8      3.912      257.3
       34.8      4.006      246.1
       34.8      4.164      235.4
       34.8      4.291      230.2
       34.8      4.385      230.2
       34.8      4.512      235.3
       34.8      4.639      230.1
       34.8      4.734       225.
       34.8      4.861       230.
       34.8      4.956      229.9
       34.8      5.083      245.7
       34.8      5.305      240.2
       34.8      5.496      256.6
       34.8      5.623      262.2
       34.8      5.845       268.
       34.8      6.034      256.3
       34.8      6.131      292.6
       34.8      6.607      298.9
       34.8      7.145      292.1
       34.8      7.651      279.2
       34.8      8.222      278.9
       34.8      8.632      255.1
       34.8       9.14      278.4
       34.8      9.647       272.
       34.8      10.12      290.4
       40.5      1.457      836.9
       40.5      1.652      630.8
       40.5      1.877      507.4
       40.5      2.071      399.4
       40.5      2.265      335.6
       40.5      2.458      281.9
       40.5      2.586      258.4
       40.5      2.715      236.8
       40.5      2.811      226.7
       40.5      2.938      221.8
       40.5      3.131      194.6
       40.5      3.227      190.4
       40.5      3.386      186.2
       40.5      3.609      182.2
       40.5      3.768      178.2
       40.5      3.959       182.
       40.5      4.149       182.
       40.5      4.308      185.9
       40.5      4.403      189.9
       40.5      4.498      194.1
       40.5      4.626       194.
       40.5      4.784      202.6
       40.5       4.88      198.2
       40.5      5.006      211.5
       40.5      5.133      211.4
       40.5      5.292      211.3
       40.5      5.387      215.9
       40.5       5.45      230.4
       40.5      5.959      235.3
       40.5        6.5      229.9
       40.5      6.977      215.2
       40.5      7.582       215.
       40.5      9.458      214.1
       46.2      1.334       559.
       46.2      1.525      622.5
       46.2      1.716       524.
       46.2      1.939      396.1
       46.2      2.129      333.5
       46.2      2.352      268.9
       46.2      2.543      236.3
       46.2      2.734      198.9
       46.2      2.861      190.6
       46.2      2.988      182.5
       46.2      3.052      182.5
       46.2      3.211      174.8
       46.2      3.401      160.4
       46.2      3.529      153.6
       46.2      3.688      153.6
       46.2      3.847      153.6
       46.2      3.942      153.6
       46.2      4.069      153.6
       46.2      4.196      160.4
       46.2      4.387      156.9
       46.2      4.546      160.3
       46.2      4.769      163.8
       46.2       4.96      167.4
       46.2      5.087      167.4
       46.2      5.278      174.7
       46.2      5.437      178.5
       46.2      5.691       171.
       46.2      5.818      194.5
       46.2      6.264      194.5
       46.2      6.804      190.3
       46.2      7.313      186.3
       46.2      7.917      186.2
       46.2      8.299      167.2
       46.2      8.808      174.5
       46.2      9.317      174.5
       46.2      9.825      186.1
       51.8       1.12      309.3
       51.8      1.304      426.8
       51.8      1.529      359.2
       51.8      1.724      283.5
       51.8       1.95      233.5
       51.8      2.144      196.5
       51.8      2.337      176.4
       51.8       2.53       155.
       51.8      2.657      148.5
       51.8      2.721      145.3
       51.8      2.848      142.2
       51.8       3.04      133.3
       51.8      3.167      130.4
       51.8      3.295      127.6
       51.8      3.422      124.8
       51.8      3.517      124.8
       51.8      3.771      124.8
       51.8      3.866      124.7
       51.8      4.024      124.7
       51.8      4.183       122.
       51.8       4.31      124.6
       51.8      4.436      127.3
       51.8      4.562      130.1
       51.8       4.69      127.3
       51.8      4.879       130.
       51.8      5.038      127.2
       51.8      5.196      132.7
       51.8      5.259      135.6
       51.8      5.386      132.7
       51.8      5.482      129.8
       51.8      5.575      141.5
       51.8      6.083      141.3
       51.8       6.59      138.2
       51.8      7.067      129.5
       51.8      7.671      121.2
       51.8      9.573      126.1
       57.4      1.303      244.1
       57.4       1.49      333.1
       57.4      1.683      285.7
       57.4      1.908      229.4
       57.4      2.133      192.5
       57.4      2.326      168.8
       57.4      2.519      144.8
       57.4       2.71      135.5
       57.4      2.775      126.9
       57.4      2.966      124.2
       57.4      3.093      124.1
       57.4      3.189      118.8
       57.4      3.316      116.2
       57.4      3.444      113.7
       57.4       3.54      108.8
       57.4      3.635      108.8
       57.4      3.731      106.5
       57.4      3.985      106.5
       57.4      4.144      111.2
       57.4      4.335      106.5
       57.4      4.494      106.4
       57.4      4.653      106.4
       57.4      4.748      108.8
       57.4      4.908      106.4
       57.4      5.162      106.4
       57.4      5.289      108.8
       57.4      5.416      111.2
       57.4      5.544      106.4
       57.4      5.671      106.4
       57.4      6.242      118.7
       57.4      6.751      113.6
       57.4      7.229      104.1
       57.4      7.834      99.57
       57.4      8.218      87.29
       57.4      8.758      91.19
       57.4      9.235      87.27
       57.4      9.742      106.3
       62.9      1.457      183.2
       62.9      1.647      253.4
       62.9      1.837      227.4
       62.9      2.058      187.2
       62.9       2.28      157.5
       62.9       2.47      135.3
       62.9      2.691      126.8
       62.9      2.881      116.3
       62.9      3.103       109.
       62.9      3.293       109.
       62.9      3.419      102.1
       62.9      3.641      97.82
       62.9      3.799      93.68
       62.9      3.926      95.72
       62.9      4.179      93.66
       62.9      4.369      91.66
       62.9      4.527      87.77
       62.9      4.686      89.69
       62.9      4.875      91.64
       62.9      5.034      85.88
       62.9       5.16      85.88
       62.9       5.35      82.24
       62.9      5.509      85.87
       62.9      5.572      87.75
       62.9      5.762      82.23
       62.9      5.888      95.66
       62.9      6.363      85.85
       62.9      6.901      77.04
       62.9      7.376      85.44
       62.9      7.978      52.19
       62.9      9.909       80.6
       68.3      5.997       69.6      7.829
       68.3      6.503      68.13
       68.3       7.04      61.24
       68.3      7.513      55.05
       68.3      8.082      51.64
       68.3      8.523      44.48
       68.3       9.03      45.44
       68.3      9.504      41.72
       68.3      10.01      45.44
       73.7      5.505      55.94
       73.7      6.019      51.75
       73.7      6.505      46.02
       73.7       6.99      39.35
       73.7       7.59      32.32
       73.7      7.987      26.07
       73.7      8.506      33.04      3.681
       73.7      8.988       23.2
       73.7      9.477      25.62
       79.1      1.762      175.3
       79.1      1.955      142.3
       79.1      2.176      113.3
       79.1      2.372      99.12
       79.1      2.569      90.08
       79.1       2.74      86.65
       79.1      2.967      80.23
       79.1      3.053      80.19
       79.1      3.254      81.62
       79.1      3.311      81.59
       79.1      3.539      78.45
       79.1      3.682      76.92
       79.1      3.824        74.
       79.1      3.938      72.57
       79.1      4.137      71.12
       79.1      4.337      69.71
       79.1      4.479      65.81
       79.1      4.563      63.34
       79.1       4.62      62.13
       79.1      4.847      58.62
       79.1       4.99      58.57
       79.1      5.188      54.24
       79.1      5.246      54.23
       79.1      5.416      51.18
       79.1      5.615      49.23
       79.1      5.728      46.48
       79.1      5.898      43.88
       79.1      6.014       46.4
       79.1      6.527      42.09
       79.1      7.009      36.76
       79.1       7.52      32.11
       79.1      8.119      29.11
       79.1      8.514       24.5
       79.1      9.057      23.51
       79.1      9.541      21.33
       79.1      10.06      26.67
       84.3     0.9112      150.8
       84.3      1.113      136.8
       84.3      1.345      106.3
       84.3      1.548      89.32
       84.3      1.749      84.26
       84.3      1.951      81.03
       84.3      2.152      74.97
       84.3      2.267      76.42
       84.3       2.41      73.51
       84.3      2.497      72.09
       84.3      2.611      73.48
       84.3      2.783       74.9
       84.3      2.927      73.45
       84.3      3.099      70.64
       84.3        3.3      70.62
       84.3      3.472      66.62
       84.3      3.673      64.07
       84.3      3.904      57.02
       84.3      4.048      57.01
       84.3      4.162      55.91
       84.3      4.278      52.74
       84.3      4.422      49.76
       84.3      4.566      47.86
       84.3      4.681      46.03
       84.3      4.882      45.14
       84.3      4.968      43.42
       84.3      5.112      40.96
       84.3      5.226      42.57
       84.3      5.772      37.87
       84.3      6.261      33.05
       84.3       6.78      27.74
       84.3      7.355      23.74
       84.3      7.783      26.65
       84.3      8.275      18.79
       89.5       1.06      107.6
       89.5      1.261      131.7
       89.5      1.461      111.6
       89.5      1.662      92.84
       89.5      1.862       81.6
       89.5      2.034      74.42
       89.5      2.263      71.72
       89.5      2.492      70.41
       89.5      2.664      70.41
       89.5      2.836      71.71
       89.5      3.008      67.86
       89.5      3.151      69.11
       89.5       3.38      66.61
       89.5      3.638      65.39
       89.5      3.839      64.19
       89.5      4.125      57.47
       89.5      4.411      54.38
       89.5      4.641      48.69
       89.5       4.87      45.23
       89.5      5.128      42.79
       89.5      5.357      36.93
       89.5      5.529      39.03
       89.5      6.044      35.59
       89.5      6.531      30.71
       89.5      7.047      27.49
       89.5       7.62      25.07
       89.5      8.049      22.86
       89.5      8.565      20.85
       89.5       9.08      19.72
       89.5      9.596      17.99
       94.6      1.314       104.
       94.6      1.517      126.4
       94.6      1.744      108.1
       94.6      1.942      85.55
       94.6      2.141      74.62
       94.6       2.34      66.38
       94.6      2.541       65.1
       94.6      2.741       61.4
       94.6      2.855      62.61
       94.6      2.999      62.61
       94.6      3.142      63.84
       94.6      3.286      63.84
       94.6      3.372      63.84
       94.6      3.515      63.84
       94.6      3.544      63.84
       94.6      3.687       61.4
       94.6      3.945       61.4
       94.6      4.059       57.9
       94.6      4.145      60.21
       94.6      4.288      55.69
       94.6      4.516      51.51
       94.6      4.716      49.54
       94.6      4.887      44.93
       94.6      5.058      43.21
       94.6      5.286      38.44
       94.6       5.43      38.44
       94.6      5.601      35.55
       94.6      5.801      34.86
       94.6      6.316      32.25
       94.6      6.802      29.25
       94.6      7.316      24.54
       94.6      7.917      20.99       4.03
       94.6      9.373      12.89
       94.6      9.863      15.66
       99.6      1.464      96.21
       99.6      1.667      116.4
       99.6      1.864      89.15
       99.6      2.062       73.7
       99.6      2.289       62.1
       99.6       2.46      58.65
       99.6      2.688      54.35
       99.6      2.918      55.39
       99.6      3.033      56.45
       99.6      3.291      60.91
       99.6      3.434      58.64
       99.6      3.606      59.76
       99.6      3.749      58.63
       99.6      3.921      58.63
       99.6      4.007      58.63
       99.6      4.206       53.3
       99.6       4.35       53.3
       99.6      4.464      50.34
       99.6      4.606      47.55
       99.6      4.692      46.65
       99.6      4.892      45.77
       99.6      5.063      41.61
       99.6      5.376      37.12
       99.6      5.634      35.73
       99.6      5.833      31.88
       99.6      5.947      30.69
       99.6      6.433      28.43
       99.6      6.919      25.85
       99.6      7.432      21.78      4.068
       99.6      8.033      20.96      3.959
       99.6      8.462      19.06
       99.6      8.948      17.66
       99.6      9.463      17.32
       99.6      9.922      18.69
      104.6      1.477      92.55
      104.6      1.675      114.5
      104.6       1.85      85.66
      104.6      2.082      69.24
      104.6      2.285      58.17
      104.6      2.487      51.79
      104.6      2.717      51.79
      104.6       2.86      52.81
      104.6      3.003      53.84
      104.6      3.118      53.84
      104.6      3.261      54.89
      104.6      3.404      54.89
      104.6      3.547      58.17
      104.6      3.777      55.96
      104.6      3.892      53.84
      104.6      4.035      52.81
      104.6      4.265      51.79
      104.6       4.38      48.87
      104.6      4.496      47.02
      104.6      4.611      45.23
      104.6      4.726      44.37
      104.6      4.841      43.52
      104.6      4.956      41.86
      104.6      5.158        38.
      104.6      5.359      35.17
      104.6      5.648      31.32
      104.6       5.82      29.55
      104.6      5.906      30.72
      104.6      6.393      30.72
      104.6      6.911      25.81
      104.6      7.429      22.54      3.773
      104.6      8.003      20.86      3.334
      104.6      8.435      18.57
      104.6      9.441      15.61
      104.6      9.926      18.57
      109.5       1.42      90.66
      109.5      1.615      107.6
      109.5      1.838      80.81
      109.5      2.033      60.73
      109.5      2.228      50.19
      109.5      2.395      47.39
      109.5      2.618      46.48
      109.5      2.841      46.46
      109.5      3.008      48.24
      109.5      3.175      51.06
      109.5      3.342      50.09
      109.5      3.537      51.03
      109.5      3.648      50.06
      109.5      3.815       49.1
      109.5      3.982      49.09
      109.5      4.149      48.15
      109.5      4.233      47.23
      109.5        4.4       44.6
      109.5      4.567      42.92
      109.5      4.706      41.31
      109.5      4.818      39.76
      109.5      4.985      36.14
      109.5      5.124      34.78
      109.5      5.263      31.61
      109.5       5.43      30.42
      109.5      5.709      26.62
      109.5      5.848      27.64
      109.5      6.321       25.6
      109.5      6.823       23.7      3.346
      109.5      7.324      21.53      2.604
      109.5      7.909      19.93
      109.5      8.326      17.43
      109.5      8.828      17.42
      109.5      9.329      16.12
      109.5       9.83      17.72
      114.3      1.421      92.52
      114.3      1.615      109.5
      114.3       1.81       81.1
      114.3      2.033      58.97
      114.3      2.228      49.81
      114.3      2.423       46.2
      114.3      2.534       46.2
      114.3      2.618      46.19
      114.3      2.841      45.31
      114.3      3.008      48.82
      114.3       3.23      49.73
      114.3       3.37      50.65
      114.3      3.509      50.64
      114.3      3.592      50.63
      114.3      3.732      48.76
      114.3      3.871      48.75
      114.3      3.982      49.66
      114.3      4.122      47.82
      114.3      4.205      47.82
      114.3        4.4      45.19
      114.3      4.511      44.34
      114.3      4.706       42.7
      114.3      4.873      38.15
      114.3      5.068      36.06
      114.3      5.235      32.22
      114.3      5.486      31.02
      114.3      5.537      28.02
      114.3      5.681      27.71
      114.3       5.82      28.23
      114.3      6.294      25.21      3.908
      114.3      6.795      23.81      3.335
      114.3      7.296      22.07
      114.3      7.853      20.46
      114.3      8.271      18.27
      114.3      8.772      19.31
      114.3      9.273       17.9
      114.3      9.774      19.28
      119.1      1.393      92.46
      119.1      1.615      109.5
      119.1       1.81      80.96
      119.1      2.005      56.54
      119.1        2.2       47.7
      119.1      2.395      43.39
      119.1       2.59      43.37
      119.1      2.785      43.36
      119.1      2.868      43.35
      119.1      3.008      46.74
      119.1      3.175      47.61
      119.1       3.37      46.71
      119.1      3.481       46.7
      119.1      3.592      45.81
      119.1      3.732      46.68
      119.1      3.927      47.55
      119.1      4.094      46.65
      119.1      4.205      47.53
      119.1      4.372      44.06
      119.1      4.567      42.41
      119.1      4.762      40.06
      119.1      4.901      37.85
      119.1      5.068      35.08
      119.1      5.263      31.91
      119.1      5.458      30.15
      119.1      5.597      26.91
      119.1      5.709       26.4
      119.1      5.792       26.9
      119.1      6.294      23.55      3.326
      119.1      6.795      22.24      2.752
      119.1      7.296       20.6
      119.1      7.881      19.08
      119.1      8.299      16.71
      119.1      8.828      16.69
      119.1      9.301      15.47
      119.1       9.83      19.75
      123.7      1.615      96.01
      123.7       1.84      118.1
      123.7       2.03       82.5
      123.7      2.221      57.62
      123.7      2.441      47.69
      123.7      2.635      41.78
      123.7       2.83      41.76
      123.7      3.053      41.74
      123.7      3.164      43.34
      123.7      3.332      44.99
      123.7      3.526      44.14
      123.7      3.666      44.97
      123.7       3.75      45.82
      123.7      3.917      46.68
      123.7      4.001      46.67
      123.7      4.251      47.54
      123.7      4.446      46.63
      123.7      4.641      44.89
      123.7      4.752      44.04
      123.7      4.974      42.39
      123.7      5.085      40.05
      123.7      5.168      37.84
      123.7      5.334      35.08
      123.7      5.417      33.78
      123.7      5.528      31.91
      123.7      5.694      30.72
      123.7      5.943      26.91
      123.7      6.027      27.41
      123.7      6.527      24.92      3.893
      123.7      7.028      23.53
      123.7      7.527       20.6
      123.7      8.111      18.73
      123.7      8.527      17.03      3.192
      123.7      9.058      19.41
      123.7       9.53      17.32
      123.7      10.03      19.02
      128.3      1.571       100.
      128.3      1.767      118.5
      128.3      1.958      81.25
      128.3      2.148      57.85
      128.3      2.368      44.42
      128.3      2.561      41.19
      128.3      2.756      39.66
      128.3      2.951      39.66
      128.3      3.062      39.66
      128.3      3.174      41.97
      128.3      3.396      41.97
      128.3      3.647      43.59
      128.3      3.758      43.59
      128.3      3.898      45.26
      128.3      3.982      46.12
      128.3      4.093      46.12
      128.3      4.149      46.12
      128.3       4.26      46.12
      128.3      4.344       47.9
      128.3      4.455      46.12
      128.3      4.621      44.42
      128.3       4.76      43.59
      128.3      4.899      41.97
      128.3      5.037      38.92
      128.3      5.175      36.78
      128.3      5.341       34.1
      128.3      5.536      32.84
      128.3      5.729      29.32
      128.3      5.895      27.71      3.429
      128.3      6.423      26.18       3.24
      128.3      6.923      24.28
      128.3      7.422      21.68
      128.3      8.005      19.73
      128.3      8.421      16.96
      128.3      8.922      16.65
      128.3      9.421      15.15
      128.3      9.926      20.88
      132.9      1.531      97.85
      132.9      1.728      122.7
      132.9      1.919      87.31
      132.9      2.109      57.63
      132.9      2.301      46.81
      132.9      2.521      39.48
      132.9      2.716      38.73
      132.9       2.91      37.99
      132.9      3.106      39.44
      132.9      3.244      38.69
      132.9      3.384      39.42
      132.9      3.496      41.71
      132.9      3.691       43.3
      132.9      3.774      43.29
      132.9      3.942      44.94
      132.9      4.137      46.65
      132.9       4.22      45.77
      132.9      4.304      46.64
      132.9       4.47       44.9
      132.9      4.637      44.89
      132.9      4.721      44.88
      132.9       4.97       41.6
      132.9      5.164      37.84
      132.9      5.358      34.42
      132.9      5.607      32.51
      132.9      5.718      30.14
      132.9      5.828      29.02
      132.9      5.911      27.42      3.872
      132.9      6.411      26.38
      132.9      6.911      23.98
      132.9       7.41       20.6
      132.9      7.993      18.73
      132.9      8.411       19.8
      132.9      9.411        17.
      132.9      9.913      19.75
      137.4      1.625      105.6
      137.4      1.853      127.6
      137.4      2.039       87.2
      137.4      2.252      59.58
      137.4      2.441      46.51
      137.4      2.632      39.93
      137.4      2.854      38.42
      137.4      3.049      37.68
      137.4       3.16      37.67
      137.4        3.3      38.39
      137.4      3.439      39.12
      137.4      3.663       41.4
      137.4      3.803      42.18
      137.4      3.944      44.65
      137.4      4.112      46.37
      137.4      4.447      48.14
      137.4      4.669      46.32
      137.4      4.836      46.31
      137.4       5.03      44.56
      137.4      5.279      41.28
      137.4      5.389      38.98
      137.4      5.526      36.81
      137.4      5.665       36.1
      137.4      5.776      34.75
      137.4      5.884      30.99
      137.4       6.05      29.83       3.72
      137.4       6.55      28.15
      137.4      7.048      24.62
      137.4      7.547      22.36
      137.4      8.129      19.93
      137.4      8.543      16.78
      137.4      9.043      16.45
      137.4      9.542      14.66
      137.4      10.02      20.24
      141.8      1.731      105.5
      141.8      1.919       134.
      141.8      2.135      90.99
      141.8      2.324      62.94
      141.8      2.513      47.74
      141.8      2.702       39.7
      141.8      2.918      39.69
      141.8      3.107      36.86
      141.8       3.35      36.18
      141.8      3.539      37.52
      141.8      3.727      40.38
      141.8      3.808      41.13
      141.8      3.943      41.89
      141.8      4.051      43.45
      141.8      4.105      44.26
      141.8      4.321      46.76
      141.8      4.429       45.9
      141.8      4.564      47.61
      141.8      4.699      45.89
      141.8      4.942      45.87
      141.8      5.104      45.03
      141.8       5.32      41.05
      141.8      5.563      37.43
      141.8      5.724      35.41
      141.8      5.832       33.5
      141.8      5.967       31.7
      141.8      6.102      29.99
      141.8      6.588      28.36
      141.8      7.074      24.46
      141.8      7.586      21.09
      141.8       8.18      17.86
      141.8      10.12      21.82
      146.2      1.407      105.7
      146.2      1.593      134.3
      146.2      1.786      89.57
      146.2      2.007      61.97
      146.2      2.199      46.16
      146.2       2.39      37.69
      146.2      2.579      36.33
      146.2      2.796      33.75
      146.2      2.931      33.14
      146.2      3.066      35.02
      146.2      3.146      35.67
      146.2      3.227      37.01
      146.2      3.496      39.85
      146.2      3.685      40.59
      146.2      3.819       42.9
      146.2      4.007      45.34
      146.2      4.223      47.04
      146.2      4.331      46.18
      146.2      4.439      45.34
      146.2       4.52      45.34
      146.2      4.655      45.34
      146.2      4.763      45.34
      146.2      4.952      42.91
      146.2      5.142      41.36
      146.2      5.251      38.42
      146.2       5.44      37.03
      146.2      5.603      34.41
      146.2      5.711      31.96
      146.2      5.846      31.96
      146.2       6.36      28.62
      146.2      6.848      25.16
      146.2      7.363      20.93
      146.2      7.957      18.75
      146.2      8.364      15.59
      146.2      8.878      14.49
      146.2      9.392      12.51
      146.2      9.926      21.34
      150.5      1.337      107.6
      150.5      1.548      141.6
      150.5      1.744      94.66
      150.5      1.966       63.3
      150.5       2.16      48.12
      150.5      2.352      40.07
      150.5      2.569      37.93
      150.5      2.759      33.99
      150.5      2.949      33.38
      150.5      3.137      34.62
      150.5      3.325      37.25
      150.5      3.458      40.07
      150.5      3.646      42.33
      150.5      3.781      43.12
      150.5      4.023      46.39
      150.5      4.157      46.39
      150.5      4.346      47.24
      150.5      4.589      47.24
      150.5      4.804      48.12
      150.5      4.913      45.55
      150.5      5.076      43.12
      150.5      5.212      40.81
      150.5      5.401      40.07
      150.5       5.51      37.93
      150.5      5.592      35.91
      150.5      5.701      33.99
      150.5      5.808      34.62
      150.5      6.296      30.46
      150.5      6.785      26.31
      150.5        7.3      22.32
      150.5      7.896      19.28
      150.5      8.305      15.48
      150.5      8.815      17.92
      150.5      9.836      23.15
      154.8      1.459      109.2
      154.8      1.672      143.3
      154.8      1.866      92.73
      154.8       2.06      62.21
      154.8      2.279       45.7
      154.8       2.47      38.81
      154.8       2.66       34.8
      154.8       2.85      32.94
      154.8      2.931      31.77
      154.8      3.092      33.54
      154.8      3.281       35.4
      154.8      3.415      36.04
      154.8      3.469       36.7
      154.8       3.63      38.74
      154.8      3.818      41.64
      154.8      3.899      43.96
      154.8      3.953      43.96
      154.8      4.087      45.58
      154.8      4.275      48.11
      154.8      4.465      47.23
      154.8      4.653      48.08
      154.8      4.815      48.07
      154.8      4.923      48.06
      154.8      5.113      45.51
      154.8      5.275      43.09
      154.8      5.519      41.54
      154.8      5.655      37.93
      154.8      5.763      35.27
      154.8      5.871      36.57
      154.8      6.385      32.19
      154.8      6.899      27.82
      154.8      7.387      24.05
      154.8      7.982      21.16
      154.8      8.389      17.01
      154.8      8.903       16.1
      154.8      9.417      13.92
      154.8      9.926      22.93
      159.1      1.535      113.3
      159.1      1.722       149.
      159.1      1.914      96.04
      159.1      2.133       65.4
      159.1      2.324      48.81
      159.1      2.541       39.9
      159.1      2.731      36.41
      159.1      2.921      31.45
      159.1      3.028      32.02
      159.1      3.217       32.6
      159.1      3.405      35.07
      159.1      3.513      37.04
      159.1      3.647      39.84
      159.1      3.889      42.07
      159.1      3.996      44.43
      159.1      4.158      46.07
      159.1      4.346      48.66
      159.1      4.535      48.64
      159.1      4.777      51.37
      159.1      4.966      51.35
      159.1      5.155      47.72
      159.1      5.263      47.71
      159.1      5.452      45.15
      159.1      5.588      43.52
      159.1       5.75      40.44
      159.1      5.831      38.28
      159.1      5.966       39.7
      159.1      6.452       34.9
      159.1      6.966      30.69
      159.1      7.479      25.54
      159.1      8.074      21.65
      159.1      8.479      21.64
      159.1      9.019      18.34
      159.1      9.533      15.54
      159.1      10.02      16.11
      163.3      1.618      110.5
      163.3      1.834       135.
      163.3      2.023       95.4
      163.3      2.211      59.36
      163.3      2.427      46.81
      163.3      2.616      38.29
      163.3      2.832      35.59
      163.3       3.02      31.31
      163.3      3.236      32.46
      163.3      3.452      35.55
      163.3      3.694      38.93
      163.3       3.91      41.87
      163.3      4.072      45.02
      163.3      4.234      46.68
      163.3      4.449       50.2
      163.3      4.611      50.19
      163.3        4.8      52.04
      163.3      5.043      52.98
      163.3      5.232      50.14
      163.3      5.528      47.45
      163.3      5.636      47.44
      163.3      5.771      44.91
      163.3      5.906      41.74
      163.3      6.014      41.73
      163.3      6.526      37.38
      163.3      7.011      32.28
      163.3      7.524      27.87
      163.3       8.09      24.51
      163.3      8.494      20.04
      163.3      9.007      18.96
      163.3      9.519      16.37
      163.3        10.      18.59
      167.5      1.783      141.9
      167.5      1.972      97.87
      167.5      2.161      65.03
      167.5      2.377       48.3
      167.5      2.566       40.1
      167.5      2.755      37.22
      167.5      2.971      32.07
      167.5      3.133      32.06
      167.5      3.214      32.66
      167.5      3.375      35.17
      167.5      3.456       36.5
      167.5      3.645      40.79
      167.5      3.834      42.32
      167.5      3.942      44.73
      167.5      4.158      48.17
      167.5      4.347      50.91
      167.5      4.509       50.9
      167.5      4.671      52.81
      167.5       4.86       54.8
      167.5      5.102      51.81
      167.5      5.238      52.77
      167.5      5.426      48.98
      167.5      5.615      48.06
      167.5       5.75      45.45
      167.5      5.858      42.98
      167.5      5.939       44.6
      167.5      6.452      39.13
      167.5      6.938      34.98
      167.5      7.477       28.5
      167.5      8.071      24.54
      167.5      8.476      23.63
      167.5      9.474      17.53
      167.5      9.987      19.58
ENDDATA            923
ENDSUBENT          936
SUBENT        F0063003   20110808   20111215   20111123       F042
BIB                  5         10
REACTION   (3-LI-6(P,EL)3-LI-6,,IPA)
           total elastic cross-section without Coulomb interaction
           calculating.
ANALYSIS   Cr.sect. has been calculated in a phase-shift analysis,
           which fitted all experimental data.
ERR-ANALYS (EN-ERR-DIG) Digitizing error
STATUS     (CURVE) fig.4 from NP/A,496,(2),189,1989
           (DEP,F0063002)
HISTORY    (20110808A) SD: SF6=SIG in REACTION code changed on IPA
            ANG-MIN, ANG-MAX added in COMMON.
ENDBIB              10
COMMON               4          3
ANG-MIN    ANG-MAX    EN-ERR-DIG ERR-DIG
ADEG       ADEG       MEV        MB
 30.0        165.      0.015       6.3
ENDCOMMON            3
DATA                 2         47
EN-CM      DATA-CM
MEV        MB
     1.373   1972.
     1.551   2475.
     1.731   2071.
     1.894   1599.
     2.072   1152.
     2.24     987.6
     2.392    792.1
     2.562    779.1
     2.639    741.1
     2.763    740.8
     2.856    746.8
     2.933    759.2
     3.042    752.7
     3.181    764.9
     3.336    777.1
     3.445    795.7
     3.523    808.1
     3.6      820.5
     3.693    807.7
     3.786    845.2
     3.879    832.4
     3.941    819.6
     4.034    857.1
     4.096    857.
     4.205    881.9
     4.283    881.7
     4.329    862.7
     4.421    843.6
     4.545    843.3
     4.638    811.5
     4.7      817.7
     4.777    830.1
     4.824    836.2
     4.886    836.1
     4.963    798.1
     5.009    766.6
     5.055    747.6
     5.134    829.2
     5.583    834.3
     6.       801.8
     6.087    417.7
     6.433    744.1
     6.929    730.2
     7.284    672.7
     7.719    734.5
     8.151    670.5
     8.571    763.8
ENDDATA             49
ENDSUBENT           68
SUBENT        F0063004   20110808   20111215   20111123       F042
BIB                  3          3
REACTION   (3-LI-6(P,EL)3-LI-6,,DA)
ERR-ANALYS (ANG-ERR-D) Digitizing error
STATUS     (CURVE) fig.5 from NP/A,496,(2),205,1989
ENDBIB               3
COMMON               2          3
ANG-ERR-D  ERR-DIG
ADEG       PER-CENT
 0.3        0.5
ENDCOMMON            3
DATA                 3        774
EN         ANG-CM     DATA-CM
MEV        ADEG       MB/SR
 1.6000     43.930     542.90
 1.6000     49.630     305.00
 1.6000     55.240     238.90
 1.6000     60.860     182.40
 1.6000     87.670     102.00
 1.6000     92.680     96.830
 1.6000     97.690     91.910
 1.6000     102.70     88.360
 1.6000     107.40     88.270
 1.6000     112.40     89.320
 1.6000     116.90     89.240
 1.6000     121.60     91.460
 1.6000     126.30     93.740
 1.6000     130.70     93.660
 1.6000     135.20     98.480
 1.6000     139.60     97.140
 1.6000     144.10     100.90
 1.6000     148.20     100.80
 1.6000     152.40     102.00
 1.6000     157.10     104.50
 1.6000     161.30     104.40
 1.8000     46.110     623.30
 1.8000     51.670     439.90
 1.8000     56.940     339.80
 1.8000     62.780     262.40
 1.8000     79.170     182.40
 1.8000     84.440     154.20
 1.8000     89.720     137.20
 1.8000     94.720     126.80
 1.8000     99.720     118.80
 1.8000     104.40     117.20
 1.8000     109.70     114.10
 1.8000     114.40     114.00
 1.8000     119.40     115.30
 1.8000     123.60     122.90
 1.8000     128.30     122.80
 1.8000     133.10     127.50
 1.8000     137.20     134.10
 1.8000     141.70     139.20
 1.8000     146.40     144.60
 1.8000     150.60     148.20
 1.8000     155.00     151.90
 1.8000     159.20     157.80
 1.8000     163.30     147.80
 1.8000     167.50     149.60
 2.0000     35.070     1460.0
 2.0000     40.770     858.20
 2.0000     46.490     523.90
 2.0000     52.240     377.00
 2.0000     57.730     289.00
 2.0000     63.230     227.20
 2.0000     79.230     145.90
 2.0000     84.780     138.70
 2.0000     89.740     116.10
 2.0000     95.000     109.00
 2.0000     99.960     91.300
 2.0000     104.90     87.890
 2.0000     109.90     85.680
 2.0000     114.70     85.670
 2.0000     119.40     85.660
 2.0000     123.80     86.740
 2.0000     128.80     85.640
 2.0000     133.00     91.220
 2.0000     137.70     91.210
 2.0000     142.20     95.940
 2.0000     146.60     98.380
 2.0000     150.80     100.90
 2.0000     155.30     99.610
 2.0000     159.40     103.50
 2.0000     163.60     103.40
 2.0000     168.00     103.40
 2.2000     34.580     1171.0
 2.2000     39.910     609.80
 2.2000     45.540     380.80
 2.2000     51.140     289.50
 2.2000     56.750     220.20
 2.2000     62.340     177.80
 2.2000     69.250     145.80
 2.2000     78.460     109.10
 2.2000     83.380     96.540
 2.2000     88.640     85.410
 2.2000     93.890     77.890
 2.2000     98.820     66.870
 2.2000     103.70     63.820
 2.2000     108.70     57.330
 2.2000     113.30     55.560
 2.2000     118.20     53.030
 2.2000     122.80     53.780
 2.2000     127.00     52.910
 2.2000     131.90     52.850
 2.2000     136.20     53.600
 2.2000     140.80     56.030
 2.2000     145.30     55.970
 2.2000     149.60     57.630
 2.2000     153.80     57.570
 2.2000     158.40     59.280
 2.2000     162.40     54.900
 2.2000     166.30     58.270
 2.4000     34.660     899.60
 2.4000     40.230     509.60
 2.4000     45.790     320.50
 2.4000     51.360     241.20
 2.4000     57.250     189.90
 2.4000     62.490     154.00
 2.4000     78.860     96.830
 2.4000     84.100     84.630
 2.4000     89.010     77.360
 2.4000     94.250     69.660
 2.4000     99.160     59.090
 2.4000     104.40     56.490
 2.4000     109.00     50.870
 2.4000     113.90     49.360
 2.4000     118.80     46.490
 2.4000     123.70     46.480
 2.4000     128.00     43.780
 2.4000     132.60     45.100
 2.4000     137.10     44.430
 2.4000     142.10     45.770
 2.4000     146.30     45.080
 2.4000     150.60     47.140
 2.4000     154.80     45.750
 2.4000     159.10     47.130
 2.4000     163.30     45.740
 2.4000     167.60     47.120
 2.6000     34.640     697.40
 2.6000     40.520     393.40
 2.6000     46.080     265.80
 2.6000     51.960     199.60
 2.6000     57.190     166.50
 2.6000     62.750     136.80
 2.6000     78.760     89.600
 2.6000     83.660     81.820
 2.6000     88.890     72.490
 2.6000     94.440     63.270
 2.6000     99.350     56.910
 2.6000     104.20     51.190
 2.6000     109.20     48.900
 2.6000     114.10     46.710
 2.6000     119.00     43.960
 2.6000     123.20     41.990
 2.6000     127.80     41.970
 2.6000     132.40     40.100
 2.6000     137.30     39.470
 2.6000     141.50     40.660
 2.6000     146.10     39.430
 2.6000     150.30     41.860
 2.6000     154.60     40.600
 2.6000     158.80     41.820
 2.6000     162.70     40.560
 2.6000     167.00     41.770
 2.8000     31.340     554.80
 2.8000     37.290     333.50
 2.8000     42.780     227.60
 2.8000     48.250     176.30
 2.8000     53.730     139.50
 2.8000     59.190     120.10
 2.8000     75.130     79.970
 2.8000     81.960     70.290
 2.8000     86.060     63.160
 2.8000     91.070     57.940
 2.8000     96.540     47.820
 2.8000     101.50     46.740
 2.8000     106.10     42.890
 2.8000     111.10     41.050
 2.8000     115.60     38.470
 2.8000     120.60     37.600
 2.8000     124.70     35.240
 2.8000     129.70     33.730
 2.8000     134.30     33.670
 2.8000     138.40     34.350
 2.8000     142.90     31.510
 2.8000     147.50     32.820
 2.8000     151.60     30.120
 2.8000     155.70     31.380
 2.8000     160.20     31.330
 2.8000     164.30     31.290
 3.0000     29.280     485.80
 3.0000     34.390     275.60
 3.0000     40.370     188.80
 3.0000     46.320     152.90
 3.0000     51.810     123.80
 3.0000     56.830     109.00
 3.0000     73.260     74.430
 3.0000     78.730     66.930
 3.0000     83.740     62.760
 3.0000     88.760     55.270
 3.0000     94.230     49.700
 3.0000     98.780     47.600
 3.0000     103.80     43.710
 3.0000     108.40     41.000
 3.0000     113.40     39.260
 3.0000     117.90     37.600
 3.0000     122.50     36.010
 3.0000     127.00     33.770
 3.0000     131.60     33.730
 3.0000     136.10     32.980
 3.0000     140.20     30.940
 3.0000     144.80     30.260
 3.0000     148.80     29.590
 3.0000     153.40     28.340
 3.0000     157.50     28.310
 3.0000     162.00     27.690
 3.2000     29.600     410.90
 3.2000     35.160     238.10
 3.2000     40.670     173.60
 3.2000     46.620     140.60
 3.2000     52.110     116.30
 3.2000     57.130     102.40
 3.2000     74.000     74.430
 3.2000     79.020     66.940
 3.2000     84.490     61.460
 3.2000     89.050     55.280
 3.2000     94.510     51.830
 3.2000     99.520     48.610
 3.2000     104.10     45.590
 3.2000     109.10     44.580
 3.2000     114.10     42.690
 3.2000     118.60     40.030
 3.2000     123.20     38.340
 3.2000     127.70     35.960
 3.2000     132.30     33.730
 3.2000     136.40     32.300
 3.2000     140.90     30.940
 3.2000     145.50     30.260
 3.2000     149.60     30.220
 3.2000     154.10     29.560
 3.2000     157.80     29.520
 3.2000     162.30     28.870
 3.4000     32.610     358.20
 3.4000     38.060     221.90
 3.4000     43.520     169.20
 3.4000     49.420     137.30
 3.4000     54.870     116.10
 3.4000     60.320     104.50
 3.4000     76.220     76.200
 3.4000     82.130     68.580
 3.4000     87.120     67.070
 3.4000     92.120     60.380
 3.4000     97.570     56.640
 3.4000     102.60     52.060
 3.4000     107.10     50.920
 3.4000     112.10     47.780
 3.4000     117.10     45.770
 3.4000     121.20     42.080
 3.4000     125.70     40.310
 3.4000     130.70     37.050
 3.4000     135.30     37.000
 3.4000     139.80     35.450
 3.4000     143.90     36.150
 3.4000     148.40     34.640
 3.4000     153.00     34.590
 3.4000     157.10     33.840
 3.4000     161.20     33.800
 3.4000     165.70     33.760
 3.6000     34.440     282.30
 3.6000     39.800     189.80
 3.6000     45.640     150.50
 3.6000     51.500     127.10
 3.6000     56.910     109.60
 3.6000     62.320     96.440
 3.6000     78.580     72.950
 3.6000     84.000     68.340
 3.6000     89.410     60.150
 3.6000     93.930     57.550
 3.6000     99.350     52.810
 3.6000     104.30     50.510
 3.6000     108.90     49.350
 3.6000     113.80     47.200
 3.6000     118.80     43.320
 3.6000     122.90     42.330
 3.6000     127.40     40.500
 3.6000     132.80     38.740
 3.6000     136.90     38.640
 3.6000     141.00     37.760
 3.6000     145.50     36.890
 3.6000     150.00     36.040
 3.6000     154.50     35.200
 3.6000     158.60     35.120
 3.6000     162.70     35.040
 3.6000     166.80     34.240
 3.8000     34.870     259.90
 3.8000     40.690     193.40
 3.8000     46.520     150.10
 3.8000     51.930     129.30
 3.8000     57.340     109.20
 3.8000     63.210     96.030
 3.8000     79.030     72.670
 3.8000     84.470     69.530
 3.8000     89.900     63.800
 3.8000     94.890     62.350
 3.8000     99.850     56.040
 3.8000     104.40     57.110
 3.8000     109.40     52.420
 3.8000     113.90     51.230
 3.8000     118.90     47.020
 3.8000     123.40     45.960
 3.8000     127.90     43.080
 3.8000     132.90     43.900
 3.8000     137.50     42.020
 3.8000     141.60     42.840
 3.8000     146.10     41.870
 3.8000     154.70     40.850
 3.8000     162.90     40.710
 4.0000     32.720     248.00
 4.0000     38.070     182.70
 4.0000     44.260     145.30
 4.0000     50.040     127.10
 4.0000     54.570     105.00
 4.0000     60.350     91.800
 4.0000     76.460     70.160
 4.0000     81.410     64.970
 4.0000     86.780     60.160
 4.0000     91.740     56.780
 4.0000     96.700     53.590
 4.0000     101.70     50.580
 4.0000     106.60     48.650
 4.0000     111.60     47.700
 4.0000     116.10     46.770
 4.0000     120.70     44.990
 4.0000     125.60     44.110
 4.0000     130.20     43.250
 4.0000     134.30     43.220
 4.0000     138.90     42.370
 4.0000     143.00     42.350
 4.0000     147.50     42.320
 4.0000     151.70     42.290
 4.0000     156.20     42.260
 4.0000     160.40     42.240
 4.0000     164.50     42.210
 4.2000     30.270     237.10
 4.2000     35.650     184.80
 4.2000     41.850     146.80
 4.2000     47.220     125.90
 4.2000     52.600     103.90
 4.2000     58.390     92.610
 4.2000     74.510     68.130
 4.2000     79.890     64.320
 4.2000     85.260     59.570
 4.2000     90.220     57.320
 4.2000     94.770     53.090
 4.2000     99.730     51.090
 4.2000     105.10     49.170
 4.2000     109.70     48.230
 4.2000     114.60     46.420
 4.2000     119.20     47.320
 4.2000     124.10     45.530
 4.2000     128.70     46.420
 4.2000     133.20     45.530
 4.2000     137.40     46.420
 4.2000     141.50     45.530
 4.2000     146.00     46.420
 4.2000     150.60     45.530
 4.2000     154.70     46.420
 4.2000     158.90     45.530
 4.2000     163.00     47.320
 4.4000     33.760     255.90
 4.4000     39.910     189.10
 4.4000     45.670     156.50
 4.4000     51.010     134.50
 4.4000     56.360     113.40
 4.4000     62.120     97.440
 4.4000     78.190     70.570
 4.4000     83.960     65.390
 4.4000     88.910     61.760
 4.4000     94.280     59.430
 4.4000     99.220     53.040
 4.4000     104.20     53.010
 4.4000     109.60     51.990
 4.4000     114.10     50.990
 4.4000     118.60     50.010
 4.4000     123.60     49.980
 4.4000     128.20     49.960
 4.4000     132.70     50.880
 4.4000     136.80     49.910
 4.4000     141.40     50.830
 4.4000     145.50     50.810
 4.4000     150.10     51.750
 4.4000     154.60     52.710
 4.4000     158.80     53.690
 4.4000     162.90     54.690
 4.4000     167.50     55.700
 4.6000     34.250     234.70
 4.6000     40.410     187.70
 4.6000     45.750     150.20
 4.6000     51.500     124.70
 4.6000     56.840     99.800
 4.6000     62.610     89.260
 4.6000     78.670     62.690
 4.6000     84.030     57.120
 4.6000     88.980     54.010
 4.6000     94.350     52.040
 4.6000     99.290     47.410
 4.6000     103.80     46.530
 4.6000     109.20     47.400
 4.6000     113.80     46.520
 4.6000     118.30     45.650
 4.6000     122.90     46.500
 4.6000     127.80     45.640
 4.6000     132.00     47.360
 4.6000     136.50     47.350
 4.6000     141.10     49.130
 4.6000     145.20     49.120
 4.6000     149.70     50.970
 4.6000     154.30     50.960
 4.6000     158.40     51.910
 4.6000     162.60     53.870
 4.6000     167.10     53.860
 4.8000     34.970     249.00
 4.8000     41.100     195.00
 4.8000     46.840     161.60
 4.8000     52.160     131.40
 4.8000     57.900     108.90
 4.8000     63.650     93.660
 4.8000     79.670     61.900
 4.8000     85.040     58.470
 4.8000     89.990     54.210
 4.8000     95.370     52.180
 4.8000     100.30     48.380
 4.8000     105.30     48.340
 4.8000     110.30     46.530
 4.8000     114.80     46.500
 4.8000     119.40     46.470
 4.8000     124.40     47.310
 4.8000     128.90     48.170
 4.8000     133.50     49.050
 4.8000     137.60     49.940
 4.8000     142.20     50.850
 4.8000     146.40     51.780
 4.8000     151.00     54.730
 4.8000     155.10     55.730
 4.8000     159.70     57.820
 4.8000     163.40     58.880
 4.8000     168.00     61.080
 5.0000     34.290     270.70
 5.0000     40.090     207.70
 5.0000     46.300     168.80
 5.0000     51.680     139.70
 5.0000     57.060     109.30
 5.0000     62.440     92.190
 5.0000     79.000     58.610
 5.0000     84.380     53.340
 5.0000     89.750     50.430
 5.0000     94.720     47.670
 5.0000     99.270     44.210
 5.0000     104.60     43.410
 5.0000     109.20     42.610
 5.0000     114.20     42.640
 5.0000     118.70     41.860
 5.0000     123.70     42.680
 5.0000     128.20     41.900
 5.0000     132.80     44.380
 5.0000     137.30     45.250
 5.0000     141.40     47.020
 5.0000     146.00     48.860
 5.0000     150.50     50.770
 5.0000     154.70     51.770
 5.0000     158.80     54.820
 5.0000     163.30     56.970
 5.0000     167.90     57.000
 5.2000     32.500     235.50
 5.2000     38.510     189.20
 5.2000     44.080     155.00
 5.2000     49.240     119.70
 5.2000     54.820     96.190
 5.2000     60.400     78.820
 5.2000     76.690     49.800
 5.2000     82.260     42.450
 5.2000     87.390     40.750
 5.2000     92.960     36.860
 5.2000     97.240     34.690
 5.2000     102.40     33.970
 5.2000     107.50     33.260
 5.2000     112.20     32.560
 5.2000     116.90     31.880
 5.2000     121.60     32.480
 5.2000     126.30     33.080
 5.2000     130.60     33.700
 5.2000     135.30     35.720
 5.2000     139.50     36.390
 5.2000     144.20     39.330
 5.2000     148.10     39.290
 5.2000     152.80     41.630
 5.2000     157.00     42.410
 5.2000     161.30     44.070
 5.2000     165.60     45.790
 5.4000     34.490     257.60
 5.4000     40.500     195.70
 5.4000     46.090     157.70
 5.4000     51.680     127.00
 5.4000     57.270     100.40
 5.4000     62.860     79.280
 5.4000     78.770     48.460
 5.4000     84.790     41.390
 5.4000     89.950     38.230
 5.4000     94.670     35.310
 5.4000     99.830     33.250
 5.4000     104.60     32.570
 5.4000     109.70     31.280
 5.4000     114.50     31.240
 5.4000     119.20     31.200
 5.4000     123.50     31.160
 5.4000     128.60     31.730
 5.4000     132.90     31.690
 5.4000     137.20     34.220
 5.4000     138.50     32.260
 5.4000     142.00     34.850
 5.4000     146.70     36.900
 5.4000     154.90     42.200
 5.4000     159.20     42.980
 5.4000     163.50     46.420
 5.4000     167.80     45.470
 5.6000     33.540     269.20
 5.6000     39.130     217.00
 5.6000     45.140     171.60
 5.6000     50.300     135.70
 5.6000     55.880     105.20
 5.6000     61.460     83.170
 5.6000     77.790     47.120
 5.6000     82.940     41.070
 5.6000     88.530     36.510
 5.6000     93.680     33.740
 5.6000     98.410     31.190
 5.6000     103.60     31.170
 5.6000     108.70     30.540
 5.6000     113.40     30.520
 5.6000     118.20     29.910
 5.6000     122.50     30.480
 5.6000     127.20     31.060
 5.6000     131.90     31.650
 5.6000     136.20     33.540
 5.6000     140.50     34.180
 5.6000     145.20     36.220
 5.6000     149.50     39.140
 5.6000     153.80     41.470
 5.6000     158.10     43.100
 5.6000     162.40     45.670
 5.6000     166.70     45.640
 6.0000     35.530     308.60
 6.0000     41.500     244.90
 6.0000     47.040     190.70
 6.0000     52.580     145.60
 6.0000     58.110     107.00
 6.0000     64.100     93.500
 6.0000     68.760     67.420
 6.0000     74.310     55.610
 6.0000     79.860     45.860
 6.0000     84.990     39.300
 6.0000     90.560     35.680
 6.0000     95.700     32.390
 6.0000     100.80     28.840
 6.0000     105.60     30.530
 6.0000     110.70     29.360
 6.0000     115.40     28.780
 6.0000     120.20     27.670
 6.0000     124.90     28.190
 6.0000     129.60     28.170
 6.0000     134.30     28.150
 6.0000     138.70     30.370
 6.0000     143.40     31.540
 6.0000     147.70     34.690
 6.0000     151.60     37.440
 6.0000     155.90     38.880
 6.0000     160.60     41.150
 6.0000     164.90     43.560
 6.0000     169.20     45.230
 6.5000     35.990     311.50
 6.5000     41.510     242.00
 6.5000     47.040     195.40
 6.5000     52.550     146.10
 6.5000     58.510     113.50
 6.5000     63.600     86.490
 6.5000     69.120     67.200
 6.5000     74.640     52.210
 6.5000     80.170     42.170
 6.5000     85.710     36.090
 6.5000     90.830     32.730
 6.5000     96.390     30.270
 6.5000     100.60     25.910
 6.5000     105.80     30.820
 6.5000     110.90     27.420
 6.5000     115.60     26.360
 6.5000     120.30     24.850
 6.5000     125.10     26.320
 6.5000     129.80     26.810
 6.5000     134.10     27.320
 6.5000     138.40     28.930
 6.5000     143.10     30.640
 6.5000     147.40     31.830
 6.5000     151.70     33.710
 6.5000     156.00     35.700
 6.5000     160.30     37.810
 6.5000     165.00     40.040
 6.5000     169.30     40.790
 7.0000     34.550     301.90
 7.0000     40.090     238.40
 7.0000     45.630     184.70
 7.0000     51.600     140.20
 7.0000     56.700     108.60
 7.0000     63.080     76.240
 7.0000     68.190     57.900
 7.0000     73.720     43.970
 7.0000     79.270     34.730
 7.0000     84.400     30.250
 7.0000     89.530     26.870
 7.0000     95.110     26.330
 7.0000     99.810     22.060
 7.0000     104.60     24.310
 7.0000     110.10     24.290
 7.0000     114.90     23.340
 7.0000     119.10     21.990
 7.0000     123.50     23.310
 7.0000     128.60     23.290
 7.0000     132.90     23.270
 7.0000     137.20     24.180
 7.0000     141.90     24.650
 7.0000     146.70     26.640
 7.0000     150.60     27.680
 7.0000     155.30     29.340
 7.0000     159.60     31.710
 7.0000     163.90     32.950
 7.0000     168.20     34.920
 7.5000     36.411     299.21
 7.5000     42.455     223.41
 7.5000     47.663     180.34
 7.5000     53.291     134.64
 7.5000     58.711     99.550
 7.5000     64.128     78.041
 7.5000     69.553     51.829
 7.5000     74.765     38.695
 7.5000     80.182     30.335
 7.5000     85.597     25.711
 7.5000     90.592     23.791
 7.5000     96.002     22.449
 7.5000     101.00     19.027
 7.5000     106.19     21.400
 7.5000     111.18     22.480
 7.5000     116.18     21.842
 7.5000     120.76     20.608
 7.5000     125.33     21.023
 7.5000     129.70     21.656
 7.5000     134.48     20.434
 7.5000     139.06     21.464
 7.5000     143.63     21.264
 7.5000     147.79     22.776
 7.5000     152.57     23.463
 7.5000     156.73     25.626
 7.5000     161.09     26.397
 7.5000     165.46     28.552
 7.5000     169.83     29.411
 8.0850     25.123     818.31
 8.0850     36.581     301.85
 8.0850     42.203     224.24
 8.0850     47.823     178.16
 8.0850     53.237     123.76
 8.0850     58.650     93.721
 8.0850     64.069     51.219
 8.0850     69.478     47.446
 8.0850     74.685     33.275
 8.0850     80.096     26.949
 8.0850     85.300     21.618
 8.0850     90.708     21.009
 8.0850     95.910     18.909
 8.0850     100.90     17.684
 8.0850     106.31     19.283
 8.0850     111.30     20.627
 8.0850     116.08     19.664
 8.0850     120.66     18.927
 8.0850     125.24     18.931
 8.0850     130.02     19.117
 8.0850     134.60     18.051
 8.0850     138.96     18.941
 8.0850     143.75     18.058
 8.0850     148.11     19.880
 8.0850     152.69     20.075
 8.0850     156.85     21.889
 8.0850     161.01     21.893
 8.0850     165.37     24.334
 8.0850     169.53     24.572
 8.5000     25.363     687.09
 8.5000     37.018     269.93
 8.5000     48.046     157.41
 8.5000     59.075     80.210
 8.5000     69.688     39.708
 8.5000     74.892     24.768
 8.5000     80.300     22.066
 8.5000     85.916     22.716
 8.5000     90.909     18.203
 8.5000     101.31     15.756
 8.5000     106.30     16.696
 8.5000     111.08     17.691
 8.5000     116.08     17.188
 8.5000     120.65     15.915
 8.5000     125.02     16.701
 8.5000     130.01     16.071
 8.5000     134.59     18.572
 8.5000     138.75     15.466
 8.5000     147.90     16.232
 8.5000     152.06     15.620
 8.5000     156.43     17.705
 8.5000     160.58     21.060
 8.5000     164.95     19.879
 8.5000     169.32     22.971
 9.0000     24.896     872.75
 9.0000     36.125     293.97
 9.0000     47.355     164.10
 9.0000     58.377     84.758
 9.0000     68.775     38.959
 9.0000     73.559     30.558
 9.0000     79.590     20.920
 9.0000     84.165     15.630
 9.0000     89.989     16.249
 9.0000     100.18     14.321
 9.0000     109.96     17.223
 9.0000     114.32     17.391
 9.0000     119.52     15.179
 9.0000     123.68     18.796
 9.0000     128.88     15.327
 9.0000     137.62     14.600
 9.0000     146.77     14.886
 9.0000     150.51     16.889
 9.0000     155.30     15.933
 9.0000     159.25     17.220
 9.0000     164.03     17.902
 9.5000     24.706     882.07
 9.5000     35.932     291.26
 9.5000     47.369     166.55
 9.5000     58.597     80.079
 9.5000     69.408     37.046
 9.5000     74.606     21.807
 9.5000     80.221     19.613
 9.5000     90.619     15.413
 9.5000     95.609     11.108
 9.5000     100.81     14.269
 9.5000     105.80     13.996
 9.5000     110.59     16.486
 9.5000     115.58     16.644
 9.5000     120.15     14.684
 9.5000     124.73     16.967
 9.5000     129.30     14.542
 9.5000     134.09     16.012
 9.5000     138.46     13.333
 9.5000     147.61     13.332
 9.5000     156.13     14.538
 9.5000     160.29     15.702
 9.5000     164.87     16.319
 9.5000     169.24     17.456
 10.000     35.485     301.40
 10.000     41.101     215.43
 10.000     46.716     171.12
 10.000     52.331     122.31
 10.000     57.739     96.226
 10.000     63.146     66.828
 10.000     68.553     38.677
 10.000     73.545     23.711
 10.000     79.160     23.711
 10.000     89.559     13.988
 10.000     94.551     13.080
 10.000     99.959     14.676
 10.000     104.74     15.999
 10.000     109.53     17.610
 10.000     114.31     17.951
 10.000     119.51     18.475
 10.000     124.09     18.124
 10.000     128.45     19.014
 10.000     133.03     17.950
 10.000     137.60     18.298
 10.000     141.97     20.729
 10.000     146.55     21.747
 10.000     151.12     22.598
 10.000     155.28     19.197
 10.000     159.65     15.544
 10.000     163.81     17.608
 10.000     167.97     18.831
 10.000     172.13     19.196
ENDDATA            776
ENDSUBENT          788
ENDENTRY             4
