ENTRY            F0074   20050413   20050610                  F020
SUBENT        F0074001   20050413   20050610                  F020
BIB                 12         51
TITLE      Experimental investigation of charge symmetry
           breaking effects in the reaction 4He(d,3He)3H between
           Ed=32 and 50 MeV.
AUTHOR     (B.Vuaridel,W.Gruebler,V.Konig,K.Elsener,
           P.A.Schmelzbach,J.Ulbricht,Ch.Forstner,M.Bittcher,
           D.Singy,M.Bruno,F.Cannata,M.D'Agostino,I.Borbely)
INSTITUTE  (2SWTETH,2ITYUBO,3HUNKFI)
REFERENCE  (J,NP/A,484,34,1988)
FACILITY   (CYCLO,2SWTVIL)
DETECTOR   (TELES,SIBAR)Detector telescopes (four telescopes
           simultaneously) in the scattering chamber were mounted
           on two turnable segments which can be rotated
           independently around the target in order to measure the
           angular distributions. Telescopes with three silicon
           surface barrier detectors are used to discriminate
           these particles from protons, deuterons and 4He. The
           two first detectors in coincidence give dE and E
           proportional signals for the 3He and 4He nucleus. The
           second and third detectors give the corresponding
           signals for the hydrogen-isotopes tritons,deuterons and
           protons. For Ed=40 MeV the following detector
           thicknesses were used; for the first telescope in the
           angular range ANG1=10 degr. to 30 degr. they were 100
           mu-m,500 mu-m and 1000 mu-m. The second telescope
           covering the angular range ANG2=25 degr. to 45degr. was
           equipped with detectors 75 mu-m, 300 mu-m and 1000 mu-m
           thick.
SAMPLE     The gas cell,32 mm in diameter,has 6.3 mu-m thick Havar
           entrance and exit windows and was filled with 800 Torr
           4He. For angles smaller than 10 degr. there was used an
           elongated target 0f 60 mm length in the beam direction
           and 24 mm wide,equipped with a 6.3 mu-m thick entrance
           window and a 12.6 mu-m thick Havar exit window.
MONITOR    Deuteron beam was calibrated using elastic d(a,a)
           scattering at the energy range Ed=17 to 43 MeV.
MONIT-REF  (,W.Gruebler+,J,NP/A,334,365,1980)
           (,B.Jenny+,J,NP/A,397,61,1983)
METHOD     (EDE)
           (BCINT)
ERR-ANALYS (ERR-DIG)Digitizing error
           (ANG-ERR-D)Digitizing error
           For the present polarization data an overall absolute
           calibration uncertainty of 2% is estimated at energies
           below 40 MeV and 3% at 45 and 50 MeV due to the error
           propagation inherent to the energy degrading method.
           The statistical accuracy ranges from 0.005 to 0.010.
           Besides the statistical error, which is for all
           data points smaller than 1%,a general independent error
           of 1% was attributed to the data due to systematic
           error arising.
HISTORY    (20041123C)
ENDBIB              51
NOCOMMON             0          0
ENDSUBENT           54
SUBENT        F0074002   20050413   20050610                  F020
BIB                  3          4
REACTION   (2-HE-4(D,T)2-HE-3,,POL/DA,,ANA)
COMMENT    Compoments of the analyzing power with an horizontal
           scattering plane.
STATUS     (CURVE)Fig.6
ENDBIB               4
COMMON               2          3
ANG-ERR-D  ERR-DIG
ADEG       ARB-UNITS
 0.33       0.1
ENDCOMMON            3
DATA                 3        162
EN         ANG-CM     DATA-CM
MEV        ADEG       ARB-UNITS
 32.100     19.430    0.21660E-01
 32.100     25.201    -.85669E-01
 32.100     28.692    -.28861
 32.100     33.747    -.52905
 32.100     37.854    -.67346
 32.100     42.693    -.67410
 32.100     47.647    -.58950
 32.100     52.263    -.35566
 32.100     54.614    -.20677
 32.100     56.499    -.45460E-02
 32.100     61.316    0.37846
 32.100     65.394    0.61237
 32.100     71.230    0.55299
 32.100     77.438    0.37100
 32.100     86.313    0.17268
 32.100     94.486    -.14810
 32.100     101.68    -.39948
 32.100     108.41    -.59219
 32.100     113.83    -.55561
 32.100     117.98    -.26842
 32.100     122.29    0.13064
 32.100     124.17    0.33287
 32.100     127.00    0.43906
 32.100     130.46    0.60911
 32.100     135.93    0.68299
 32.100     140.71    0.63440
 32.100     144.78    0.46336
 32.100     149.86    0.24422
 32.100     154.46    0.67779E-01
 32.100     159.19    -.18099E-01
 35.150     10.050    0.21672E-01
 35.150     14.393    0.52860E-01
 35.150     21.296    -.63319E-02
 35.150     26.873    -.24541
 35.150     31.839    -.53737
 35.150     37.057    -.64929
 35.150     42.459    -.62884
 35.150     47.905    -.57661
 35.150     54.029    -.42386
 35.150     60.000    0.43118E-02
 35.150     64.044    0.59163
 35.150     70.498    0.59605
 35.150     75.553    0.36763
 35.150     80.682    0.19217
 35.150     86.377    0.37810E-01
 35.150     92.625    -.10603
 35.150     97.209    -.28672
 35.150     103.92    -.48358
 35.150     108.48    -.68015
 35.150     114.55    -.56446
 35.150     119.77    0.91542E-01
 35.150     126.15    0.42962
 35.150     130.57    0.51906
 35.150     136.01    0.56069
 35.150     141.41    0.58114
 35.150     146.64    0.47981
 35.150     152.18    0.21426
 35.150     157.80    0.16526E-02
 35.150     163.68    -.20328E-01
 35.150     169.59    -.21129E-01
 39.600     20.031    -.29649E-01
 39.600     25.084    -.32902
 39.600     30.692    -.61244
 39.600     36.113    -.57567
 39.600     40.482    -.51745
 39.600     45.874    -.50736
 39.600     51.822    -.48132
 39.600     56.296    -.32705
 39.600     61.233    0.24872
 39.600     67.199    0.78169
 39.600     71.328    0.62116
 39.600     75.906    0.38054
 39.600     82.141    0.17710
 39.600     87.351    0.21784E-01
 39.600     92.082    -.80113E-01
 39.600     96.773    -.21936
 39.600     102.44    -.44943
 39.600     106.99    -.71139
 39.600     112.21    -.86670
 39.600     117.14    -.29093
 39.600     122.04    0.24750
 39.600     126.51    0.39643
 39.600     132.44    0.41179
 39.600     137.87    0.45390
 39.600     142.74    0.48005
 39.600     147.65    0.54356
 39.600     153.32    0.31349
 39.600     158.38    0.19456E-01
 44.900     9.8833    0.35841E-03
 44.900     14.712    0.49621E-02
 44.900     19.998    -.43453E-01
 44.900     24.384    -.34062
 44.900     29.671    -.38903
 44.900     35.121    -.32627
 44.900     39.437    -.30571
 44.900     44.242    -.31698
 44.900     49.063    -.31767
 44.900     54.023    -.22307
 44.900     59.791    0.56754E-01
 44.900     64.907    0.62262
 44.900     69.417    0.77553
 44.900     74.447    0.55241
 44.900     79.493    0.33988
 44.900     84.058    0.16448
 44.900     88.646    0.49644E-02
 44.900     89.670    -.26954E-01
 44.900     94.778    -.19713
 44.900     99.351    -.36724
 44.900     104.37    -.59566
 44.900     109.98    -.79238
 44.900     114.55    -.59711
 44.900     119.55    -.11066
 44.900     124.78    0.16924
 44.900     129.71    0.24267
 44.900     134.56    0.26315
 44.900     139.38    0.25717
 44.900     144.76    0.27758
 44.900     149.68    0.34042
 44.900     154.53    0.36090
 44.900     159.47    0.79545E-01
 44.900     164.75    0.20542E-01
 44.900     170.08    0.38926E-02
 49.700     8.0232    0.18752E-01
 49.700     11.732    0.22586E-02
 49.700     15.415    -.30124E-01
 49.700     19.613    -.73185E-01
 49.700     24.111    -.25934
 49.700     29.156    -.11181
 49.700     33.407    -.12310
 49.700     38.166    -.15036
 49.700     42.915    -.18291
 49.700     47.184    -.18360
 49.700     50.944    -.16832
 49.700     52.623    -.12091
 49.700     54.836    -.73586E-01
 49.700     57.222    0.79663E-01
 49.700     62.598    0.42845
 49.700     67.371    0.73495
 49.700     72.680    0.71819
 49.700     77.125    0.50027
 49.700     79.619    0.39391
 49.700     82.525    0.21331
 49.700     95.142    -.22845
 49.700     98.589    -.40383
 49.700     101.01    -.55256
 49.700     106.08    -.71761
 49.700     111.42    -.71318
 49.700     116.12    -.45435
 49.700     120.40    -.12128
 49.700     123.29    0.15996E-01
 49.700     125.55    0.89800E-01
 49.700     127.73    0.11594
 49.700     130.97    0.14190
 49.700     134.72    0.15189
 49.700     140.04    0.14043
 49.700     144.80    0.11317
 49.700     149.66    0.14947
 49.700     154.17    0.29178
 49.700     159.23    0.12673
 49.700     163.39    0.57189E-01
 49.700     167.63    0.40609E-01
 49.700     171.84    0.28440E-02
ENDDATA            164
ENDSUBENT          177
SUBENT        F0074003   20050413   20050610                  F020
BIB                  3          4
REACTION   (2-HE-4(D,T)2-HE-3,NN,POL/DA,,ANA)
COMMENT    Ayy compoments of the analyzing power with an
           horizontal scattering plane.
STATUS     (CURVE)Fig.7
ENDBIB               4
COMMON               2          3
ANG-ERR-D  ERR-DIG
ADEG       ARB-UNITS
 0.24       0.1
ENDCOMMON            3
DATA                 3        169
EN         ANG-CM     DATA-CM
MEV        ADEG       ARB-UNITS
 32.100     20.077    0.63596E-01
 32.100     25.083    0.24958
 32.100     28.660    0.50917
 32.100     33.680    0.71966
 32.100     38.119    0.76842
 32.100     42.487    0.68975
 32.100     47.328    0.58164
 32.100     52.182    0.49804
 32.100     53.620    0.43914
 32.100     57.029    0.39973
 32.100     61.374    0.28185
 32.100     65.695    0.11985
 32.100     70.538    0.16642E-01
 32.100     77.844    -.67097E-01
 32.100     85.664    -.10675
 32.100     94.983    -.97472E-01
 32.100     102.36    -.53772E-01
 32.100     108.81    0.83112E-01
 32.100     113.77    0.19557
 32.100     118.76    0.33744
 32.100     122.24    0.43038
 32.100     124.74    0.52337
 32.100     127.68    0.51830
 32.100     131.18    0.63084
 32.100     136.61    0.70406
 32.100     141.06    0.78224
 32.100     145.94    0.72804
 32.100     150.71    0.50720
 32.100     154.98    0.25697
 32.100     159.29    0.75370E-01
 35.150     10.606    -.15382
 35.150     15.471    -.13460
 35.150     20.829    -.81566E-01
 35.150     26.212    0.97063E-01
 35.150     26.222    0.15020
 35.150     30.633    0.32885
 35.150     31.611    0.35781
 35.150     36.478    0.38670
 35.150     41.823    0.37693
 35.150     47.178    0.41547
 35.150     52.548    0.53130
 35.150     58.395    0.59882
 35.150     64.176    0.33785
 35.150     68.006    0.43099E-01
 35.150     69.940    -.10077E-01
 35.150     75.254    -.17443
 35.150     80.096    -.27113
 35.150     81.557    -.25667
 35.150     85.438    -.29539
 35.150     86.899    -.28093
 35.150     92.246    -.28104
 35.150     92.736    -.26172
 35.150     97.600    -.24733
 35.150     103.46    -.97691E-01
 35.150     108.85    0.10992
 35.150     113.80    0.53009
 35.150     119.66    0.67490
 35.150     125.46    0.50571
 35.150     130.78    0.37518
 35.150     136.12    0.32676
 35.150     141.47    0.34115
 35.150     147.30    0.32654
 35.150     147.31    0.30239
 35.150     152.11    0.75252E-01
 35.150     152.61    0.12838
 35.150     157.43    -.60112E-01
 35.150     163.25    -.11820
 35.150     169.08    -.12314
 39.600     20.358    -.37842
 39.600     25.306    -.22997
 39.600     29.925    0.16801
 39.600     34.849    0.27808
 39.600     40.202    0.29694
 39.600     45.084    0.33983
 39.600     50.515    0.48345
 39.600     55.536    0.74705
 39.600     60.496    0.91469
 39.600     65.998    0.39613
 39.600     71.494    -.13202
 39.600     76.730    -.30029
 39.600     82.020    -.38218
 39.600     87.349    -.40170
 39.600     92.695    -.39243
 39.600     97.089    -.35431
 39.600     102.00    -.26824
 39.600     107.50    -.46695E-02
 39.600     112.25    0.59004
 39.600     116.84    0.94004
 39.600     121.53    0.68544
 39.600     127.19    0.41638
 39.600     132.44    0.27211
 39.600     137.75    0.21421
 39.600     143.58    0.22345
 39.600     148.38    0.13678
 39.600     153.50    -.21381
 39.600     159.72    -.36774
 44.900     9.6870    -.37465
 44.900     14.414    -.47605
 44.900     18.626    -.62071
 44.900     24.611    -.35179
 44.900     29.908    0.25875
 44.900     34.727    0.27280
 44.900     39.508    0.23874
 44.900     44.332    0.25760
 44.900     49.221    0.35823
 44.900     54.656    0.54060
 44.900     59.198    0.80964
 44.900     63.953    0.74191
 44.900     69.318    0.23635
 44.900     74.772    -.15857
 44.900     79.406    -.37542
 44.900     84.630    -.45762
 44.900     89.422    -.47725
 44.900     94.742    -.43919
 44.900     99.142    -.34814
 44.900     104.60    -.13690
 44.900     108.80    0.30054
 44.900     113.97    0.75233
 44.900     118.77    0.75195
 44.900     123.85    0.48214
 44.900     128.99    0.30373
 44.900     133.74    0.22638
 44.900     139.02    0.21633
 44.900     143.85    0.24481
 44.900     149.13    0.23477
 44.900     154.44    -.34776
 44.900     159.04    -.60791
 44.900     164.45    -.44959
 44.900     169.33    -.36338
 49.700     8.2952    -.35853
 49.700     11.150    -.41197
 49.700     15.414    -.51388
 49.700     19.657    -.63996
 49.700     24.116    0.60831E-01
 49.700     29.276    0.44725
 49.700     33.527    0.33083
 49.700     39.241    0.22880
 49.700     44.049    0.19938
 49.700     48.423    0.22802
 49.700     50.909    0.31002
 49.700     53.371    0.36300
 49.700     55.349    0.41602
 49.700     58.346    0.53183
 49.700     62.294    0.62821
 49.700     67.394    0.37148
 49.700     72.882    0.35089E-02
 49.700     77.470    -.28702
 49.700     80.738    -.42269
 49.700     84.555    -.48105
 49.700     95.204    -.46260
 49.700     99.119    -.40491
 49.700     102.13    -.27944
 49.700     106.73    0.24821E-01
 49.700     111.40    0.40161
 49.700     115.89    0.56080
 49.700     121.14    0.48299
 49.700     123.95    0.38120
 49.700     125.83    0.32301
 49.700     127.73    0.27450
 49.700     131.06    0.21619
 49.700     135.86    0.17226
 49.700     140.71    0.19603
 49.700     145.61    0.27298
 49.700     150.05    0.37899
 49.700     155.64    0.13190
 49.700     161.31    -.59393
 49.700     164.74    -.53136
 49.700     168.22    -.42043
 49.700     172.13    -.36757
ENDDATA            171
ENDSUBENT          184
SUBENT        F0074004   20050413   20050610                  F020
BIB                  3          4
REACTION   (2-HE-4(D,T)2-HE-3,SS,POL/DA,,ANA)
COMMENT    Axx compoments has to be obtained with a vertical
           scattering plane.
STATUS     (CURVE)Fig.8
ENDBIB               4
COMMON               2          3
ANG-ERR-D  ERR-DIG
ADEG       ARB-UNITS
 0.21       0.1
ENDCOMMON            3
DATA                 3        166
EN         ANG-CM     DATA-CM
MEV        ADEG       ARB-UNITS
 32.100     19.640    -.59868E-01
 32.100     24.935    -.60263E-01
 32.100     29.216    -.12728
 32.100     34.355    -.33250
 32.100     36.471    -1.3474
 32.100     38.473    -.61388
 32.100     43.098    -.86195
 32.100     47.274    -1.0671
 32.100     51.494    -1.2151
 32.100     53.861    -1.2677
 32.100     56.781    -1.2250
 32.100     61.331    -.93953
 32.100     66.018    -.47302
 32.100     71.115    -.10182
 32.100     76.663    0.23124
 32.100     84.947    0.36401
 32.100     94.093    0.36333
 32.100     102.18    0.23410
 32.100     108.62    -.16178
 32.100     113.08    -.62420
 32.100     118.06    -1.0390
 32.100     122.28    -1.1823
 32.100     125.16    -1.1872
 32.100     127.64    -1.1017
 32.100     131.63    -.92095
 32.100     135.60    -.75451
 32.100     140.60    -.50716
 32.100     145.13    -.25978
 32.100     149.59    -.88610E-01
 32.100     153.98    -.12715E-01
 32.100     159.25    -.41691E-01
 35.150     10.926    -.13181
 35.150     16.237    -.94169E-01
 35.150     21.567    -.32743E-01
 35.150     26.425    0.38237E-01
 35.150     31.658    -.19277E-01
 35.150     37.751    -.20056
 35.150     43.336    -.41512
 35.150     48.430    -.64390
 35.150     53.930    -.96312
 35.150     59.995    -1.1777
 35.150     64.637    -.78318
 35.150     70.927    -.13185
 35.150     75.491    0.16753
 35.150     81.820    0.27646
 35.150     86.651    0.31413
 35.150     92.426    0.33270
 35.150     97.675    0.29422
 35.150     103.84    0.20808
 35.150     108.86    -.11110
 35.150     115.05    -.76818
 35.150     120.17    -.96842
 35.150     125.68    -.68339
 35.150     130.69    -.42686
 35.150     136.13    -.23222
 35.150     141.09    -.37548E-01
 35.150     146.96    0.10472
 35.150     152.23    0.94781E-01
 35.150     157.43    -.10308E-01
 35.150     163.60    -.96443E-01
 35.150     168.87    -.11114
 39.600     20.734    -.11588
 39.600     25.425    0.15028
 39.600     30.802    0.22101
 39.600     35.830    0.44021E-01
 39.600     40.472    -.66206E-01
 39.600     46.000    -.22897
 39.600     51.501    -.41078
 39.600     56.821    -.72121
 39.600     61.655    -1.0363
 39.600     66.954    -.67973
 39.600     72.013    -.15157
 39.600     76.158    0.67018E-01
 39.600     82.500    0.14237
 39.600     87.796    0.15593
 39.600     93.079    0.15996
 39.600     97.868    0.15453
 39.600     102.56    0.82416E-01
 39.600     108.05    -.10893
 39.600     112.72    -.53838
 39.600     117.58    -.83922
 39.600     123.26    -.55413
 39.600     127.50    -.26885
 39.600     133.00    -.10762
 39.600     138.45    0.15503E-01
 39.600     143.41    0.13393
 39.600     148.52    0.35239
 39.600     153.20    0.27074
 39.600     159.45    -.58876E-01
 44.900     10.443    -.29524
 44.900     14.803    -.26238
 44.900     19.834    -.95674E-01
 44.900     24.962    0.47284
 44.900     30.163    0.42426
 44.900     35.084    0.17960
 44.900     39.704    0.59346E-01
 44.900     44.385    -.17860E-01
 44.900     49.491    -.13340
 44.900     54.500    -.31589
 44.900     59.811    -.62280
 44.900     64.390    -.77174
 44.900     70.051    -.49988
 44.900     73.795    -.22775
 44.900     79.312    -.56333E-01
 44.900     84.192    0.51568E-02
 44.900     89.024    0.33168E-01
 44.900     94.267    0.13285E-01
 44.900     99.462    -.40076E-01
 44.900     104.55    -.16518
 44.900     108.52    -.40971
 44.900     114.43    -.63060
 44.900     119.90    -.48787
 44.900     124.56    -.24936
 44.900     129.59    -.82648E-01
 44.900     134.51    0.75374E-02
 44.900     139.91    0.92872E-01
 44.900     143.90    0.20232
 44.900     148.58    0.46475
 44.900     154.44    0.54045
 44.900     159.34    -.53412E-01
 44.900     163.84    -.25975
 44.900     169.55    -.28927
 49.700     7.8924    -.28681
 49.700     11.247    -.30156
 49.700     15.686    -.22087
 49.700     19.834    0.12785E-01
 49.700     25.135    0.78152
 49.700     29.499    0.41779
 49.700     34.482    0.16390
 49.700     38.740    0.10125
 49.700     44.463    0.52759E-01
 49.700     48.710    -.19447E-01
 49.700     51.975    -.10587
 49.700     53.336    -.17294
 49.700     55.650    -.24969
 49.700     58.825    -.40778
 49.700     59.753    -.43657
 49.700     63.416    -.58994
 49.700     68.235    -.59053
 49.700     72.799    -.40950
 49.700     77.369    -.22369
 49.700     80.362    -.14282
 49.700     83.801    -.90676E-01
 49.700     87.704    -.52927E-01
 49.700     92.534    -.43965E-01
 49.700     95.390    -.72990E-01
 49.700     99.178    -.12602
 49.700     102.47    -.18855
 49.700     106.62    -.33721
 49.700     111.73    -.49554
 49.700     116.99    -.52964
 49.700     120.56    -.37238
 49.700     121.58    -.32472
 49.700     124.64    -.19129
 49.700     126.16    -.12935
 49.700     128.66    -.62754E-01
 49.700     132.12    0.13280E-01
 49.700     135.57    0.74979E-01
 49.700     140.95    0.13166
 49.700     146.29    0.16446
 49.700     150.76    0.26904
 49.700     156.33    0.87049
 49.700     161.14    0.90944E-01
 49.700     164.64    -.18666
 49.700     167.91    -.27308
 49.700     172.23    -.28317
ENDDATA            168
ENDSUBENT          181
SUBENT        F0074005   20050413   20050610                  F020
BIB                  3          4
REACTION   (2-HE-4(D,T)2-HE-3,SL,POL/DA,,ANA)
COMMENT    The measurement of Axz was made after carefully tuning
           the solenoid with a purely vector-polarized beam.
STATUS     (CURVE)Fig.9
ENDBIB               4
COMMON               3          3
EN         ANG-ERR-D  ERR-DIG
MEV        ADEG       ARB-UNITS
  35.15     0.29       0.1
ENDCOMMON            3
DATA                 2         30
ANG-CM     DATA-CM
ADEG       ARB-UNITS
 10.193    -.22295
 15.846    -.39016
 20.771    -.56473
 26.080    -.75749
 31.583    -.75337
 37.297    -.57059
 43.515    -.54453
 47.680    -.69000
 53.650    -.79885
 58.901    -.92599
 64.250    -.32764
 69.391    0.88407E-01
 74.447    0.18363
 81.470    0.12955
 86.657    0.75318E-01
 92.240    -.11695E-01
 97.070    -.76899E-01
 103.65    -.50809E-01
 109.42    0.77287E-01
 114.33    0.74851
 120.92     1.1902
 125.98    0.86254
 131.21    0.76091
 136.87    0.58641
 142.02    0.57956
 147.78    0.70401
 153.29    0.70449
 158.91    0.57373
 164.97    0.35552
 168.83    0.14076
ENDDATA             32
ENDSUBENT           45
SUBENT        F0074006   20050413   20050610                  F020
BIB                  2          2
REACTION   (2-HE-4(D,T)2-HE-3,20,POL/DA,,TAP)
STATUS     (CURVE)Fig.10
ENDBIB               2
COMMON               2          3
ANG-ERR-D  ERR-DIG
ADEG       ARB-UNITS
 0.19       0.15
ENDCOMMON            3
DATA                 3        162
EN         ANG-CM     DATA-CM
MEV        ADEG       ARB-UNITS
 32.100     21.024    0.46624E-02
 32.100     25.086    -.13122
 32.100     29.657    -.26243
 32.100     34.233    -.26244
 32.100     37.799    -.98470E-01
 32.100     42.893    0.13109
 32.100     47.478    0.35128
 32.100     51.552    0.51525
 32.100     54.098    0.59021
 32.100     56.640    0.59020
 32.100     60.703    0.47305
 32.100     65.779    0.26220
 32.100     70.348    0.70088E-01
 32.100     77.967    -.11266
 32.100     85.592    -.17828
 32.100     94.744    -.17831
 32.100     101.36    -.12211
 32.100     108.48    0.60588E-01
 32.100     113.58    0.30889
 32.100     118.16    0.50565
 32.100     122.74    0.54312
 32.100     124.77    0.48689
 32.100     126.80    0.42597
 32.100     132.39    0.22449
 32.100     136.96    0.46435E-01
 32.100     142.03    -.17847
 32.100     146.09    -.30499
 32.100     151.18    -.28627
 32.100     154.74    -.16446
 32.100     159.83    -.23921E-01
 35.150     10.330    0.19331
 35.150     15.949    0.15129
 35.150     21.580    0.76449E-01
 35.150     26.755    -.14375
 35.150     32.396    -.24671
 35.150     37.958    -.13402
 35.150     43.504    0.20874E-01
 35.150     49.057    0.15701
 35.150     54.099    0.29782
 35.150     59.161    0.38237
 35.150     64.790    0.31222
 35.150     70.475    0.92045E-01
 35.150     75.601    0.31252E-02
 35.150     81.721    -.15437E-01
 35.150     87.327    -.24638E-01
 35.150     92.430    -.47921E-01
 35.150     97.520    -.38385E-01
 35.150     103.64    -.61635E-01
 35.150     109.22    -.51076E-03
 35.150     114.77    0.14969
 35.150     119.84    0.20611
 35.150     125.47    0.13127
 35.150     131.62    0.33010E-01
 35.150     137.26    -.69960E-01
 35.150     141.89    -.19640
 35.150     147.54    -.29937
 35.150     153.09    -.16323
 35.150     158.61    0.47920E-01
 35.150     163.16    0.14652
 35.150     169.27    0.16078
 39.600     19.830    0.35674
 39.600     24.977    0.53187E-01
 39.600     30.635    -.26904
 39.600     35.144    -.23150
 39.600     40.644    -.15655
 39.600     45.138    -.81632E-01
 39.600     50.657    -.53407E-01
 39.600     55.669    -.15853E-01
 39.600     60.657    0.82445E-01
 39.600     65.654    0.15738
 39.600     71.169    0.19495
 39.600     76.207    0.16709
 39.600     81.235    0.16259
 39.600     86.257    0.17678
 39.600     90.284    0.16290
 39.600     95.320    0.13970
 39.600     100.85    0.13055
 39.600     106.40    0.84010E-01
 39.600     111.47    -.32634E-01
 39.600     116.52    -.79189E-01
 39.600     122.56    -.10235
 39.600     127.59    -.10217
 39.600     132.62    -.11602
 39.600     137.67    -.16257
 39.600     143.23    -.25584
 39.600     148.80    -.34443
 39.600     153.20    -.35879E-01
 39.600     158.60    0.30074
 44.900     9.1244    0.45409
 44.900     14.667    0.50573
 44.900     19.224    0.49184
 44.900     25.019    -.11145
 44.900     28.712    -.50897
 44.900     34.713    -.33568
 44.900     40.238    -.23726
 44.900     44.262    -.18099
 44.900     49.318    -.17614
 44.900     54.375    -.17597
 44.900     58.917    -.15243
 44.900     63.915    0.21085E-02
 44.900     68.403    0.16599
 44.900     73.931    0.25506
 44.900     78.470    0.28795
 44.900     83.522    0.30216
 44.900     88.075    0.29763
 44.900     89.090    0.28830
 44.900     94.658    0.27445
 44.900     99.215    0.26057
 44.900     104.80    0.19994
 44.900     109.91    0.64438E-01
 44.900     115.03    -.99129E-01
 44.900     119.12    -.20659
 44.900     124.67    -.18770
 44.900     129.22    -.17351
 44.900     134.79    -.18736
 44.900     139.86    -.23398
 44.900     144.96    -.33673
 44.900     150.08    -.51433
 44.900     154.52    -.22414
 44.900     159.32    0.45903
 44.900     164.37    0.48259
 44.900     169.44    0.44533
 49.700     6.8312    0.45014
 49.700     10.871    0.49746
 49.700     14.925    0.51648
 49.700     19.026    0.43650
 49.700     24.100    -.60999
 49.700     29.186    -.62392
 49.700     33.627    -.35499
 49.700     38.648    -.23691
 49.700     43.196    -.18957
 49.700     47.746    -.14695
 49.700     50.286    -.14685
 49.700     52.820    -.13731
 49.700     54.843    -.11837
 49.700     57.874    -.85238E-01
 49.700     62.920    -.19021E-01
 49.700     67.407    0.15562
 49.700     71.916    0.28310
 49.700     76.958    0.35875
 49.700     79.987    0.39659
 49.700     83.540    0.40146
 49.700     94.724    0.37835
 49.700     98.793    0.36437
 49.700     101.86    0.32678
 49.700     106.99    0.22326
 49.700     111.12    0.67846E-01
 49.700     115.74    -.21545E-01
 49.700     121.37    -.11561
 49.700     124.43    -.13434
 49.700     126.45    -.12954
 49.700     127.48    -.15779
 49.700     131.04    -.15764
 49.700     136.13    -.18100
 49.700     140.73    -.23739
 49.700     145.85    -.32205
 49.700     150.52    -.53874
 49.700     156.20    -.72238
 49.700     159.74    0.35275
 49.700     163.73    0.49908
 49.700     167.29    0.48980
 49.700     171.38    0.44753
ENDDATA            164
ENDSUBENT          175
SUBENT        F0074007   20050413   20050610                  F020
BIB                  2          2
REACTION   (2-HE-4(D,T)2-HE-3,22,POL/DA,,TAP)
STATUS     (CURVE)Fig.11
ENDBIB               2
COMMON               2          3
ANG-ERR-D  ERR-DIG
ADEG       ARB-UNITS
 0.39       0.15
ENDCOMMON            3
DATA                 3        162
EN         ANG-CM     DATA-CM
MEV        ADEG       ARB-UNITS
 32.100     20.681    -.28838E-01
 32.100     24.996    -.78392E-01
 32.100     29.758    -.16825
 32.100     34.000    -.29834
 32.100     38.762    -.38819
 32.100     43.077    -.43775
 32.100     47.901    -.46049
 32.100     51.756    -.48317
 32.100     54.666    -.47892
 32.100     56.628    -.45222
 32.100     61.578    -.33627
 32.100     66.588    -.15321
 32.100     71.074    -.14847E-01
 32.100     78.449    0.10539
 32.100     85.760    0.15404
 32.100     95.443    0.14882
 32.100     102.66    0.99040E-01
 32.100     109.30    -.58080E-01
 32.100     114.01    -.21505
 32.100     118.21    -.38540
 32.100     123.00    -.44842
 32.100     125.39    -.47545
 32.100     127.84    -.45327
 32.100     132.22    -.43123
 32.100     137.57    -.40480
 32.100     141.49    -.36036
 32.100     145.93    -.27122
 32.100     150.87    -.15974
 32.100     155.80    -.66159E-01
 32.100     160.20    -.26229E-01
 35.150     11.057    0.11371E-01
 35.150     15.852    0.67830E-02
 35.150     21.610    0.11042E-01
 35.150     26.873    -.29068E-01
 35.150     32.603    -.10026
 35.150     37.855    -.16700
 35.150     43.591    -.22488
 35.150     48.360    -.30048
 35.150     55.031    -.42496
 35.150     59.802    -.49613
 35.150     65.143    -.31876
 35.150     71.005    -.30446E-01
 35.150     76.332    0.10698
 35.150     82.108    0.16006
 35.150     87.392    0.18208
 35.150     92.189    0.18193
 35.150     98.421    0.16842
 35.150     104.15    0.10611
 35.150     109.85    -.53851E-01
 35.150     115.01    -.37358
 35.150     120.73    -.47140
 35.150     126.06    -.33841
 35.150     131.38    -.21874
 35.150     136.68    -.15233
 35.150     141.98    -.99238E-01
 35.150     148.23    -.55050E-01
 35.150     153.52    -.63927E-02
 35.150     158.33    0.28964E-01
 35.150     164.56    0.15454E-01
 35.150     169.36    0.10866E-01
 39.600     19.592    0.74097E-01
 39.600     24.861    0.10515
 39.600     30.663    0.17201E-01
 39.600     35.502    -.66374E-01
 39.600     40.322    -.10587
 39.600     45.630    -.16298
 39.600     50.951    -.25094
 39.600     56.309    -.42266
 39.600     61.653    -.56352
 39.600     66.340    -.29886
 39.600     71.976    -.77249E-02
 39.600     77.210    0.10267
 39.600     81.993    0.14693
 39.600     86.790    0.16033
 39.600     91.110    0.16489
 39.600     95.918    0.15185
 39.600     101.70    0.10798
 39.600     106.56    -.24082E-01
 39.600     112.46    -.32802
 39.600     117.34    -.51298
 39.600     123.04    -.35849
 39.600     127.77    -.19521
 39.600     133.49    -.10684
 39.600     138.27    -.53770E-01
 39.600     143.54    -.18311E-01
 39.600     148.78    0.65635E-01
 39.600     154.03    0.14517
 39.600     159.34    0.92472E-01
 44.900     9.9998    0.22480E-01
 44.900     14.754    0.62063E-01
 44.900     19.516    0.15450
 44.900     24.751    0.24253
 44.900     29.947    0.48660E-01
 44.900     34.684    -.26279E-01
 44.900     39.903    -.52773E-01
 44.900     44.649    -.74855E-01
 44.900     49.387    -.14098
 44.900     54.595    -.24676
 44.900     59.794    -.41421
 44.900     64.539    -.43629
 44.900     69.796    -.20731
 44.900     74.097    -.17960E-01
 44.900     79.336    0.92092E-01
 44.900     84.091    0.14049
 44.900     88.366    0.14924
 44.900     90.265    0.14922
 44.900     95.486    0.13594
 44.900     100.23    0.96237E-01
 44.900     104.96    -.72544E-03
 44.900     109.68    -.20340
 44.900     114.88    -.38846
 44.900     120.11    -.35770
 44.900     124.88    -.20799
 44.900     129.64    -.10675
 44.900     134.40    -.53948E-01
 44.900     139.15    -.27579E-01
 44.900     144.37    -.56205E-02
 44.900     149.61    0.73599E-01
 44.900     154.39    0.28937
 44.900     159.59    0.17038
 44.900     164.80    0.73410E-01
 44.900     170.02    0.24894E-01
 49.700     8.3825    0.15650E-01
 49.700     11.716    0.33160E-01
 49.700     16.008    0.77021E-01
 49.700     19.366    0.18683
 49.700     24.127    0.20431
 49.700     29.781    -.67909E-02
 49.700     34.051    -.46442E-01
 49.700     39.286    -.37765E-01
 49.700     44.041    -.42263E-01
 49.700     49.265    -.73145E-01
 49.700     51.632    -.11715
 49.700     54.002    -.15237
 49.700     55.894    -.19197
 49.700     58.729    -.26675
 49.700     63.464    -.35036
 49.700     67.763    -.28013
 49.700     73.036    -.11761
 49.700     77.827    0.18540E-01
 49.700     80.219    0.71233E-01
 49.700     84.509    0.11070
 49.700     95.450    0.11486
 49.700     99.722    0.79601E-01
 49.700     102.09    0.26805E-01
 49.700     107.29    -.10078
 49.700     112.00    -.25911
 49.700     116.74    -.31636
 49.700     121.52    -.22855
 49.700     124.87    -.16269
 49.700     126.31    -.12316
 49.700     128.22    -.96834E-01
 49.700     130.61    -.52931E-01
 49.700     135.85    -.22277E-01
 49.700     141.08    -.92040E-02
 49.700     145.83    -.26889E-01
 49.700     150.12    0.37863E-02
 49.700     155.41    0.21026
 49.700     160.16    0.20576
 49.700     163.94    0.10019
 49.700     168.21    0.42953E-01
 49.700     172.48    0.29674E-01
ENDDATA            164
ENDSUBENT          175
SUBENT        F0074008   20050413   20050610                  F020
BIB                  2          2
REACTION   (2-HE-4(D,T)2-HE-3,,DA)
STATUS     (CURVE)Fig.12
ENDBIB               2
COMMON               2          3
ANG-ERR-D  ERR-DIG
ADEG       MB/SR
 0.35       0.15
ENDCOMMON            3
DATA                 3        165
EN         ANG-CM     DATA-CM
MEV        ADEG       MB/SR
 32.100     25.339     1.8226
 32.100     29.178     1.1865
 32.100     34.183    0.89182
 32.100     38.503    0.81143
 32.100     43.416    0.77456
 32.100     47.704    0.76318
 32.100     52.629    0.70565
 32.100     53.890    0.64152
 32.100     56.337    0.64194
 32.100     61.224    0.65310
 32.100     65.444    0.76677
 32.100     70.857    0.97520
 32.100     77.443     1.4094
 32.100     93.904     1.6338
 32.100     101.96     1.2688
 32.100     109.46    0.84009
 32.100     113.84    0.65178
 32.100     118.15    0.61223
 32.100     123.02    0.64304
 32.100     124.84    0.66419
 32.100     127.88    0.70847
 32.100     132.12    0.79296
 32.100     137.01    0.80674
 32.100     141.29    0.80765
 32.100     145.53    0.88968
 32.100     149.68     1.2446
 32.100     154.39     2.0100
 35.150     9.8674     7.0857
 35.150     15.545     4.6227
 35.150     21.286     2.5328
 35.150     27.039     1.3444
 35.150     32.659     1.0279
 35.150     37.556     1.0623
 35.150     43.060     1.1156
 35.150     48.623    0.99968
 35.150     54.260    0.72881
 35.150     59.301    0.50656
 35.150     65.437    0.50731
 35.150     69.014    0.67564
 35.150     70.189    0.77959
 35.150     75.549     1.2173
 35.150     80.961     1.6479
 35.150     86.402     2.0606
 35.150     87.646     1.9654
 35.150     91.941     1.9675
 35.150     98.146     1.6288
 35.150     103.82     1.0626
 35.150     109.52    0.66101
 35.150     115.19    0.43814
 35.150     120.67    0.49028
 35.150     126.05    0.72998
 35.150     131.46     1.0040
 35.150     136.33     1.1056
 35.150     142.50     1.0067
 35.150     148.07    0.88786
 35.150     153.47     1.2407
 35.150     157.50     2.5364
 35.150     162.80     4.7160
 35.150     167.53     7.6005
 39.600     20.270     2.3822
 39.600     25.350     1.1344
 39.600     30.866     1.0167
 39.600     35.643     1.4636
 39.600     40.463     1.7990
 39.600     45.957     1.7448
 39.600     51.530     1.2733
 39.600     55.918    0.81865
 39.600     61.526    0.52646
 39.600     66.368    0.59794
 39.600     71.706     1.0244
 39.600     76.448     1.6734
 39.600     81.847     2.2978
 39.600     86.693     2.5689
 39.600     90.960     2.5709
 39.600     96.480     2.2679
 39.600     102.06     1.6290
 39.600     107.07    0.99899
 39.600     112.09    0.59356
 39.600     117.59    0.55776
 39.600     122.95    0.89699
 39.600     127.71     1.3756
 39.600     133.12     1.8014
 39.600     137.99     1.8609
 39.600     143.53     1.4931
 39.600     148.53    0.97534
 39.600     153.40    0.99177
 39.600     158.66     2.2227
 44.900     9.3570     10.297
 44.900     14.384     5.3620
 44.900     18.875     1.9978
 44.900     24.590    0.73275
 44.900     29.395     1.0247
 44.900     34.150     1.7912
 44.900     38.980     2.2405
 44.900     44.473     2.2069
 44.900     49.396     1.8242
 44.900     54.355     1.2857
 44.900     59.327    0.85026
 44.900     64.254    0.69169
 44.900     68.474    0.86512
 44.900     73.867     1.3313
 44.900     78.672     1.8618
 44.900     83.498     2.3663
 44.900     94.478     2.3702
 44.900     99.411     1.8677
 44.900     104.98     1.3377
 44.900     109.95    0.89883
 44.900     114.86    0.76701
 44.900     120.31    0.92941
 44.900     124.49     1.3851
 44.900     129.90     1.9684
 44.900     134.74     2.3849
 44.900     139.62     2.3867
 44.900     145.16     1.8511
 44.900     149.54     1.1303
 44.900     150.17     1.0438
 44.900     155.16    0.65807
 44.900     159.81     1.7687
 44.900     159.82     1.8553
 44.900     164.46     5.0665
 44.900     169.18     10.386
 49.700     7.8527     11.946
 49.700     11.594     7.9192
 49.700     14.798     3.8855
 49.700     19.271     1.5037
 49.700     23.726    0.62986
 49.700     29.061     1.1325
 49.700     33.199     1.8809
 49.700     39.237     2.2409
 49.700     43.502     2.1384
 49.700     48.408     1.7697
 49.700     51.487     1.4875
 49.700     53.340     1.3109
 49.700     55.185     1.1925
 49.700     58.272    0.97109
 49.700     58.894    0.91158
 49.700     63.178    0.80366
 49.700     66.832    0.77906
 49.700     72.262    0.92807
 49.700     77.058     1.2351
 49.700     79.460     1.4024
 49.700     83.074     1.6181
 49.700     87.918     1.7527
 49.700     90.968     1.6722
 49.700     95.237     1.5706
 49.700     98.913     1.3846
 49.700     101.98     1.2204
 49.700     106.90    0.94801
 49.700     111.19    0.82265
 49.700     116.05    0.83641
 49.700     119.66    0.98047
 49.700     120.85     1.0784
 49.700     123.85     1.2842
 49.700     125.65     1.4125
 49.700     127.45     1.6038
 49.700     130.46     1.8212
 49.700     135.27     2.2040
 49.700     140.12     2.3498
 49.700     145.64     1.9143
 49.700     150.01     1.1541
 49.700     155.64    0.58472
 49.700     159.70     1.3329
 49.700     163.74     3.4489
 49.700     167.82     7.3797
 49.700     171.37     11.323
ENDDATA            167
ENDSUBENT          178
ENDENTRY             8
