ENTRY            F0089   20050503   20050831                  F021
SUBENT        F0089001   20050503   20050831                  F021
BIB                 12         41
TITLE      The giant dipole resonance built on excited states in
           113,114Sn and level densities in the vicinity of the
           neutron separation energy.
AUTHOR     (A.Stolk,A.Balanda,M.N.Haraken,W.H.A.Hesselink,
           J.Penninga,H.Rijneveld)
INSTITUTE  (2NEDFUL)
REFERENCE  (J,NP/A,505,241,1989)
FACILITY   (ISOCY)
SAMPLE     5.2 mg/cm2 110Cd target, enriched to 96%, was placed
           at angle of  55 degrees with respect to beam axis.
           110Cd target contained 1.6% 111Cd and 1.1% 112Cd
           impurity. Contributions of these impurities to gamma
           ray spectra were determined in two additional runs
           using 4 mg/cm2 111Cd target and 5.2 mg/cm2 112Cd
           target.
DETECTOR   (NAICR) Prompt high-energy gamma-rays were detected
           with large (diameter 40 cm, length 40 cm) NaI(Tl)
           detector,consisting of 6 identical, optically-separated
           segments and a small-diameter(8 cm)detector, used as
           single-photon spectrometer. Delayed gamma-rays were
           detected with three NaI(Tl) detectors, two of which had
           diameters of 28 cm and lengths of 28 cm and  third one
           had diameter of 13 cm and length of 13 cm, placed as
           close to target as possible(10 cm).
           (GE) Ge detector was used for normalization of cross
           section.
METHOD     (GSPEC)
           (TOF)
MONITOR    (48-CD-112(A,2N)50-SN-114,,DE,G)Total efficiency for
           detection of gamma-rays depopulating 7- isomer in 114Sn
           was checked.
           Detector response function was determined at number of
           gamma-ray energies using 11B(P,G) and 12C(P,G)
           reactions at Ep=7.24 and 14.24 MeV.
           Absolute normalization of spectra was made using cross
           section for 2+ to 0+ transition in 112 Sn.
CORRECTION Spectra were corrected for contrbution of target
           impurities.
ERR-ANALYS (E-ERR-DIG)  Digitizing error
           (ERR-DIG)    Digitizing error
HISTORY    (20041004C)
ENDBIB              41
COMMON               3          3
EN-RSL     E-ERR-DIG  ERR-DIG
PER-CENT   MEV        PER-CENT
 7.1        0.02       0.1
ENDCOMMON            3
ENDSUBENT           48
SUBENT        F0089002   20050503   20050831                  F021
BIB                  2          2
REACTION   (48-CD-110(A,N)50-SN-113,,DE,G)
STATUS     (CURVE)Fig.5,7
ENDBIB               2
NOCOMMON             0          0
DATA                 3        249
EN         E          DATA
MEV        MEV        MB/MEV
 24.000     5.0556     1.7489
 24.000     5.1614     1.9697
 24.000     5.2791     2.3361
 24.000     5.3848     2.6310
 24.000     5.4911     2.9254
 24.000     5.6158     2.8625
 24.000     5.7215     3.2239
 24.000     5.8467     3.1144
 24.000     5.9681     3.3337
 24.000     6.0615     3.6113
 24.000     6.1957     3.9676
 24.000     6.3166     4.3018
 24.000     6.4394     4.4309
 24.000     6.5476     4.6804
 24.000     6.6732     4.4639
 24.000     6.7850     4.2555
 24.000     6.8675     4.2667
 24.000     6.9230     4.2197
 24.000     7.0073     4.0192
 24.000     7.1357     3.5495
 24.000     7.2476     3.3838
 24.000     7.3334     3.1015
 24.000     7.3884     3.1069
 24.000     7.4907     2.6379
 24.000     7.5727     2.6790
 24.000     7.7186     2.1362
 24.000     7.8442     2.0374
 24.000     7.9589     1.7985
 24.000     8.0721     1.6498
 24.000     8.1835     1.5931
 24.000     8.3147     1.3028
 24.000     8.4574     1.1363
 24.000     8.5550     1.0968
 24.000     8.6706    0.94369
 24.000     8.7825    0.89965
 24.000     8.9032    0.67223
 24.000     9.0251    0.71039
 24.000     9.1104    0.65951
 24.000     9.2511    0.60554
 24.000     9.3658    0.53453
 24.000     9.4861    0.40457
 24.000     9.5856    0.37097
 24.000     9.7410    0.33213
 24.000     9.8652    0.32919
 24.000     9.9692    0.18300
 24.000     10.077    0.28776
 24.000     10.188    0.27787
 24.000     10.317    0.16484
 24.000     10.432    0.10028
 24.000     10.561    0.18409
 24.000     10.669    0.19696
 24.000     10.760    0.15281
 24.000     10.903    0.13329
 24.000     11.022    0.15212
 24.000     11.151    0.13263
 24.000     11.267    0.76653E-01
 24.000     11.396    0.66832E-01
 24.000     11.491    0.70564E-01
 24.000     11.624    0.36823E-01
 24.000     11.737    0.72968E-01
 24.000     11.857    0.55939E-01
 24.000     11.950    0.60597E-01
 24.000     12.092    0.79701E-01
 24.000     12.220    0.47891E-01
 24.000     12.313    0.53226E-01
 24.000     12.396    0.52686E-01
 24.000     12.464    0.25079E-01
 24.000     12.578    0.32957E-01
 24.000     12.697    0.17637E-01
 24.000     12.818    0.27746E-01
 24.000     12.940    0.10024E-02
 24.000     13.054    0.58391E-02
 24.000     13.168    0.16364E-01
 24.000     13.252    0.33240E-01
 24.000     13.411    0.39984E-01
 24.000     13.518    0.20060E-01
 24.000     13.622    0.16390E-01
 24.000     13.739    0.94725E-02
 24.000     13.871    0.34952E-02
 24.000     13.955    0.15141E-01
 24.000     14.082    0.13895E-01
 24.000     14.201    0.11561E-02
 24.000     14.312    0.15511E-01
 24.000     14.433    0.16817E-01
 24.000     14.554    0.58924E-02
 24.000     14.663    0.27946E-01
 24.000     14.788    0.18606E-01
 24.000     14.908    0.10007E-02
 24.000     15.018    0.13951E-01
 24.000     15.134    0.11851E-01
 24.000     15.363    0.98947E-03
 24.000     15.610    0.99727E-03
 24.000     15.858    0.99233E-03
 24.000     16.147    0.98871E-03
 24.000     16.313    0.92758E-02
 24.000     16.450    0.98552E-03
 24.000     16.547    0.93449E-02
 24.000     16.560    0.98897E-03
 24.000     16.767    0.92904E-02
 24.000     16.874    0.69389E-02
 24.000     17.014    0.99053E-03
 24.000     17.121    0.10546E-01
 24.000     17.241    0.11731E-01
 24.000     17.370    0.69590E-02
 24.000     17.496    0.99296E-03
 24.000     17.675    0.99861E-03
 24.000     17.813    0.99020E-03
 24.000     17.946    0.34539E-02
 24.000     18.084    0.34248E-02
 24.000     18.198    0.10024E-02
 24.000     18.289    0.11430E-02
 24.000     18.446    0.98469E-03
 24.000     18.583    0.98900E-03
 24.000     18.790    0.99549E-03
 24.000     18.993    0.22784E-02
 24.000     19.148    0.99402E-03
 24.000     19.354    0.98780E-03
 24.000     19.473    0.11419E-02
 24.000     19.602    0.99559E-03
 24.000     19.740    0.98720E-03
 24.000     19.831    0.11257E-02
 24.000     19.927    0.11291E-02
 24.000     20.042    0.99673E-03
 26.000     5.0622     1.8270
 26.000     5.1598     2.6014
 26.000     5.2647     2.6941
 26.000     5.3864     3.4347
 26.000     5.5040     3.5131
 26.000     5.6248     4.2647
 26.000     5.7433     4.5809
 26.000     5.8591     4.2485
 26.000     5.9656     4.7935
 26.000     6.0830     4.8432
 26.000     6.2015     5.2023
 26.000     6.3160     4.4833
 26.000     6.4354     5.0572
 26.000     6.5634     4.4653
 26.000     6.6415     4.4596
 26.000     6.7820     3.8416
 26.000     6.9124     3.8807
 26.000     7.0152     3.5998
 26.000     7.0895     2.9200
 26.000     7.1544     2.8814
 26.000     7.2449     2.7735
 26.000     7.3603     2.5100
 26.000     7.4752     2.2167
 26.000     7.5771     1.9580
 26.000     7.6925     1.7721
 26.000     7.8348     1.6835
 26.000     7.9363     1.4511
 26.000     8.0519     1.3294
 26.000     8.1810     1.2479
 26.000     8.3221     1.1152
 26.000     8.4254     1.0601
 26.000     8.5522    0.88045
 26.000     8.6712    0.96916
 26.000     8.7886    0.97922
 26.000     8.9204    0.52339
 26.000     9.0117    0.52905
 26.000     9.1024    0.51550
 26.000     9.2450    0.49576
 26.000     9.3613    0.47118
 26.000     9.5006    0.38179
 26.000     9.6199    0.42543
 26.000     9.7218    0.37579
 26.000     9.8353    0.30838
 26.000     9.9658    0.31152
 26.000     10.081    0.27850
 26.000     10.208    0.23996
 26.000     10.324    0.21452
 26.000     10.426    0.19900
 26.000     10.560    0.23282
 26.000     10.670    0.15902
 26.000     10.787    0.16067
 26.000     10.899    0.11955
 26.000     11.031    0.12997
 26.000     11.151    0.15778
 26.000     11.254    0.14636
 26.000     11.387    0.84188E-01
 26.000     11.513    0.13215
 26.000     11.633    0.76030E-01
 26.000     11.744    0.10957
 26.000     11.867    0.36338E-01
 26.000     11.986    0.41495E-01
 26.000     12.087    0.70126E-01
 26.000     12.212    0.52169E-01
 26.000     12.318    0.57437E-01
 26.000     12.449    0.59459E-01
 26.000     12.562    0.46462E-01
 26.000     12.670    0.57813E-01
 26.000     12.799    0.12958E-01
 26.000     12.894    0.67539E-01
 26.000     13.016    0.42854E-01
 26.000     13.155    0.96162E-03
 26.000     13.254    0.12706E-01
 26.000     13.363    0.66211E-01
 26.000     13.474    0.11909E-01
 26.000     13.604    0.58428E-02
 26.000     13.709    0.24728E-01
 26.000     13.828    0.27219E-01
 26.000     13.948    0.15853E-01
 26.000     14.092    0.97055E-03
 26.000     14.209    0.95692E-03
 26.000     14.315    0.35351E-01
 26.000     14.431    0.16722E-01
 26.000     14.534    0.15703E-01
 26.000     14.658    0.10855E-01
 26.000     14.774    0.20728E-01
 26.000     14.890    0.96859E-02
 26.000     15.043    0.96743E-03
 26.000     15.134    0.96600E-03
 26.000     15.248    0.13566E-01
 26.000     15.251    0.96416E-03
 26.000     15.483    0.68093E-02
 26.000     15.616    0.97026E-03
 26.000     15.727    0.11622E-01
 26.000     15.844    0.28386E-02
 26.000     15.956    0.87377E-02
 26.000     16.085    0.96290E-03
 26.000     16.188    0.77019E-02
 26.000     16.320    0.97105E-03
 26.000     16.416    0.10679E-01
 26.000     16.556    0.88674E-02
 26.000     16.665    0.29057E-02
 26.000     16.801    0.96347E-03
 26.000     16.912    0.28241E-02
 26.000     17.062    0.97121E-03
 26.000     17.192    0.96916E-03
 26.000     17.365    0.48630E-02
 26.000     17.505    0.97612E-03
 26.000     17.596    0.97468E-03
 26.000     17.717    0.48353E-02
 26.000     17.843    0.97076E-03
 26.000     17.935    0.96933E-03
 26.000     17.951    0.48169E-02
 26.000     18.181    0.38031E-02
 26.000     18.443    0.97319E-03
 26.000     18.612    0.97052E-03
 26.000     18.781    0.96785E-03
 26.000     18.950    0.96519E-03
 26.000     19.120    0.97439E-03
 26.000     19.236    0.18836E-02
 26.000     19.380    0.97028E-03
 26.000     19.485    0.98056E-03
 26.000     19.601    0.19188E-02
 26.000     19.732    0.97662E-03
 26.000     19.836    0.97497E-03
 26.000     19.947    0.28930E-02
 26.000     20.045    0.98364E-03
ENDDATA            251
ENDSUBENT          258
SUBENT        F0089003   20050503   20050831                  F021
BIB                  3          3
REACTION   (48-CD-110(A,G)50-SN-114,,DE)
ERR-ANALYS (DATA-ERR)  Error from the graphic bars
STATUS     (CURVE)Fig.6,8
ENDBIB               3
NOCOMMON             0          0
DATA                 5        163
EN         E          E-ERR-DIG  DATA       DATA-ERR
MEV        MEV        MEV        MU-B/MEV   MU-B/MEV
 24.000     8.1116    0.87586E-01 26.730     6.6220
 24.000     8.4679    0.10942     14.580     5.7308
 24.000     8.8149    0.98505E-01 12.558     4.7863
 24.000     9.1687    0.87586E-01 3.6365     4.1176
 24.000     9.5090    0.98505E-01 16.417     3.6726
 24.000     9.8520    0.10942     18.012     3.2832
 24.000     10.218    0.10942     14.156     2.6701
 24.000     10.557    0.10966     19.146     2.1150
 24.000     10.914    0.98505E-01 14.732     1.7244
 24.000     11.267    0.98274E-01 21.893     1.6688
 24.000     11.491                20.471     2.7825
 24.000     11.603                27.717     2.7825
 24.000     11.737                13.819     2.5044
 24.000     11.850                21.010     2.6145
 24.000     11.974                17.350     2.4476
 24.000     12.082                20.312     2.3931
 24.000     12.202                20.213     2.3375
 24.000     12.309                20.781     2.1706
 24.000     12.423                22.407     2.2263
 24.000     12.554                19.695     2.1138
 24.000     12.675                19.429     1.8357
 24.000     12.785                22.057     2.1695
 24.000     12.904                24.852     2.1138
 24.000     13.032                17.687     1.8357
 24.000     13.149                18.423     2.1138
 24.000     13.264                14.373     1.7812
 24.000     13.394                12.105     1.8913
 24.000     13.493                14.509     1.7244
 24.000     13.615                16.803     1.8369
 24.000     13.740                15.537     1.7801
 24.000     13.860                13.045     1.5019
 24.000     13.982                7.2152     1.4463
 24.000     14.088                13.404     1.4475
 24.000     14.211                10.078     1.3907
 24.000     14.334                9.3122     1.3350
 24.000     14.444                6.4302     1.3362
 24.000     14.574                6.8336     1.1125
 24.000     14.689                8.0147     1.4475
 24.000     14.806                6.2464     1.0013
 24.000     14.922                7.0937     1.0569
 24.000     15.039                5.2142     1.1125
 24.000     15.156                3.5571    0.77878
 24.000     15.271                4.5713    0.77878
 24.000     15.374                6.0850     1.0013
 24.000     15.499                5.0966    0.72315
 24.000     15.610                4.6634    0.66752
 24.000     15.730                2.0050    0.72315
 24.000     15.840                4.5212    0.61190
 24.000     15.954                3.2535    0.77995
 24.000     16.079                4.8251    0.66752
 24.000     16.198                4.9493    0.61190
 24.000     16.317                2.6804    0.72315
 24.000     16.437                2.7489    0.50064
 24.000     16.553                1.0919    0.66870
 24.000     16.674               0.93789    0.55627
 24.000     16.784               0.78276    0.61190
 24.000     16.902                1.1851    0.55627
 24.000     17.017                2.5330    0.66752
 24.000     17.135               0.31971    0.50182
 24.000     17.245               0.10895
 24.000     17.363               0.62252
 24.000     17.491                1.4710
 24.000     17.590                1.2591
 24.000     17.712               0.77137    0.33494
 24.000     17.846               0.22920
 24.000     17.950                1.3535    0.44502
 24.000     18.064               0.36395
 24.000     18.183               0.48812
 24.000     18.303               0.66793
 24.000     18.422               0.90336
 24.000     18.534               0.30321
 24.000     18.653               0.42739
 24.000     18.782                1.1090
 24.000     18.893               0.62011
 24.000     19.005               0.19966E-01
 24.000     19.131                1.0910
 24.000     19.244               0.26832
 24.000     19.365               0.11436
 24.000     19.474               0.70484E-01
 24.000     19.603               0.69648
 24.000     19.710                1.1532
 24.000     19.833               0.55427
 24.000     19.955               0.66550E-01
 26.000     8.7954    0.10945     33.132     5.8222
 26.000     9.4923    0.10945     28.271     4.5331
 26.000     9.8577    0.10978     23.068     4.0300
 26.000     10.214    0.10945     18.203     3.2457
 26.000     10.574    0.98474E-01 15.911     2.7985
 26.000     10.924    0.98799E-01 15.522     2.2954
 26.000     11.261    0.10945     20.563     2.0701
 26.000     11.520                10.285     3.0204
 26.000     11.625                17.039     2.9662
 26.000     11.749                13.832     3.0780
 26.000     11.856                19.019     2.7985
 26.000     11.974                22.414     2.7985
 26.000     12.096                15.010     2.6867
 26.000     12.215                14.601     2.8544
 26.000     12.330                13.688     2.7968
 26.000     12.446                16.636     2.3496
 26.000     12.560                19.249     2.7426
 26.000     12.693                15.648     2.5749
 26.000     12.794                21.564     2.3513
 26.000     12.912                15.391     2.3496
 26.000     13.049                14.419     2.3513
 26.000     13.150                22.349     1.9040
 26.000     13.256                17.913     1.9583
 26.000     13.389                12.466     2.0158
 26.000     13.497                15.975     2.1276
 26.000     13.610                16.517     2.0142
 26.000     13.737                13.756     2.0701
 26.000     13.850                14.243     1.7906
 26.000     13.968                13.833     1.7906
 26.000     14.068                17.791     1.7906
 26.000     14.190                17.885     1.8465
 26.000     14.319                9.9200     1.8465
 26.000     14.428                9.7917     1.4535
 26.000     14.546                9.2704     1.4551
 26.000     14.675                6.8451     1.1756
 26.000     14.783                8.4514     1.2874
 26.000     14.904                8.4891     1.3992
 26.000     15.019                11.158     1.1740
 26.000     15.144                8.1733     1.0638
 26.000     15.252                5.8631     1.0622
 26.000     15.377                6.6276    0.78430
 26.000     15.505                4.0346    0.78430
 26.000     15.606                8.2717     1.0063
 26.000     15.741                3.1597    0.84021
 26.000     15.840                5.1031    0.55904
 26.000     15.971                3.0691    0.72840
 26.000     16.078                4.3959    0.78265
 26.000     16.208                4.0407    0.67249
 26.000     16.322                4.8069    0.61659
 26.000     16.442                2.7186    0.67084
 26.000     16.563                2.7005    0.56069
 26.000     16.676                1.3965    0.78265
 26.000     16.785                3.2265    0.78430
 26.000     16.915                2.8153    0.72675
 26.000     17.029                3.4697    0.72675
 26.000     17.139                1.6626    0.72675
 26.000     17.255                2.7642    0.61494
 26.000     17.376               0.89953    0.50313
 26.000     17.489                1.3303    0.56069
 26.000     17.610                1.4239    0.33707
 26.000     17.726               0.56719
 26.000     17.853                1.7230    0.56069
 26.000     17.965               0.13954
 26.000     18.087               0.34500
 26.000     18.214                1.3890    0.39133
 26.000     18.308               0.59150
 26.000     18.430               0.74105
 26.000     18.547               0.10795
 26.000     18.660               0.59458
 26.000     18.790               0.29525
 26.000     18.915                1.0038
 26.000     19.026                1.2109
 26.000     19.141               0.24242
 26.000     19.254               0.67314
 26.000     19.376               0.93450
 26.000     19.498                1.0841
 26.000     19.613               0.17143
 26.000     19.724               0.37854
 26.000     19.834               0.25023
 26.000     19.955               0.28797
ENDDATA            165
ENDSUBENT          173
ENDENTRY             3
