ENTRY            F0098   19990409   19990427
SUBENT        F0098001   19990409   19990427
BIB                  8         10
TITLE      The excited states of 10B
AUTHOR     (A.A.FIFE,G.C.NEILSON,W.K.DAWSON)
INSTITUTE  (1CANALA)
REFERENCE  (J,NP/A,91,164,196701)
SAMPLE     The 9Be target consisted of a thin film of beryllium
           metal vacuum deposited on a molybdenum foil
METHOD     (TOF,PHD)
FACILITY   (VDG)
HISTORY    (19821112C)
           (19990407A) CNPD: corrected 4-dig. year
ENDBIB              10
NOCOMMON
ENDSUBENT           13
SUBENT        F0098002   19990409   19990427
BIB                  4          6
REACTION   (4-BE-9(D,N)5-B-10,PAR,DA,,REL,EXP)
ERR-ANALYS (ANG-ERR) Digitizing error
           (DATA-ERR) From graphic bars (statistical) and
           digitizing
STATUS     (CURVE) fig 4,5,6
EN-SEC     (E-LVL,5-B-10)
ENDBIB               6
COMMON               2          3
EN         ANG-ERR
MEV        ADEG
  5.540     0.5
ENDCOMMON            3
DATA                 4        175
ANG-CM     E-LVL      DATA-CM    DATA-ERR
ADEG       MEV        ARB-UNITS  ARB-UNITS
     0.0373     5.16      57.17       9.119
     0.138      0.     0.2855E+06 0.3813E+05
     0.3134     1.74    5571.       744.1
     0.3493     4.77   0.9361E+05 0.1226E+05
     0.3507     2.15     410.6       78.78
     0.4264     5.11    9677.       241.7
     0.5334     0.72   0.2989E+05  3992.
     0.6007     6.14     883.2      116.8
     0.7237     3.59      11.1        0.2818
     1.075      6.03   0.1008E+05  1619.
     1.255      5.93   0.1000E+07 0.2516E+05
     4.644      2.15     477.3       63.75
     5.029      3.59      11.67       1.231
     5.331      6.03    8690.      2178.
     5.338      1.74    5857.      1124.
     5.46       5.11    8786.       219.4
     5.521      0.72   0.3562E+05  6835.
     5.76       5.16      58.9       13.88
     6.054      4.77   0.1011E+06 0.1901E+05
     6.245      0.     0.3955E+06 0.5282E+05
     6.296      6.14     800.       152.
     6.955      5.93   0.9760E+06 0.4967E+05
     6.964      5.93   0.9287E+06 0.1484E+06
     8.908      1.74    6475.      1051.
     9.684      2.15     477.3       91.57
     9.736      0.72   0.5060E+05  6759.
    10.48       0.     0.5343E+06 0.4174E+05
    10.8        3.59      11.1        0.8673
    11.27       5.16     101.3       13.3
    11.32       6.14     883.9      142.2
    11.39       5.11    4753.       118.7
    11.69       6.03    6140.      1539.
    11.82       4.77   0.8737E+05 0.1144E+05
    12.65       5.93   0.9291E+06 0.1228E+06
    12.67       5.93   0.8412E+06 0.7963E+05
    14.62       1.74    7718.       195.9
    15.44       0.72   0.6184E+05  6524.
    16.08       4.77   0.9425E+05 0.1237E+05
    16.15       0.     0.7218E+06 0.3712E+05
    16.36       5.16      77.38      10.13
    16.52       5.11    3210.        80.17
    16.65       3.59       8.425      0.2139
    16.85       2.15     527.6       85.66
    17.38       6.03    5292.      1164.
    17.66       5.93   0.8844E+06 0.6348E+05
    17.76       6.14     976.8      102.1
    18.38       5.93   0.9295E+06 0.9702E+05
    20.29       1.74   0.1017E+05   258.2
    21.71       2.15     987.5       25.07
    21.8        0.72   0.9237E+05  2345.
    21.82       0.     0.9752E+06 0.2476E+05
    21.83       4.77   0.8559E+05  6574.
    22.05       6.14    1002.        77.6
    22.35       3.59      10.04       0.255
    22.39       5.11    2064.        51.55
    22.97       5.16      46.22       4.793
    23.81       6.03    5295.      1164.
    23.94       0.72   0.9712E+05  2466.
    24.08       5.93   0.8420E+06 0.8799E+05
    24.77       5.93   0.7624E+06 0.5481E+05
    26.1        1.74    8748.       222.1
    26.14       0.     0.9752E+06 0.2476E+05
    26.78       2.15     871.2       22.12
    27.39       5.16      31.2        5.891
    27.47       4.77   0.1071E+06  2675.
    27.66       5.11     916.3      119.7
    28.13       3.59       9.314      0.2365
    29.19       6.14     977.8      157.2
    29.52       6.03    5297.      1494.
    29.72       5.93   0.6098E+06 0.8064E+05
    29.73       5.93   0.5660E+06 0.7846E+05
    31.15       2.15     749.5       79.07
    31.21       1.74    6808.       350.1
    31.22       0.72   0.7558E+05  7973.
    31.94       0.     0.8390E+06 0.8851E+05
    33.24       5.16      21.08       2.186
    33.6        5.11     483.7       76.99
    33.9        4.77   0.1048E+06  2617.
    33.98       3.59       7.069      0.1795
    34.15       6.14     801.8      176.3
    34.44       6.03    3561.       783.1
    34.62       5.93   0.3445E+06 0.5541E+05
    35.31       5.93   0.3119E+06 0.5623E+05
    37.04       0.72   0.6184E+05  3180.
    37.08       1.74    4793.       778.1
    37.75       0.     0.7040E+06 0.1787E+05
    38.45       2.15     527.6       55.66
    38.91       4.77   0.1024E+06  2559.
    39.01       5.16      17.78       4.425
    39.05       3.59       6.395      0.1624
    39.34       5.11     450.2       84.7
    39.56       5.93   0.2558E+06 0.2673E+05
    40.05       6.03    2012.       908.7
    41.32       6.14     886.1      142.4
    48.14       1.74    1943.       431.7
    48.58       2.15     442.7       46.7
    48.72       0.     0.4055E+06 0.7780E+05
    48.81       0.72   0.2637E+05  3522.
    48.91       4.77   0.1029E+06  2569.
    49.25       5.11     578.6       92.29
    50.05       6.03    2064.       648.8
    50.57       5.16      12.34       2.691
    50.6        3.59       5.784      0.6102
    51.28       6.14     745.3       77.88
    51.58       5.93   0.1342E+06 0.2157E+05
    63.25       0.     0.2582E+06 0.2017E+05
    64.1        1.74    1301.       370.8
    64.48       2.15     371.4       39.18
    64.93       5.11     658.7       16.45
    65.64       0.72   0.1069E+05  1428.
    65.77       3.59       4.733      0.6322
    66.05       4.77   0.1036E+06  2587.
    66.6        5.16       4.863      1.063
    67.9        5.93   0.8592E+05 0.1381E+05
    67.92       5.93   0.7779E+05  8129.
    68.71       6.03    3233.       338.1
    79.14       0.     0.2166E+06 0.3517E+05
    79.36       0.72    9198.      1493.
    79.92       1.74    1403.       399.8
    80.36       2.15     319.5       33.71
    81.64       3.59       4.281      0.4517
    81.73       4.77   0.1179E+06  2946.
    82.19       5.11     469.7      102.1
    82.32       5.16       4.894      1.069
    83.64       5.93   0.8603E+05 0.1551E+05
    83.99       6.14     345.9       55.64
    84.38       5.93   0.9741E+05 0.1018E+05
   103.8        0.72    9671.      1020.
   104.4        0.     0.1864E+06 0.2489E+05
   104.6        4.77   0.1052E+06  2629.
   104.6        1.74     613.3      174.8
   104.9        2.15     261.5       27.58
   106.2        3.59       3.503      0.7781
   106.8        5.11     185.8       29.64
   107.9        5.16       7.711      0.39
   108.5        5.93   0.4990E+05  8020.
   108.6        6.03    2180.       479.4
   109.6        6.14     227.2       30.06
   113.9        0.72    9671.      1292.
   114.2        2.15     371.4       49.61
   114.4        0.     0.2648E+06 0.2793E+05
   114.7        1.74     788.       276.6
   116.         4.77   0.1167E+06  2915.
   116.2        3.59       4.502      0.6012
   116.7        5.11     257.1       26.66
   117.8        5.93   0.5516E+05  2811.
   118.         5.16       5.759      0.9186
   118.7        6.03    2661.       585.3
   119.6        6.14     205.9       15.91
   122.6        0.72    8748.      1678.
   122.9        0.     0.3236E+06 0.5253E+05
   123.2        1.74    1038.       138.7
   123.5        2.15     353.3       67.78
   124.5        4.77   0.1392E+06  3476.
   124.8        3.59       4.733      0.4993
   125.2        5.11     271.1       51.09
   127.9        5.93   0.6569E+05 0.1248E+05
   128.2        6.14     216.5       54.27
   135.9        0.     0.3236E+06 0.3414E+05
   136.1        1.74    1334.       256.
   137.         0.72    8748.      1420.
   137.9        2.15     453.9       73.69
   139.         4.77   0.8981E+05  2243.
   139.3        3.59       3.777      0.5045
   140.8        5.93   0.7634E+05 0.1010E+05
   141.         6.14     156.9       44.28
   147.4        0.     0.3156E+06 0.4215E+05
   149.8        0.72   0.1340E+05  1790.
   150.6        4.77   0.5375E+05  8611.
   150.6        1.74    1065.       172.8
   150.8        2.15     410.6       43.32
   152.         5.11     112.8       21.21
   152.3        3.59       3.416      0.4563
   153.6        5.93   0.6749E+05 0.1485E+05
   153.8        5.16       4.567      1.571
ENDDATA            177
ENDSUBENT          192
ENDENTRY             2
