ENTRY            13778   20030827   20031024
SUBENT        13778001   20030827   20031024
BIB                  9         14
INSTITUTE  (1USAANL,1USAUAZ)
REFERENCE  (J,ANE,29,1241,200206)
           (R,ANL-NDM-153,200106)
AUTHOR     (A.B.Smith)
TITLE      The Interaction of fast neutrons with hafnium
FACILITY   (DYNAM,1USAANL)
METHOD     (TOF)
ERR-ANALYS (DATA-ERR) Uncertainties are best estimate of total
            error, combining systematic and statistical
            uncertainties.
STATUS     Data received by email from A. Smith, 20 November 2001.
           (APRVD) Approved by A. Smith, 26 November 2001.
HISTORY    (20011120C) VM
           (20030827A) Reference updated.
ENDBIB              14
NOCOMMON             0          0
ENDSUBENT           17
SUBENT        13778002   20011126   20020117
BIB                  4          4
REACTION   (72-HF-0(N,TOT),,SIG)
SAMPLE     Metallic hafnium; chemical purity > 98%.
DETECTOR   (SCIN) Liquid scintillator.
CORRECTION Corrected for inscattering (negligible) and dead time.
ENDBIB               4
NOCOMMON             0          0
DATA                 3        138
EN         DATA       DATA-ERR
MEV        B          B
 0.7498E+00 0.7538E+01 0.6882E-01
 0.8008E+00 0.7458E+01 0.7134E-01
 0.8515E+00 0.7526E+01 0.7237E-01
 0.9020E+00 0.7396E+01 0.6884E-01
 0.9584E+00 0.7395E+01 0.7937E-01
 0.1008E+01 0.7437E+01 0.7752E-01
 0.1058E+01 0.7369E+01 0.7888E-01
 0.1108E+01 0.7350E+01 0.7763E-01
 0.1163E+01 0.7361E+01 0.7783E-01
 0.1163E+01 0.7275E+01 0.7523E-01
 0.1212E+01 0.7242E+01 0.7699E-01
 0.1212E+01 0.7388E+01 0.7384E-01
 0.1261E+01 0.7329E+01 0.7874E-01
 0.1261E+01 0.7408E+01 0.7431E-01
 0.1315E+01 0.7487E+01 0.7818E-01
 0.1315E+01 0.7522E+01 0.7627E-01
 0.1364E+01 0.7336E+01 0.7959E-01
 0.1364E+01 0.7365E+01 0.7477E-01
 0.1418E+01 0.7426E+01 0.8029E-01
 0.1418E+01 0.7328E+01 0.7369E-01
 0.1466E+01 0.7578E+01 0.7990E-01
 0.1466E+01 0.7372E+01 0.7426E-01
 0.1519E+01 0.7129E+01 0.7865E-01
 0.1567E+01 0.7317E+01 0.8060E-01
 0.1620E+01 0.7199E+01 0.8038E-01
 0.1620E+01 0.7227E+01 0.8675E-01
 0.1667E+01 0.7260E+01 0.8339E-01
 0.1667E+01 0.7288E+01 0.8889E-01
 0.1719E+01 0.7256E+01 0.8559E-01
 0.1719E+01 0.7377E+01 0.8880E-01
 0.1766E+01 0.7270E+01 0.9272E-01
 0.1772E+01 0.7440E+01 0.8442E-01
 0.1818E+01 0.7331E+01 0.9247E-01
 0.1824E+01 0.7445E+01 0.8431E-01
 0.1870E+01 0.7393E+01 0.8365E-01
 0.1870E+01 0.7547E+01 0.9211E-01
 0.1916E+01 0.7292E+01 0.8339E-01
 0.1922E+01 0.7202E+01 0.7991E-01
 0.1967E+01 0.7482E+01 0.9405E-01
 0.1973E+01 0.7174E+01 0.7911E-01
 0.2018E+01 0.7292E+01 0.9328E-01
 0.2024E+01 0.7066E+01 0.8548E-01
 0.2069E+01 0.7357E+01 0.9547E-01
 0.2075E+01 0.7093E+01 0.8748E-01
 0.2120E+01 0.7498E+01 0.9481E-01
 0.2126E+01 0.7487E+01 0.8900E-01
 0.2171E+01 0.7276E+01 0.9952E-01
 0.2204E+01 0.7598E+01 0.9159E-01
 0.2221E+01 0.7447E+01 0.1002E+00
 0.2227E+01 0.7533E+01 0.1052E+00
 0.2271E+01 0.7347E+01 0.1004E+00
 0.2277E+01 0.7409E+01 0.1019E+00
 0.2321E+01 0.7402E+01 0.1029E+00
 0.2321E+01 0.7317E+01 0.1039E+00
 0.2371E+01 0.7186E+01 0.1029E+00
 0.2377E+01 0.7037E+01 0.1033E+00
 0.2421E+01 0.7441E+01 0.1060E+00
 0.2426E+01 0.7203E+01 0.1027E+00
 0.2470E+01 0.7093E+01 0.1060E+00
 0.2475E+01 0.6945E+01 0.1064E+00
 0.2519E+01 0.7261E+01 0.1023E+00
 0.2525E+01 0.7387E+01 0.1077E+00
 0.2573E+01 0.7081E+01 0.1087E+00
 0.2617E+01 0.7401E+01 0.1009E+00
 0.2622E+01 0.7126E+01 0.1128E+00
 0.2622E+01 0.7414E+01 0.1067E+00
 0.2665E+01 0.7112E+01 0.9784E-01
 0.2676E+01 0.6903E+01 0.1124E+00
 0.2714E+01 0.7147E+01 0.9546E-01
 0.2725E+01 0.7215E+01 0.1174E+00
 0.2767E+01 0.7089E+01 0.9267E-01
 0.2773E+01 0.7321E+01 0.9376E-01
 0.2815E+01 0.7055E+01 0.9288E-01
 0.2821E+01 0.7025E+01 0.9024E-01
 0.2863E+01 0.7268E+01 0.8972E-01
 0.2874E+01 0.7268E+01 0.8737E-01
 0.2916E+01 0.7004E+01 0.8616E-01
 0.2964E+01 0.7411E+01 0.8727E-01
 0.2975E+01 0.7173E+01 0.8455E-01
 0.3011E+01 0.7045E+01 0.8577E-01
 0.3022E+01 0.7121E+01 0.8342E-01
 0.3064E+01 0.7091E+01 0.8518E-01
 0.3090E+01 0.7028E+01 0.8186E-01
 0.3111E+01 0.6809E+01 0.8107E-01
 0.3137E+01 0.7024E+01 0.7983E-01
 0.3163E+01 0.7081E+01 0.8146E-01
 0.3189E+01 0.6942E+01 0.8046E-01
 0.3210E+01 0.6798E+01 0.8083E-01
 0.3236E+01 0.7034E+01 0.7850E-01
 0.3262E+01 0.6624E+01 0.8401E-01
 0.3288E+01 0.6853E+01 0.7666E-01
 0.3313E+01 0.7010E+01 0.8160E-01
 0.3334E+01 0.6784E+01 0.8036E-01
 0.3365E+01 0.6799E+01 0.8496E-01
 0.3385E+01 0.6805E+01 0.8050E-01
 0.3411E+01 0.6614E+01 0.9621E-01
 0.3437E+01 0.6664E+01 0.8026E-01
 0.3462E+01 0.6538E+01 0.8721E-01
 0.3488E+01 0.6946E+01 0.8288E-01
 0.3508E+01 0.6507E+01 0.8281E-01
 0.3534E+01 0.6958E+01 0.9534E-01
 0.3559E+01 0.6994E+01 0.9128E-01
 0.3585E+01 0.6585E+01 0.8658E-01
 0.3610E+01 0.6829E+01 0.8514E-01
 0.3635E+01 0.6640E+01 0.8660E-01
 0.3661E+01 0.6809E+01 0.8748E-01
 0.3686E+01 0.6689E+01 0.9153E-01
 0.3711E+01 0.6485E+01 0.9241E-01
 0.3737E+01 0.6663E+01 0.9595E-01
 0.3747E+01 0.6543E+01 0.9115E-01
 0.3787E+01 0.6767E+01 0.9428E-01
 0.3812E+01 0.6653E+01 0.9238E-01
 0.3837E+01 0.6392E+01 0.9583E-01
 0.3862E+01 0.6456E+01 0.1320E+00
 0.3887E+01 0.6621E+01 0.1035E+00
 0.3937E+01 0.6595E+01 0.1138E+00
 0.3962E+01 0.6747E+01 0.1309E+00
 0.3987E+01 0.6652E+01 0.1081E+00
 0.4012E+01 0.6284E+01 0.1063E+00
 0.4032E+01 0.6410E+01 0.1079E+00
 0.4062E+01 0.6532E+01 0.1038E+00
 0.4087E+01 0.6628E+01 0.1108E+00
 0.4112E+01 0.6381E+01 0.1065E+00
 0.4137E+01 0.6123E+01 0.1236E+00
 0.4162E+01 0.6442E+01 0.1091E+00
 0.4186E+01 0.6514E+01 0.1144E+00
 0.4216E+01 0.6531E+01 0.1074E+00
 0.4241E+01 0.6214E+01 0.1142E+00
 0.4266E+01 0.6384E+01 0.1118E+00
 0.4290E+01 0.6392E+01 0.1179E+00
 0.4315E+01 0.6489E+01 0.1005E+00
 0.4340E+01 0.6301E+01 0.1248E+00
 0.4369E+01 0.6031E+01 0.1179E+00
 0.4394E+01 0.6240E+01 0.1209E+00
 0.4419E+01 0.6250E+01 0.1178E+00
 0.4443E+01 0.6011E+01 0.1204E+00
 0.4473E+01 0.6303E+01 0.1221E+00
 0.4497E+01 0.6022E+01 0.1213E+00
ENDDATA            140
ENDSUBENT          149
SUBENT        13778003   20011126   20020117
BIB                  8         12
REACTION   (72-HF-0(N,EL)72-HF-0,,DA)
INC-SOURCE (D-D)
INC-SPECT  Pulsed source. Energy resolution about 300 keV at 4.5
            MeV, decreasing to 100 keV at 10.0 MeV.
SAMPLE     High-purity metallic hafnium.
DETECTOR   (SCIN) Liquid scintillation detectors.
MONITOR    (1-H-1(N,EL)1-H-1,,DA)
MONIT-REF  (,CONDE+,R,IAEA-227,1983)
CORRECTION Corrected for angular resolution, multiple events, and
            beam attenuation.
           Not corrected for inelastic scattering contamination
            up to 450 keV excitation energy.
ENDBIB              12
NOCOMMON             0          0
DATA                 4        480
EN         ANG        DATA       DATA-ERR
MEV        ADEG       B/SR       PER-CENT
   4.51      17.37       3.6720     3.02
   4.51      21.32       2.8200     3.03
   4.51      25.28       2.0100     3.03
   4.51      27.26       1.6560     3.03
   4.51      29.25       1.3220     3.04
   4.51      31.24       1.1090     3.04
   4.51      35.22       0.6854     3.06
   4.51      39.20       0.4168     3.08
   4.51      42.69       0.2858     3.10
   4.51      46.68       0.2091     3.15
   4.51      50.67       0.1689     3.17
   4.51      54.66       0.1411     3.18
   4.51      58.15       0.1316     3.19
   4.51      62.14       0.1107     3.23
   4.51      66.14       0.09291    3.25
   4.51      70.13       0.07368    3.88
   4.51      73.62       0.06697    4.16
   4.51      77.62       0.06635    4.23
   4.51      81.61       0.07218    4.07
   4.51      85.61       0.08511    3.65
   4.51      89.10       0.09673    3.32
   4.51      93.09       0.1058     3.22
   4.51      97.09       0.1129     3.21
   4.51     101.10       0.1060     3.22
   4.51     105.10       0.09507    3.39
   4.51     109.10       0.07883    3.93
   4.51     113.10       0.06279    4.75
   4.51     117.10       0.04288    6.46
   4.51     120.00       0.03401    7.63
   4.51     124.00       0.02679    9.21
   4.51     128.00       0.02665    9.48
   4.51     132.00       0.03130    8.47
   4.51     135.50       0.03630    7.67
   4.51     139.50       0.04281    6.90
   4.51     143.50       0.04788    6.39
   4.51     145.50       0.04761    6.38
   4.51     147.50       0.04904    6.25
   4.51     149.50       0.04762    6.48
   4.51     153.40       0.04704    6.54
   4.51     157.40       0.04344    6.98
   5.01      17.37       3.6870     3.02
   5.01      21.32       2.6660     3.03
   5.01      25.28       2.0270     3.03
   5.01      27.26       1.5510     3.03
   5.01      29.25       1.2120     3.04
   5.01      31.24       0.9551     3.04
   5.01      35.22       0.6403     3.07
   5.01      39.20       0.3532     3.09
   5.01      42.69       0.2538     3.12
   5.01      46.68       0.1889     3.15
   5.01      50.67       0.1752     3.16
   5.01      54.66       0.1590     3.17
   5.01      58.15       0.1462     3.17
   5.01      62.14       0.1170     3.21
   5.01      66.14       0.09367    3.24
   5.01      70.13       0.07038    3.40
   5.01      73.62       0.05899    3.87
   5.01      77.62       0.05978    3.89
   5.01      81.61       0.06440    3.77
   5.01      85.61       0.08266    3.26
   5.01      89.10       0.09759    3.23
   5.01      93.09       0.1078     3.21
   5.01      97.09       0.1084     3.21
   5.01     101.10       0.1075     3.22
   5.01     105.10       0.09681    3.24
   5.01     109.10       0.07789    3.42
   5.01     113.10       0.05846    4.30
   5.01     117.10       0.03961    5.76
   5.01     120.00       0.02867    7.34
   5.01     124.00       0.01924    9.81
   5.01     128.00       0.01986    9.59
   5.01     132.00       0.02697    7.98
   5.01     135.50       0.03758    6.28
   5.01     139.50       0.04544    5.62
   5.01     143.50       0.05143    5.18
   5.01     145.50       0.05535    4.91
   5.01     147.50       0.05179    5.18
   5.01     149.50       0.05123    5.22
   5.01     153.40       0.04584    5.70
   5.01     157.40       0.04121    6.27
   5.51      17.37       3.3350     3.03
   5.51      21.32       2.3500     3.03
   5.51      25.28       1.5520     3.03
   5.51      27.26       1.2270     3.04
   5.51      29.25       0.9207     3.05
   5.51      31.24       0.7216     3.06
   5.51      35.22       0.4193     3.09
   5.51      39.20       0.2665     3.12
   5.51      42.69       0.2213     3.14
   5.51      46.68       0.2004     3.15
   5.51      50.67       0.1937     3.15
   5.51      54.66       0.1737     3.15
   5.51      58.15       0.1533     3.17
   5.51      62.14       0.1168     3.21
   5.51      66.14       0.08515    3.26
   5.51      70.13       0.06516    3.72
   5.51      73.62       0.05685    4.15
   5.51      77.62       0.05909    4.11
   5.51      81.61       0.06817    3.74
   5.51      85.61       0.08370    3.25
   5.51      89.10       0.09748    3.23
   5.51      93.09       0.1079     3.21
   5.51      97.09       0.1057     3.21
   5.51     101.10       0.09889    3.24
   5.51     105.10       0.08477    3.27
   5.51     109.10       0.06663    3.92
   5.51     113.10       0.04833    5.11
   5.51     117.10       0.03107    7.20
   5.51     120.00       0.02274    9.22
   5.51     124.00       0.02179    9.35
   5.51     128.00       0.02342    9.08
   5.51     132.00       0.03436    6.91
   5.51     135.50       0.04272    5.94
   5.51     139.50       0.05515    5.04
   5.51     143.50       0.05720    4.86
   5.51     145.50       0.05722    4.86
   5.51     147.50       0.05359    5.13
   5.51     149.50       0.05240    5.25
   5.51     153.40       0.04347    6.10
   5.51     157.40       0.03476    7.27
   5.91      17.37       3.4880     3.02
   5.91      21.32       2.4120     3.03
   5.91      25.28       1.5480     3.03
   5.91      27.26       1.2090     3.04
   5.91      29.25       0.9102     3.05
   5.91      31.24       0.6837     3.06
   5.91      35.22       0.3916     3.10
   5.91      39.20       0.2598     3.12
   5.91      42.69       0.2088     3.14
   5.91      46.68       0.2049     3.15
   5.91      50.67       0.2046     3.14
   5.91      54.66       0.1901     3.15
   5.91      58.15       0.1628     3.16
   5.91      62.14       0.1226     3.20
   5.91      66.14       0.08729    3.25
   5.91      70.13       0.06241    3.76
   5.91      73.62       0.06018    3.93
   5.91      77.62       0.06061    3.95
   5.91      81.61       0.07215    3.55
   5.91      85.61       0.08646    3.25
   5.91      89.10       0.09989    3.22
   5.91      93.09       0.1069     3.21
   5.91      97.09       0.1032     3.21
   5.91     101.10       0.09397    3.24
   5.91     105.10       0.08111    3.30
   5.91     109.10       0.06364    4.03
   5.91     113.10       0.04274    5.48
   5.91     117.10       0.03140    7.03
   5.91     120.00       0.02136    9.63
   5.91     124.00       0.02098    9.52
   5.91     128.00       0.02328    8.84
   5.91     132.00       0.03217    7.34
   5.91     135.50       0.04655    5.52
   5.91     139.50       0.05246    5.08
   5.91     143.50       0.05762    4.76
   5.91     145.50       0.05995    4.60
   5.91     147.50       0.05571    4.91
   5.91     149.50       0.05197    5.24
   5.91     153.40       0.04249    6.10
   5.91     157.40       0.03260    7.41
   6.51      17.37       3.2050     3.03
   6.51      21.32       2.1210     3.03
   6.51      25.28       1.2240     3.04
   6.51      27.26       0.9445     3.05
   6.51      29.25       0.6767     3.07
   6.51      31.24       0.4900     3.07
   6.51      35.22       0.2673     3.13
   6.51      39.20       0.2065     3.15
   6.51      42.69       0.2073     3.15
   6.51      46.68       0.2251     3.14
   6.51      50.67       0.2258     3.13
   6.51      54.66       0.2004     3.14
   6.51      58.15       0.1608     3.15
   6.51      62.14       0.1131     3.22
   6.51      66.14       0.07595    3.87
   6.51      70.13       0.05722    4.82
   6.51      73.62       0.05499    5.07
   6.51      77.62       0.06391    4.61
   6.51      81.61       0.07891    3.96
   6.51      85.61       0.09283    3.48
   6.51      89.10       0.1023     3.22
   6.51      93.09       0.1016     3.25
   6.51      97.09       0.08959    3.60
   6.51     101.10       0.07816    4.10
   6.51     105.10       0.06472    4.72
   6.51     109.10       0.04799    6.04
   6.51     113.10       0.03445    8.03
   6.51     117.10       0.02493   10.48
   6.51     120.00       0.02152   11.76
   6.51     124.00       0.02189   11.65
   6.51     128.00       0.02855    9.68
   6.51     132.00       0.03670    7.93
   6.51     135.50       0.04352    6.99
   6.51     139.50       0.05307    6.03
   6.51     143.50       0.05206    6.13
   6.51     145.50       0.05382    5.96
   6.51     147.50       0.05090    6.24
   6.51     149.50       0.04700    6.67
   6.51     153.40       0.03548    8.40
   6.51     157.40       0.02546   10.80
   7.14      17.37       3.1610     3.03
   7.14      21.32       2.0600     3.03
   7.14      25.28       1.0680     3.04
   7.14      27.26       0.7519     3.06
   7.14      29.25       0.5402     3.08
   7.14      31.24       0.3786     3.09
   7.14      35.22       0.2185     3.15
   7.14      39.20       0.2067     3.15
   7.14      42.69       0.2324     3.14
   7.14      46.68       0.2664     3.12
   7.14      50.67       0.2594     3.12
   7.14      54.66       0.2153     3.13
   7.14      58.15       0.1625     3.15
   7.14      62.14       0.1091     3.23
   7.14      66.14       0.06884    3.51
   7.14      70.13       0.05612    4.17
   7.14      73.62       0.06162    3.94
   7.14      77.62       0.07733    3.37
   7.14      81.61       0.09299    3.24
   7.14      85.61       0.1042     3.21
   7.14      89.10       0.1062     3.21
   7.14      93.09       0.09582    3.23
   7.14      97.09       0.07789    3.41
   7.14     101.10       0.06472    4.02
   7.14     105.10       0.04996    4.95
   7.14     109.10       0.03745    6.23
   7.14     113.10       0.03046    7.61
   7.14     117.10       0.02538    8.65
   7.14     120.00       0.02315    9.55
   7.14     124.00       0.02596    8.74
   7.14     128.00       0.02920    8.10
   7.14     132.00       0.03691    6.70
   7.14     135.50       0.04390    5.93
   7.14     139.50       0.04849    5.51
   7.14     143.50       0.04793    5.64
   7.14     145.50       0.04642    5.74
   7.14     147.50       0.04430    6.02
   7.14     149.50       0.04054    6.54
   7.14     153.40       0.03164    7.85
   7.14     157.40       0.02258   10.30
   7.51      17.37       0.3234    10.30
   7.51      21.32       1.9960     3.03
   7.51      25.28       1.0170     3.04
   7.51      27.26       0.7022     3.06
   7.51      29.25       0.5094     3.09
   7.51      31.24       0.3333     3.10
   7.51      35.22       0.1944     3.16
   7.51      39.20       0.2059     3.15
   7.51      42.69       0.2542     3.13
   7.51      46.68       0.2959     3.11
   7.51      50.67       0.2803     3.11
   7.51      54.66       0.2318     3.12
   7.51      58.15       0.1681     3.14
   7.51      62.14       0.1056     3.22
   7.51      66.14       0.06449    4.32
   7.51      70.13       0.05509    4.94
   7.51      73.62       0.06285    4.53
   7.51      77.62       0.08134    3.78
   7.51      81.61       0.09942    3.25
   7.51      85.61       0.1066     3.21
   7.51      89.10       0.1040     3.21
   7.51      93.09       0.09331    3.45
   7.51      97.09       0.07193    4.27
   7.51     101.10       0.05634    5.22
   7.51     105.10       0.04369    6.42
   7.51     109.10       0.03339    8.14
   7.51     113.10       0.02757    9.61
   7.51     117.10       0.02632   10.16
   7.51     120.00       0.02551   10.51
   7.51     124.00       0.02681   10.16
   7.51     128.00       0.02933    9.43
   7.51     132.00       0.03605    8.11
   7.51     135.50       0.03968    7.65
   7.51     139.50       0.04339    7.07
   7.51     143.50       0.04378    7.07
   7.51     145.50       0.04178    7.32
   7.51     147.50       0.03908    7.67
   7.51     149.50       0.03539    8.28
   7.51     153.40       0.02711   10.25
   7.51     157.40       0.02072   12.52
   8.03      17.37       3.2100     3.03
   8.03      21.32       1.8750     3.03
   8.03      25.28       0.9238     3.05
   8.03      27.26       0.6199     3.07
   8.03      29.25       0.3745     3.11
   8.03      31.24       0.2626     3.12
   8.03      35.22       0.1819     3.18
   8.03      39.20       0.2265     3.15
   8.03      42.69       0.2830     3.12
   8.03      46.68       0.3204     3.10
   8.03      50.67       0.2967     3.10
   8.03      54.66       0.2280     3.12
   8.03      58.15       0.1639     3.15
   8.03      62.14       0.09637    3.24
   8.03      66.14       0.05941    3.86
   8.03      70.13       0.05442    4.22
   8.03      73.62       0.06927    3.61
   8.03      77.62       0.09060    3.24
   8.03      81.61       0.1094     3.21
   8.03      85.61       0.1076     3.20
   8.03      89.10       0.1042     3.22
   8.03      93.09       0.08470    3.25
   8.03      97.09       0.06319    4.01
   8.03     101.10       0.04553    5.34
   8.03     105.10       0.03373    6.80
   8.03     109.10       0.02975    7.56
   8.03     113.10       0.02867    7.99
   8.03     117.10       0.02833    8.27
   8.03     120.00       0.03097    7.70
   8.03     124.00       0.02997    7.92
   8.03     128.00       0.03153    7.54
   8.03     132.00       0.03091    7.76
   8.03     135.50       0.03457    7.15
   8.03     139.50       0.03695    6.83
   8.03     143.50       0.03571    7.12
   8.03     145.50       0.03508    7.18
   8.03     147.50       0.03221    7.72
   8.03     149.50       0.02875    8.48
   8.03     153.40       0.02181   10.21
   8.03     157.40       0.01854   11.55
   8.41      17.47       3.1190     3.03
   8.41      21.42       1.7530     3.03
   8.41      25.38       0.8458     3.05
   8.41      27.36       0.5464     3.08
   8.41      29.35       0.3499     3.12
   8.41      31.34       0.2231     3.13
   8.41      35.32       0.1501     3.19
   8.41      39.30       0.2129     3.16
   8.41      42.79       0.2721     3.13
   8.41      46.78       0.3056     3.10
   8.41      50.77       0.2877     3.11
   8.41      54.76       0.2175     3.12
   8.41      58.25       0.1593     3.15
   8.41      62.24       0.09457    3.25
   8.41      66.24       0.05762    3.33
   8.41      70.23       0.05309    3.37
   8.41      73.72       0.06293    3.32
   8.41      77.72       0.08098    3.27
   8.41      81.71       0.09528    3.23
   8.41      85.71       0.09832    3.23
   8.41      89.20       0.09039    3.26
   8.41      93.19       0.07155    3.30
   8.41      97.19       0.04964    3.73
   8.41     101.20       0.03639    4.87
   8.41     105.20       0.02801    6.04
   8.41     109.20       0.02287    7.19
   8.41     113.20       0.02243    7.42
   8.41     117.20       0.02501    6.83
   8.41     120.10       0.02240    7.57
   8.41     124.10       0.02366    7.38
   8.41     128.10       0.02322    7.43
   8.41     132.10       0.02602    7.01
   8.41     135.60       0.02818    6.60
   8.41     139.60       0.02944    6.48
   8.41     143.60       0.02792    6.76
   8.41     145.60       0.02817    6.74
   8.41     147.60       0.02567    7.25
   8.41     149.60       0.02465    7.43
   8.41     153.50       0.01783    9.27
   8.41     157.50       0.01587    9.89
   9.06      17.37       3.2420     3.03
   9.06      21.32       1.6890     3.04
   9.06      25.28       0.6592     3.06
   9.06      27.26       0.4398     3.10
   9.06      29.25       0.2295     3.15
   9.06      31.24       0.1820     3.16
   9.06      35.22       0.1652     3.18
   9.06      39.20       0.2682     3.13
   9.06      42.69       0.3442     3.10
   9.06      46.68       0.3653     3.09
   9.06      50.67       0.3100     3.10
   9.06      54.66       0.2130     3.12
   9.06      58.15       0.1424     3.16
   9.06      62.14       0.08046    3.28
   9.06      66.14       0.05036    4.38
   9.06      70.13       0.05496    4.21
   9.06      73.62       0.07730    3.34
   9.06      77.62       0.09659    3.23
   9.06      81.61       0.1045     3.21
   9.06      85.61       0.09692    3.23
   9.06      89.10       0.08773    3.27
   9.06      93.09       0.06441    3.94
   9.06      97.09       0.04049    5.74
   9.06     101.10       0.02686    8.09
   9.06     105.10       0.02359    9.18
   9.06     109.10       0.02339    9.40
   9.06     113.10       0.02584    8.81
   9.06     117.10       0.02987    7.99
   9.06     120.00       0.03241    7.53
   9.06     124.00       0.03053    7.97
   9.06     128.00       0.02504    9.24
   9.06     132.00       0.02284   10.02
   9.06     135.50       0.02459    9.34
   9.06     139.50       0.02238   10.12
   9.06     143.50       0.02061   11.08
   9.06     145.50       0.02060   11.10
   9.06     147.50       0.01958   11.41
   9.06     149.50       0.01849   11.72
   9.06     153.40       0.01313   14.61
   9.06     157.40       0.01514   12.85
   9.51      17.37       2.7790     3.03
   9.51      21.32       1.4690     3.04
   9.51      25.28       0.5275     3.07
   9.51      27.26       0.3412     3.11
   9.51      29.25       0.2235     3.17
   9.51      31.24       0.1530     3.19
   9.51      35.22       0.1694     3.18
   9.51      39.20       0.3052     3.13
   9.51      42.69       0.3654     3.10
   9.51      46.68       0.3670     3.09
   9.51      50.67       0.2762     3.10
   9.51      54.66       0.2089     3.13
   9.51      58.15       0.1203     3.19
   9.51      62.14       0.06542    4.29
   9.51      66.14       0.03853    6.92
   9.51      70.13       0.05864    5.02
   9.51      73.62       0.07996    3.97
   9.51      77.62       0.09599    3.44
   9.51      81.61       0.09236    3.57
   9.51      85.61       0.09399    3.52
   9.51      89.10       0.07394    4.31
   9.51      93.09       0.05263    5.73
   9.51      97.09       0.03053    9.10
   9.51     101.10       0.02443   10.95
   9.51     105.10       0.01957   13.52
   9.51     109.10       0.02257   12.35
   9.51     113.10       0.02415   12.05
   9.51     117.10       0.03189    9.43
   9.51     120.00       0.02968   10.26
   9.51     124.00       0.02808   10.71
   9.51     128.00       0.01798   16.10
   9.51     132.00       0.02182   13.14
   9.51     135.50       0.01817   15.61
   9.51     139.50       0.01831   15.59
   9.51     143.50       0.01666   17.13
   9.51     145.50       0.01697   16.58
   9.51     147.50       0.01732   16.41
   9.51     149.50       0.01725   16.65
   9.51     153.40       0.01416   19.92
   9.51     157.40       0.01702   16.70
   9.99      17.37       2.9220     3.03
   9.99      21.32       1.4800     3.04
   9.99      25.28       0.6266     3.07
   9.99      27.26       0.3299     3.11
   9.99      29.25       0.2302     3.16
   9.99      31.24       0.1549     3.17
   9.99      35.22       0.2161     3.16
   9.99      39.20       0.3323     3.11
   9.99      42.69       0.4071     3.09
   9.99      46.68       0.4000     3.08
   9.99      50.67       0.3191     3.10
   9.99      54.66       0.2139     3.12
   9.99      58.15       0.1142     3.17
   9.99      62.14       0.06352    3.65
   9.99      66.14       0.05164    4.35
   9.99      70.13       0.05976    4.12
   9.99      73.62       0.08918    3.26
   9.99      77.62       0.1018     3.23
   9.99      81.61       0.1051     3.22
   9.99      85.61       0.09323    3.26
   9.99      89.10       0.06714    3.92
   9.99      93.09       0.04775    5.11
   9.99      97.09       0.03145    7.16
   9.99     101.10       0.02144    9.98
   9.99     105.10       0.01877   11.53
   9.99     109.10       0.02225   10.27
   9.99     113.10       0.02929    8.38
   9.99     117.10       0.03171    7.86
   9.99     120.00       0.03088    8.08
   9.99     124.00       0.02845    8.75
   9.99     128.00       0.02420    9.97
   9.99     132.00       0.02062   11.45
   9.99     135.50       0.01662   13.75
   9.99     139.50       0.01609   13.95
   9.99     143.50       0.01856   12.51
   9.99     145.50       0.01619   14.34
   9.99     147.50       0.01935   12.31
   9.99     149.50       0.01652   14.28
   9.99     153.40       0.01941   11.79
   9.99     157.40       0.01741   13.15
ENDDATA            482
ENDSUBENT          499
ENDENTRY             3
