ENTRY            12229     821012
SUBENT        12229001     821012
BIB                  5          6
INSTITUTE  (1USAORL)
REFERENCE  (W,MACKLIN,6904)
AUTHOR     (J.H.GIBBONS,R.L.MACKLIN)
STATUS     (SCSRS)
HISTORY    (760803T) TRANSLATED FROM SCISRS
           (821012A) CONVERTED TO REACTION FORMALISM
ENDBIB               6
NOCOMMON             0          0
ENDSUBENT            9
SUBENT        12229002     821012
BIB                  5          7
REACTION   (92-U-238(N,G)92-U-239,,SIG)
STATUS     (SPSDD,12229003)
REFERENCE  (W,MACKLIN,6403)
DETECTOR   (MOXR) MOXON-RAE DETECTOR
MONITOR    (73-TA-0(N,G),,SIG)
            RELATIVE TO TANTALUM CAPTURE=735MB AT
            30KEV.
ENDBIB               7
NOCOMMON             0          0
NODATA               0          0
ENDSUBENT           11
SUBENT        12229003     821012
BIB                  2          4
REACTION   (92-U-238(N,G)92-U-239,,SIG)
ANALYSIS   BINDING ENERGY USED - 4600 KEV. CROSS SECTION SHOULD
            BE LOWERED ABOUT 4 PERCENT TO CORRECT TO BINDING
            ENERGY OF 4803.
ENDBIB               4
NOCOMMON             0          0
DATA                 3        125
EN         DATA       DATA-ERR
KEV        MB         MB
 10.0819    1341.5     194.9
 10.1769    1149.4     185.3
 10.2732    1077.2     179.2
 10.3708    1022.5     171.9
 10.4698    1024.6     162.7
 10.5703     889.6     156.5
 10.6722     862.0     147.3
 10.7757     750.5     141.7
 10.88       808.3     136.3
 10.987      831.6     125.5
 11.095      908.0     124.8
 11.2        859.5     118.9
 11.3159     944.4     118.1
 11.4289     878.3     116.1
 11.5435     863.3     111.7
 11.6599     832.5     109.2
 11.778      919.2     110.3
 11.8979     874.3     106.8
 12.0197     860.4     111.1
 12.1433     870.9     107.0
 12.2689     834.3     104.8
 12.3964     870.6     102.4
 12.526      928.8      99.0
 12.6575     814.1      98.0
 12.7912     811.9      97.0
 12.927      866.1      89.7
 13.0649     851.3      85.2
 13.2        972.9      82.4
 13.3475     981.8      79.6
 13.4923     961.1      76.2
 13.6394     967.6      70.8
 13.789      917.8      65.9
 13.941      876.1      65.4
 14.0955     868.3      63.3
 14.2527     816.9      62.3
 14.4124     779.6      60.7
 14.5749     756.6      58.8
 14.7401     771.3      58.5
 14.9        806.8      58.2
 15.0792     795.9      56.6
 15.2531     793.1      55.6
 15.43       773.7      53.1
 15.61       787.0      52.8
 15.7932     801.0      52.6
 15.9797     768.9      51.3
 16.1695     776.7      49.9
 16.3626     775.5      47.7
 16.5593     772.2      46.2
 16.7595     763.3      45.7
 16.9634     741.1      43.1
 17.171      752.3      42.0
 17.3824     748.6      41.2
 17.5978     733.3      39.4
 17.8172     741.3      39.1
 18.0408     749.8      39.3
 18.2685     766.4      37.9
 18.5        794.3      38.2
 18.7372     765.7      37.0
 18.9783     780.7      35.5
 19.2242     777.6      35.4
 19.4748     759.2      34.2
 19.73       707.7      32.8
 19.991      692.4      31.8
 20.2568     664.1      30.9
 20.5279     633.6      30.4
 20.8        627.6      29.9
 21.0868     604.6      28.5
 21.3749     603.7      28.2
 21.6689     627.5      27.9
 21.969      619.4      27.9
 22.2753     635.8      27.2
 22.5882     647.3      26.4
 22.9        635.3      25.9
 23.2339     643.9      25.9
 23.5672     625.9      24.7
 23.9        615.2      24.1
 24.2557     619.4      23.5
 24.6114     592.8      22.8
 24.9749     586.4      22.2
 25.3465     590.0      21.8
 25.7265     582.1      21.4
 26.115      588.4      21.2
 26.5125     583.9      20.8
 26.9191     577.6      20.0
 27.3351     586.0      19.7
 27.76       578.4      19.2
 28.1966     572.8      18.8
 28.6427     575.2      18.5
 29.1995     566.8      18.4
 29.5673     566.1      18.2
 30.0465     548.4      18.0
 30.5374     536.2      17.6
 31.0404     537.7      17.3
 31.556      527.1      16.8
 32.0845     509.0      16.0
 32.6264     505.5      15.7
 33.1822     491.7      15.0
 33.7522     499.5      14.6
 34.3371     494.9      14.2
 34.9374     493.6      13.9
 35.5535     508.9      14.1
 36.186      509.0      13.8
 36.8356     503.1      13.5
 37.5        504.0      13.1
 38.1884     488.8      12.9
 38.8929     488.9      12.7
 39.6171     481.2      12.5
 40.3617     463.0      11.9
 41.1275     459.9      11.8
 41.9153     457.5      11.5
 42.7259     440.3      11.2
 43.5603     430.5      11.0
 44.4194     425.7      10.8
 45.3        410.2      10.5
 46.2155     389.3      10.2
 47.1547     376.6      10.3
 48.1229     367.1      10.4
 49.1212     369.6      10.3
 50.15       368.7      10.5
 51.2132     353.0      10.5
 52.3        355.1      11.2
 53.4418     360.7      11.7
 54.611      365.0      12.2
 55.819      359.0      12.8
 57.0676     351.3      14.2
ENDDATA            127
ENDSUBENT          136
ENDENTRY             3
